"success","timeout","failed_images","failed_audio","failed_video","trial_type","trial_index","time_elapsed","internal_node_id","rt","part","response","stimulus","correct","choices","correct_choice","trial_duration","response_ends_trial","number_of_apertures","number_of_dots","number_of_sets","coherent_direction","coherence","opposite_coherence","dot_radius","dot_side_length","dot_life","move_distance","aperture_width","aperture_height","dot_color_beforeOne","dot_color_beforeTwo","dot_color_after","dot_color_delay","move_delay","dot_shape","background_color","RDK_type","aperture_type","reinsert_type","frame_rate","frame_rate_array","number_of_frames","aperture_center_x","aperture_center_y","fixation_cross","fixation_cross_width","fixation_cross_height","fixation_cross_color","fixation_cross_thickness","border","border_thickness","border_color","canvas_width","canvas_height","task","correct_responce","match","association","difficulty"
"true","false","[]","[]","[]","preload","0","13","0.0-0.0","","","","","","","","","","","","","","","","","","","","","","","","","","","","","","","","","","","","","","","","","","","","","","","","","","",""
"true","","","","","fullscreen","1","2450627","0.0-1.0","2448593","fullScreen","","","","","","","","","","","","","","","","","","","","","","","","","","","","","","","","","","","","","","","","","","","","","","","","",""
"","","","","","survey","2","2462380","0.0-2.0","10678","survey","{""sex"":""女"",""age"":20,""hands"":""右"",""color_blindness"":""都不是""}","","","","","","","","","","","","","","","","","","","","","","","","","","","","","","","","","","","","","","","","","","","","","","","",""
"","","","","","survey-text","3","2472623","0.0-3.0","9227","color_test","{""Q0"":""be""}","","","","","","","","","","","","","","","","","","","","","","","","","","","","","","","","","","","","","","","","","","","","","","","",""
"","","","","","html-keyboard-response","4","2476481","0.0-4.0","2845","instruction_beginning"," ","
      <div style=""text-align: left; color: white"">
        <h3 style=""text-align: center; font-size: 30px; margin: 0;"">欢迎参与本实验</h3>
          <p>为充分保障您的权利，请确保您已经知晓并同意《参与实验同意书》以及《数据公开知情同意书》，</p>
          <p>如果您未见过上述内容，请咨询实验员 ，</p>
          <p>如果您选择继续实验，则表示您已经清楚两份知情同意书的内容并同意 。</p>
          <p>在整个实验中，您需要完成两项任务，具体的任务要求会在后面说明 ，</p>
          <p>请按空格键进入实验</p >
      </div>","","","","","","","","","","","","","","","","","","","","","","","","","","","","","","","","","","","","","","","","","","","","","","",""
"","","","","","html-keyboard-response","5","2527742","0.0-5.0-1.0-0.0-0.0","50257","instruction_match"," ","
        <div style=""text-align: left; color: white; padding: 10px""> 
          <h3 style=""text-align: center; font-size: 30px; margin: 10px"">任务一：匹配判断</h3>
          <p>接下来，屏幕上会呈现一些运动的圆点，其中一半为 <span style=""color: hsl(0, 50%, 50%)"">红色</span> ，一半为 <span style=""color: hsl(225, 50%, 50%)"">蓝色</span> 。</p>
          <p>同时散点图的下方会出现 ""自己"" 或 ""生人"" 的文字标签。</p >
          <p><span style=""font-weight: bold"">大约0.2秒后,</span>  一部分点会随机变为另一种颜色（例如从红色变为蓝色），变化后某种颜色的数量会超过另一种。</p >
          <p>如果整体颜色为 <span style=""color: hsl(225, 50%, 50%)"">蓝色</span> 代表 <span style=""color: hsl(225, 50%, 50%)"">你自己</span> ，整体颜色为 <span style=""color: hsl(0, 50%, 50%)"">红色</span> 代表 <span style=""color: hsl(0, 50%, 50%)"">生人（即陌生人）</span>。</p >
          <p>您需要在3秒内判断 <span style=""font-weight: bold"">散点图的整体颜色与文字是否匹配</span> 。</p >
          <ul>
            <li><span style=""color: hsl(135, 50%, 50%)"">匹配</span>，请按键盘 <span style=""color: hsl(135, 50%, 50%)"">""F"" 键</span>；</li>
            <li><span style=""color: red"">不匹配</span>，请按键盘 <span style=""color: red"">""J"" 键</span> </li>
          </ul>
          <p>按下空格键后将呈现示例</p>
        </div>","","","","","","","","","","","","","","","","","","","","","","","","","","","","","","","","","","","","","","","","","","","","","","",""
"","","","","","rdk","6","2534253","0.0-5.0-1.0-0.0-1.0","5492","example"," ","","true","["" ""]","["" ""]","300000","true","4","[80,20,80,20]","1","0","0","0","5","1","-1","3","400","400","hsla(0, 50%, 50%, 70%)","hsla(225, 50%, 50%, 70%)","[""hsla(225, 50%, 50%, 70%)"",""hsla(0, 50%, 50%, 70%)"",""hsla(0, 50%, 50%, 70%)"",""hsla(225, 50%, 50%, 70%)""]","10","10","circle","black","3","1","2","16.778787878787877","[1,15,16,17,17,16,18,16,17,17,17,17,17,17,16,17,16,17,17,16,17,17,18,16,17,17,17,17,17,17,17,17,17,17,17,17,17,17,17,17,17,16,17,16,17,17,17,16,17,16,18,17,17,17,16,17,17,17,17,17,17,17,17,16,17,17,17,16,16,17,18,16,17,17,18,16,17,17,17,17,17,17,17,17,16,17,17,17,16,17,17,17,17,17,16,17,17,16,17,16,17,16,16,18,17,17,17,17,17,17,17,17,17,17,16,17,17,17,17,17,17,17,16,17,17,17,17,16,17,17,18,16,17,17,17,17,17,16,17,16,17,17,17,16,17,17,17,17,17,17,16,17,17,16,17,17,18,16,17,16,17,17,17,17,17,17,17,17,16,17,18,16,17,17,16,17,17,17,17,18,16,17,16,17,16,17,18,16,17,17,18,16,17,17,17,17,17,16,17,16,17,17,17,17,17,17,17,17,17,17,17,17,16,17,16,17,17,17,17,17,17,17,17,17,16,17,17,17,17,17,17,16,17,17,17,17,17,17,16,17,17,17,17,17,17,17,16,17,17,17,17,17,17,17,17,16,17,17,17,17,17,18,15,17,16,17,17,17,17,17,16,17,17,17,16,17,17,16,17,16,17,16,17,17,17,17,17,17,17,16,18,15,17,17,17,17,17,16,17,17,16,17,17,17,17,17,17,16,18,16,16,17,17,17,17,16,17,18,16,17,18,16,17,17,17,17,17,17,17,16]","330","[300,300,900,900]","[280,280,280,280]","false","20","20","black","1","false","1","1","1200","660","","","","",""
"","","","","","html-keyboard-response","7","2543821","0.0-5.0-1.0-0.0-2.0-1.0-0.0-0.0","9053","instruction_match_practice"," ","
        <div style=""text-align: left; color: white; padding: 10px"">  
          <h3 style=""text-align: center; font-size: 30px; margin: 10px;"">练习阶段</h3>
          <p>整体颜色为 <span style=""color: hsl(225, 50%, 50%)"">蓝色</span> 代表 <span style=""color: hsl(225, 50%, 50%)"">你自己</span> ，为 <span style=""color: hsl(0, 50%, 50%)"">红色</span> 代表 <span style=""color: hsl(0, 50%, 50%)"">生人（即陌生人）</span>。</p >
          <p>您需要在3秒内判断 <span style=""font-weight: bold"">散点图的运动方向与文字是否匹配</span>，<span style=""color: hsl(135, 50%, 50%);"">匹配</span> 按 <span style=""color: hsl(135, 50%, 50%);"">""F"" 键</span>；<span style=""color: red;"">不匹配</span> 按 <span style=""color: red;"">""J"" 键</span> </p >
          <p>正确率达到 70% 及以上才能进入下一个阶段</p >
          <p>请把左手食指放在 ""F"" 键上，右手食指放在 ""J"" 键上</p >
          <p>请按下空格键开始练习</p >
        </div>","","","","","","","","","","","","","","","","","","","","","","","","","","","","","","","","","","","","","","","","","","","","","","",""
"","","","","","html-keyboard-response","8","2545333","0.0-5.0-1.0-0.0-2.0-1.0-0.0-1.0-0.0","null","fixation","null","<p style='font-size: 48px; color: white'>+</p >","","","","","","","","","","","","","","","","","","","","","","","","","","","","","","","","","","","","","","","","","","","","","","",""
"","","","","","rdk","9","2549117","0.0-5.0-1.0-0.0-2.0-1.0-0.0-1.0-1.0","2766","match_RDK","j","","true","[""f"",""j""]","[""j""]","3000","true","2","[80,20]","1","0","0","0","5","1","-1","3","500","500","hsla(225, 50%, 50%, 70%)","hsla(0, 50%, 50%, 70%)","[""hsla(225, 50%, 50%, 70%)"",""hsla(0, 50%, 50%, 70%)""]","10","7","circle","black","3","2","2","16.897590361445783","[9,17,17,16,17,17,17,17,17,17,16,16,17,17,17,17,17,17,17,17,17,17,17,17,17,17,17,17,17,17,17,16,17,17,17,17,17,17,17,17,17,17,17,17,17,17,17,17,17,16,17,17,17,17,17,16,17,17,17,17,17,17,17,17,17,17,17,17,17,17,17,17,17,17,17,17,17,17,17,17,17,17,17,17,17,17,17,17,17,17,17,17,17,17,16,17,17,17,17,17,17,17,17,17,17,17,17,17,17,17,17,17,17,17,17,17,17,17,17,17,17,17,17,17,17,17,17,17,17,17,17,17,17,17,17,17,16,17,17,17,17,17,17,17,17,17,17,17,17,17,16,17,17,17,17,17,17,17,17,17,17,17,17,17,17,17]","166","600","250","false","20","20","black","1","false","1","1","1200","660","response","j","no","other",""
"","","","","","html-keyboard-response","10","2550131","0.0-5.0-1.0-0.0-2.0-1.0-0.0-1.0-2.0","null","","null","<p style='font-size: 60px; color: green'>正确!</p>","","","","","","","","","","","","","","","","","","","","","","","","","","","","","","","","","","","","","","","","","","","","","","",""
"","","","","","html-keyboard-response","11","2551648","0.0-5.0-1.0-0.0-2.0-1.0-0.0-1.0-0.1","null","fixation","null","<p style='font-size: 48px; color: white'>+</p >","","","","","","","","","","","","","","","","","","","","","","","","","","","","","","","","","","","","","","","","","","","","","","",""
"","","","","","rdk","12","2555309","0.0-5.0-1.0-0.0-2.0-1.0-0.0-1.0-1.1","2659","match_RDK","j","","true","[""f"",""j""]","[""j""]","3000","true","2","[80,20]","1","0","0","0","5","1","-1","3","500","500","hsla(225, 50%, 50%, 70%)","hsla(0, 50%, 50%, 70%)","[""hsla(0, 50%, 50%, 70%)"",""hsla(225, 50%, 50%, 70%)""]","10","7","circle","black","3","2","2","16.861635220125788","[12,17,17,17,17,17,17,17,17,17,17,17,17,17,17,17,17,17,17,16,17,17,17,17,17,16,18,16,17,17,17,16,17,17,17,17,17,17,17,17,17,17,17,17,17,17,17,17,17,17,17,17,17,17,17,17,17,17,17,17,17,17,17,17,17,17,16,16,17,17,17,17,18,16,17,17,17,17,16,17,16,17,18,17,17,17,17,17,17,17,17,17,16,17,17,17,17,17,17,17,17,17,16,17,17,17,17,17,16,17,17,17,17,17,17,17,17,17,17,16,17,17,16,17,17,16,17,17,17,16,17,17,17,16,17,16,17,16,17,17,16,17,17,17,17,17,17,17,17,17,17,17,17,17,17,17,17,17,17]","159","600","250","false","20","20","black","1","false","1","1","1200","660","response","j","no","self",""
"","","","","","html-keyboard-response","13","2556332","0.0-5.0-1.0-0.0-2.0-1.0-0.0-1.0-2.1","null","","null","<p style='font-size: 60px; color: green'>正确!</p>","","","","","","","","","","","","","","","","","","","","","","","","","","","","","","","","","","","","","","","","","","","","","","",""
"","","","","","html-keyboard-response","14","2557849","0.0-5.0-1.0-0.0-2.0-1.0-0.0-1.0-0.2","null","fixation","null","<p style='font-size: 48px; color: white'>+</p >","","","","","","","","","","","","","","","","","","","","","","","","","","","","","","","","","","","","","","","","","","","","","","",""
"","","","","","rdk","15","2560637","0.0-5.0-1.0-0.0-2.0-1.0-0.0-1.0-1.2","1785","match_RDK","f","","true","[""f"",""j""]","[""f""]","3000","true","2","[80,20]","1","0","0","0","5","1","-1","3","500","500","hsla(225, 50%, 50%, 70%)","hsla(0, 50%, 50%, 70%)","[""hsla(0, 50%, 50%, 70%)"",""hsla(225, 50%, 50%, 70%)""]","10","7","circle","black","3","2","2","16.700934579439252","[10,17,17,17,17,17,17,16,17,16,17,17,18,17,16,17,17,16,17,17,17,17,17,16,17,16,17,17,17,16,17,16,17,17,16,16,16,17,17,17,16,17,17,17,16,17,17,17,17,16,17,17,17,17,17,17,17,17,17,17,17,16,17,17,17,16,17,17,16,17,17,17,17,17,16,17,17,16,17,17,16,17,17,17,17,16,16,16,17,17,17,17,17,17,16,17,17,17,17,17,16,17,17,16,17,17,17]","107","600","250","false","20","20","black","1","false","1","1","1200","660","response","f","yes","other",""
"","","","","","html-keyboard-response","16","2561665","0.0-5.0-1.0-0.0-2.0-1.0-0.0-1.0-2.2","null","","null","<p style='font-size: 60px; color: green'>正确!</p>","","","","","","","","","","","","","","","","","","","","","","","","","","","","","","","","","","","","","","","","","","","","","","",""
"","","","","","html-keyboard-response","17","2563183","0.0-5.0-1.0-0.0-2.0-1.0-0.0-1.0-0.3","null","fixation","null","<p style='font-size: 48px; color: white'>+</p >","","","","","","","","","","","","","","","","","","","","","","","","","","","","","","","","","","","","","","","","","","","","","","",""
"","","","","","rdk","18","2565215","0.0-5.0-1.0-0.0-2.0-1.0-0.0-1.0-1.3","1029","match_RDK","f","","true","[""f"",""j""]","[""f""]","3000","true","2","[20,80]","1","0","0","0","5","1","-1","3","500","500","hsla(225, 50%, 50%, 70%)","hsla(0, 50%, 50%, 70%)","[""hsla(0, 50%, 50%, 70%)"",""hsla(225, 50%, 50%, 70%)""]","10","7","circle","black","3","2","2","16.774193548387096","[9,17,17,17,17,17,17,17,17,17,17,17,18,16,16,17,17,17,17,17,17,17,17,17,17,17,16,17,16,16,17,17,17,17,17,17,17,17,17,17,17,17,17,17,16,17,17,17,17,17,16,17,17,17,17,17,17,17,17,17,17,17]","62","600","250","false","20","20","black","1","false","1","1","1200","660","response","f","yes","self",""
"","","","","","html-keyboard-response","19","2566232","0.0-5.0-1.0-0.0-2.0-1.0-0.0-1.0-2.3","null","","null","<p style='font-size: 60px; color: green'>正确!</p>","","","","","","","","","","","","","","","","","","","","","","","","","","","","","","","","","","","","","","","","","","","","","","",""
"","","","","","html-keyboard-response","20","2567749","0.0-5.0-1.0-0.0-2.0-1.0-0.0-1.0-0.4","null","fixation","null","<p style='font-size: 48px; color: white'>+</p >","","","","","","","","","","","","","","","","","","","","","","","","","","","","","","","","","","","","","","","","","","","","","","",""
"","","","","","rdk","21","2569933","0.0-5.0-1.0-0.0-2.0-1.0-0.0-1.0-1.4","1166","match_RDK","j","","true","[""f"",""j""]","[""j""]","3000","true","2","[80,20]","1","0","0","0","5","1","-1","3","500","500","hsla(225, 50%, 50%, 70%)","hsla(0, 50%, 50%, 70%)","[""hsla(0, 50%, 50%, 70%)"",""hsla(225, 50%, 50%, 70%)""]","10","7","circle","black","3","2","2","16.885714285714286","[11,17,17,17,17,17,17,17,17,17,17,17,17,17,17,17,17,17,17,17,17,17,17,17,17,17,17,17,17,17,17,17,17,17,17,17,17,17,17,17,17,17,17,17,17,17,17,17,16,17,17,17,17,17,17,17,16,17,17,17,17,17,17,17,17,17,17,17,17,17]","70","600","250","false","20","20","black","1","false","1","1","1200","660","response","j","no","self",""
"","","","","","html-keyboard-response","22","2570948","0.0-5.0-1.0-0.0-2.0-1.0-0.0-1.0-2.4","null","","null","<p style='font-size: 60px; color: green'>正确!</p>","","","","","","","","","","","","","","","","","","","","","","","","","","","","","","","","","","","","","","","","","","","","","","",""
"","","","","","html-keyboard-response","23","2572465","0.0-5.0-1.0-0.0-2.0-1.0-0.0-1.0-0.5","null","fixation","null","<p style='font-size: 48px; color: white'>+</p >","","","","","","","","","","","","","","","","","","","","","","","","","","","","","","","","","","","","","","","","","","","","","","",""
"","","","","","rdk","24","2574973","0.0-5.0-1.0-0.0-2.0-1.0-0.0-1.0-1.5","1501","match_RDK","j","","true","[""f"",""j""]","[""j""]","3000","true","2","[80,20]","1","0","0","0","5","1","-1","3","500","500","hsla(225, 50%, 50%, 70%)","hsla(0, 50%, 50%, 70%)","[""hsla(225, 50%, 50%, 70%)"",""hsla(0, 50%, 50%, 70%)""]","10","7","circle","black","3","2","2","16.7","[6,17,16,18,16,17,17,16,17,17,17,16,17,16,17,17,17,16,17,17,17,17,17,17,17,17,17,17,17,16,17,17,16,17,17,17,17,16,17,17,17,16,17,16,17,17,17,17,16,17,17,17,17,17,17,17,17,17,17,16,17,17,17,17,17,17,17,17,17,17,16,17,17,17,17,17,16,17,17,17,17,17,17,17,16,17,17,17,17,16]","90","600","250","false","20","20","black","1","false","1","1","1200","660","response","j","no","other",""
"","","","","","html-keyboard-response","25","2575998","0.0-5.0-1.0-0.0-2.0-1.0-0.0-1.0-2.5","null","","null","<p style='font-size: 60px; color: green'>正确!</p>","","","","","","","","","","","","","","","","","","","","","","","","","","","","","","","","","","","","","","","","","","","","","","",""
"","","","","","html-keyboard-response","26","2577516","0.0-5.0-1.0-0.0-2.0-1.0-0.0-1.0-0.6","null","fixation","null","<p style='font-size: 48px; color: white'>+</p >","","","","","","","","","","","","","","","","","","","","","","","","","","","","","","","","","","","","","","","","","","","","","","",""
"","","","","","rdk","27","2580015","0.0-5.0-1.0-0.0-2.0-1.0-0.0-1.0-1.6","1482","match_RDK","f","","true","[""f"",""j""]","[""f""]","3000","true","2","[20,80]","1","0","0","0","5","1","-1","3","500","500","hsla(225, 50%, 50%, 70%)","hsla(0, 50%, 50%, 70%)","[""hsla(0, 50%, 50%, 70%)"",""hsla(225, 50%, 50%, 70%)""]","10","7","circle","black","3","2","2","16.853932584269664","[11,17,17,17,17,17,17,17,17,17,17,17,17,17,17,17,17,17,17,17,17,16,17,17,17,17,17,17,17,17,16,17,17,17,17,17,17,17,17,17,17,17,17,17,17,17,17,17,17,17,16,17,17,17,16,17,17,17,17,16,17,17,17,17,17,17,17,17,17,17,17,17,17,17,17,17,16,17,17,17,17,17,17,17,16,17,17,17,17]","89","600","250","false","20","20","black","1","false","1","1","1200","660","response","f","yes","self",""
"","","","","","html-keyboard-response","28","2581031","0.0-5.0-1.0-0.0-2.0-1.0-0.0-1.0-2.6","null","","null","<p style='font-size: 60px; color: green'>正确!</p>","","","","","","","","","","","","","","","","","","","","","","","","","","","","","","","","","","","","","","","","","","","","","","",""
"","","","","","html-keyboard-response","29","2582550","0.0-5.0-1.0-0.0-2.0-1.0-0.0-1.0-0.7","null","fixation","null","<p style='font-size: 48px; color: white'>+</p >","","","","","","","","","","","","","","","","","","","","","","","","","","","","","","","","","","","","","","","","","","","","","","",""
"","","","","","rdk","30","2584477","0.0-5.0-1.0-0.0-2.0-1.0-0.0-1.0-1.7","910","match_RDK","f","","true","[""f"",""j""]","[""f""]","3000","true","2","[80,20]","1","0","0","0","5","1","-1","3","500","500","hsla(225, 50%, 50%, 70%)","hsla(0, 50%, 50%, 70%)","[""hsla(0, 50%, 50%, 70%)"",""hsla(225, 50%, 50%, 70%)""]","10","7","circle","black","3","2","2","17.132075471698112","[27,17,17,17,17,17,17,17,17,17,17,17,17,17,17,17,17,17,17,17,17,17,17,17,17,17,17,17,17,17,17,17,17,17,16,17,17,16,17,16,17,17,17,17,17,17,17,17,17,17,17,17,17]","53","600","250","false","20","20","black","1","false","1","1","1200","660","response","f","yes","other",""
"","","","","","html-keyboard-response","31","2585498","0.0-5.0-1.0-0.0-2.0-1.0-0.0-1.0-2.7","null","","null","<p style='font-size: 60px; color: green'>正确!</p>","","","","","","","","","","","","","","","","","","","","","","","","","","","","","","","","","","","","","","","","","","","","","","",""
"","","","","","html-keyboard-response","32","2587015","0.0-5.0-1.0-0.0-2.0-1.0-0.0-1.0-0.8","null","fixation","null","<p style='font-size: 48px; color: white'>+</p >","","","","","","","","","","","","","","","","","","","","","","","","","","","","","","","","","","","","","","","","","","","","","","",""
"","","","","","rdk","33","2588817","0.0-5.0-1.0-0.0-2.0-1.0-0.0-1.0-1.8","796","match_RDK","j","","true","[""f"",""j""]","[""j""]","3000","true","2","[80,20]","1","0","0","0","5","1","-1","3","500","500","hsla(225, 50%, 50%, 70%)","hsla(0, 50%, 50%, 70%)","[""hsla(0, 50%, 50%, 70%)"",""hsla(225, 50%, 50%, 70%)""]","10","7","circle","black","3","2","2","16.729166666666668","[9,17,17,17,17,17,16,17,17,16,16,17,17,17,17,17,17,17,17,17,17,17,17,17,17,17,16,17,17,17,17,17,17,17,17,17,17,17,16,17,17,17,17,17,17,17,17,17]","48","600","250","false","20","20","black","1","false","1","1","1200","660","response","j","no","self",""
"","","","","","html-keyboard-response","34","2589834","0.0-5.0-1.0-0.0-2.0-1.0-0.0-1.0-2.8","null","","null","<p style='font-size: 60px; color: green'>正确!</p>","","","","","","","","","","","","","","","","","","","","","","","","","","","","","","","","","","","","","","","","","","","","","","",""
"","","","","","html-keyboard-response","35","2591335","0.0-5.0-1.0-0.0-2.0-1.0-0.0-1.0-0.9","null","fixation","null","<p style='font-size: 48px; color: white'>+</p >","","","","","","","","","","","","","","","","","","","","","","","","","","","","","","","","","","","","","","","","","","","","","","",""
"","","","","","rdk","36","2593232","0.0-5.0-1.0-0.0-2.0-1.0-0.0-1.0-1.9","880","match_RDK","f","","true","[""f"",""j""]","[""f""]","3000","true","2","[80,20]","1","0","0","0","5","1","-1","3","500","500","hsla(225, 50%, 50%, 70%)","hsla(0, 50%, 50%, 70%)","[""hsla(0, 50%, 50%, 70%)"",""hsla(225, 50%, 50%, 70%)""]","10","7","circle","black","3","2","2","16.865384615384617","[13,17,17,17,17,17,17,17,17,17,17,16,16,17,17,17,17,17,17,17,16,17,17,17,17,17,17,17,17,17,16,17,17,17,17,17,17,17,18,17,17,17,17,17,17,17,17,17,17,17,17,17]","52","600","250","false","20","20","black","1","false","1","1","1200","660","response","f","yes","other",""
"","","","","","html-keyboard-response","37","2594250","0.0-5.0-1.0-0.0-2.0-1.0-0.0-1.0-2.9","null","","null","<p style='font-size: 60px; color: green'>正确!</p>","","","","","","","","","","","","","","","","","","","","","","","","","","","","","","","","","","","","","","","","","","","","","","",""
"","","","","","html-keyboard-response","38","2595768","0.0-5.0-1.0-0.0-2.0-1.0-0.0-1.0-0.10","null","fixation","null","<p style='font-size: 48px; color: white'>+</p >","","","","","","","","","","","","","","","","","","","","","","","","","","","","","","","","","","","","","","","","","","","","","","",""
"","","","","","rdk","39","2597727","0.0-5.0-1.0-0.0-2.0-1.0-0.0-1.0-1.10","942","match_RDK","f","","true","[""f"",""j""]","[""f""]","3000","true","2","[20,80]","1","0","0","0","5","1","-1","3","500","500","hsla(225, 50%, 50%, 70%)","hsla(0, 50%, 50%, 70%)","[""hsla(0, 50%, 50%, 70%)"",""hsla(225, 50%, 50%, 70%)""]","10","7","circle","black","3","2","2","16.875","[12,17,17,17,17,17,17,17,17,17,17,17,17,17,17,17,17,17,17,17,17,17,17,17,17,17,17,17,17,17,17,17,17,17,17,17,17,17,17,17,17,17,17,17,16,17,17,17,17,17,17,17,17,17,16,17]","56","600","250","false","20","20","black","1","false","1","1","1200","660","response","f","yes","self",""
"","","","","","html-keyboard-response","40","2598750","0.0-5.0-1.0-0.0-2.0-1.0-0.0-1.0-2.10","null","","null","<p style='font-size: 60px; color: green'>正确!</p>","","","","","","","","","","","","","","","","","","","","","","","","","","","","","","","","","","","","","","","","","","","","","","",""
"","","","","","html-keyboard-response","41","2600252","0.0-5.0-1.0-0.0-2.0-1.0-0.0-1.0-0.11","null","fixation","null","<p style='font-size: 48px; color: white'>+</p >","","","","","","","","","","","","","","","","","","","","","","","","","","","","","","","","","","","","","","","","","","","","","","",""
"","","","","","rdk","42","2602111","0.0-5.0-1.0-0.0-2.0-1.0-0.0-1.0-1.11","843","match_RDK","j","","true","[""f"",""j""]","[""j""]","3000","true","2","[80,20]","1","0","0","0","5","1","-1","3","500","500","hsla(225, 50%, 50%, 70%)","hsla(0, 50%, 50%, 70%)","[""hsla(225, 50%, 50%, 70%)"",""hsla(0, 50%, 50%, 70%)""]","10","7","circle","black","3","2","2","16.86","[11,17,17,17,17,16,17,17,17,17,17,17,17,17,17,17,17,17,17,17,17,17,17,17,17,17,17,17,17,17,17,17,17,17,17,17,17,17,17,17,17,17,17,17,17,17,17,17,17,17]","50","600","250","false","20","20","black","1","false","1","1","1200","660","response","j","no","other",""
"","","","","","html-keyboard-response","43","2603134","0.0-5.0-1.0-0.0-2.0-1.0-0.0-1.0-2.11","null","","null","<p style='font-size: 60px; color: green'>正确!</p>","","","","","","","","","","","","","","","","","","","","","","","","","","","","","","","","","","","","","","","","","","","","","","",""
"","","","","","html-keyboard-response","44","2604653","0.0-5.0-1.0-0.0-2.0-1.0-0.0-1.0-0.12","null","fixation","null","<p style='font-size: 48px; color: white'>+</p >","","","","","","","","","","","","","","","","","","","","","","","","","","","","","","","","","","","","","","","","","","","","","","",""
"","","","","","rdk","45","2606402","0.0-5.0-1.0-0.0-2.0-1.0-0.0-1.0-1.12","733","match_RDK","j","","true","[""f"",""j""]","[""j""]","3000","true","2","[80,20]","1","0","0","0","5","1","-1","3","500","500","hsla(225, 50%, 50%, 70%)","hsla(0, 50%, 50%, 70%)","[""hsla(0, 50%, 50%, 70%)"",""hsla(225, 50%, 50%, 70%)""]","10","7","circle","black","3","2","2","16.84090909090909","[10,17,17,17,17,17,17,17,17,17,17,17,17,17,17,17,17,16,17,17,17,17,17,17,17,17,17,17,17,17,17,17,17,17,17,17,17,17,17,17,17,17,17,18]","44","600","250","false","20","20","black","1","false","1","1","1200","660","response","j","no","self",""
"","","","","","html-keyboard-response","46","2607433","0.0-5.0-1.0-0.0-2.0-1.0-0.0-1.0-2.12","null","","null","<p style='font-size: 60px; color: green'>正确!</p>","","","","","","","","","","","","","","","","","","","","","","","","","","","","","","","","","","","","","","","","","","","","","","",""
"","","","","","html-keyboard-response","47","2608951","0.0-5.0-1.0-0.0-2.0-1.0-0.0-1.0-0.13","null","fixation","null","<p style='font-size: 48px; color: white'>+</p >","","","","","","","","","","","","","","","","","","","","","","","","","","","","","","","","","","","","","","","","","","","","","","",""
"","","","","","rdk","48","2610879","0.0-5.0-1.0-0.0-2.0-1.0-0.0-1.0-1.13","926","match_RDK","j","","true","[""f"",""j""]","[""j""]","3000","true","2","[80,20]","1","0","0","0","5","1","-1","3","500","500","hsla(225, 50%, 50%, 70%)","hsla(0, 50%, 50%, 70%)","[""hsla(225, 50%, 50%, 70%)"",""hsla(0, 50%, 50%, 70%)""]","10","7","circle","black","3","2","2","16.78181818181818","[10,17,17,17,17,17,17,16,17,17,17,17,17,17,16,16,17,17,17,17,17,17,17,17,17,17,17,17,16,17,17,17,17,17,17,17,17,17,17,17,17,17,17,17,17,17,17,17,17,16,17,17,17,17,17]","55","600","250","false","20","20","black","1","false","1","1","1200","660","response","j","no","other",""
"","","","","","html-keyboard-response","49","2611900","0.0-5.0-1.0-0.0-2.0-1.0-0.0-1.0-2.13","null","","null","<p style='font-size: 60px; color: green'>正确!</p>","","","","","","","","","","","","","","","","","","","","","","","","","","","","","","","","","","","","","","","","","","","","","","",""
"","","","","","html-keyboard-response","50","2613418","0.0-5.0-1.0-0.0-2.0-1.0-0.0-1.0-0.14","null","fixation","null","<p style='font-size: 48px; color: white'>+</p >","","","","","","","","","","","","","","","","","","","","","","","","","","","","","","","","","","","","","","","","","","","","","","",""
"","","","","","rdk","51","2615311","0.0-5.0-1.0-0.0-2.0-1.0-0.0-1.0-1.14","891","match_RDK","f","","true","[""f"",""j""]","[""f""]","3000","true","2","[80,20]","1","0","0","0","5","1","-1","3","500","500","hsla(225, 50%, 50%, 70%)","hsla(0, 50%, 50%, 70%)","[""hsla(0, 50%, 50%, 70%)"",""hsla(225, 50%, 50%, 70%)""]","10","7","circle","black","3","2","2","16.79245283018868","[10,17,17,17,17,17,16,17,17,17,17,17,17,17,17,16,17,17,17,17,17,17,17,16,17,17,17,17,17,17,17,17,17,17,17,17,17,17,17,17,16,17,17,17,17,17,17,17,17,17,17,17,17]","53","600","250","false","20","20","black","1","false","1","1","1200","660","response","f","yes","other",""
"","","","","","html-keyboard-response","52","2616333","0.0-5.0-1.0-0.0-2.0-1.0-0.0-1.0-2.14","null","","null","<p style='font-size: 60px; color: green'>正确!</p>","","","","","","","","","","","","","","","","","","","","","","","","","","","","","","","","","","","","","","","","","","","","","","",""
"","","","","","html-keyboard-response","53","2617850","0.0-5.0-1.0-0.0-2.0-1.0-0.0-1.0-0.15","null","fixation","null","<p style='font-size: 48px; color: white'>+</p >","","","","","","","","","","","","","","","","","","","","","","","","","","","","","","","","","","","","","","","","","","","","","","",""
"","","","","","rdk","54","2619601","0.0-5.0-1.0-0.0-2.0-1.0-0.0-1.0-1.15","747","match_RDK","f","","true","[""f"",""j""]","[""f""]","3000","true","2","[20,80]","1","0","0","0","5","1","-1","3","500","500","hsla(225, 50%, 50%, 70%)","hsla(0, 50%, 50%, 70%)","[""hsla(0, 50%, 50%, 70%)"",""hsla(225, 50%, 50%, 70%)""]","10","7","circle","black","3","2","2","16.733333333333334","[10,16,17,17,17,17,17,17,17,17,17,17,17,16,17,17,17,17,17,17,17,17,17,17,17,17,16,17,17,17,16,17,17,17,16,17,17,16,17,17,17,17,17,17,18]","45","600","250","false","20","20","black","1","false","1","1","1200","660","response","f","yes","self",""
"","","","","","html-keyboard-response","55","2620617","0.0-5.0-1.0-0.0-2.0-1.0-0.0-1.0-2.15","null","","null","<p style='font-size: 60px; color: green'>正确!</p>","","","","","","","","","","","","","","","","","","","","","","","","","","","","","","","","","","","","","","","","","","","","","","",""
"","","","","","html-keyboard-response","56","2622134","0.0-5.0-1.0-0.0-2.0-1.0-0.0-1.0-0.16","null","fixation","null","<p style='font-size: 48px; color: white'>+</p >","","","","","","","","","","","","","","","","","","","","","","","","","","","","","","","","","","","","","","","","","","","","","","",""
"","","","","","rdk","57","2623856","0.0-5.0-1.0-0.0-2.0-1.0-0.0-1.0-1.16","704","match_RDK","f","","true","[""f"",""j""]","[""f""]","3000","true","2","[80,20]","1","0","0","0","5","1","-1","3","500","500","hsla(225, 50%, 50%, 70%)","hsla(0, 50%, 50%, 70%)","[""hsla(0, 50%, 50%, 70%)"",""hsla(225, 50%, 50%, 70%)""]","10","7","circle","black","3","2","2","16.80952380952381","[11,17,17,17,17,17,17,17,17,17,17,17,16,17,17,17,17,17,17,17,17,17,17,17,17,17,17,17,17,17,17,17,17,17,17,17,16,17,17,17,17,17]","42","600","250","false","20","20","black","1","false","1","1","1200","660","response","f","yes","other",""
"","","","","","html-keyboard-response","58","2624869","0.0-5.0-1.0-0.0-2.0-1.0-0.0-1.0-2.16","null","","null","<p style='font-size: 60px; color: green'>正确!</p>","","","","","","","","","","","","","","","","","","","","","","","","","","","","","","","","","","","","","","","","","","","","","","",""
"","","","","","html-keyboard-response","59","2626385","0.0-5.0-1.0-0.0-2.0-1.0-0.0-1.0-0.17","null","fixation","null","<p style='font-size: 48px; color: white'>+</p >","","","","","","","","","","","","","","","","","","","","","","","","","","","","","","","","","","","","","","","","","","","","","","",""
"","","","","","rdk","60","2628143","0.0-5.0-1.0-0.0-2.0-1.0-0.0-1.0-1.17","741","match_RDK","f","","true","[""f"",""j""]","[""f""]","3000","true","2","[20,80]","1","0","0","0","5","1","-1","3","500","500","hsla(225, 50%, 50%, 70%)","hsla(0, 50%, 50%, 70%)","[""hsla(0, 50%, 50%, 70%)"",""hsla(225, 50%, 50%, 70%)""]","10","7","circle","black","3","2","2","16.84090909090909","[11,17,17,17,17,17,17,17,17,17,17,17,17,17,17,17,17,17,17,17,17,17,17,17,17,17,17,17,17,17,17,17,17,17,17,17,17,17,17,17,17,16,17,17]","44","600","250","false","20","20","black","1","false","1","1","1200","660","response","f","yes","self",""
"","","","","","html-keyboard-response","61","2629167","0.0-5.0-1.0-0.0-2.0-1.0-0.0-1.0-2.17","null","","null","<p style='font-size: 60px; color: green'>正确!</p>","","","","","","","","","","","","","","","","","","","","","","","","","","","","","","","","","","","","","","","","","","","","","","",""
"","","","","","html-keyboard-response","62","2630685","0.0-5.0-1.0-0.0-2.0-1.0-0.0-1.0-0.18","null","fixation","null","<p style='font-size: 48px; color: white'>+</p >","","","","","","","","","","","","","","","","","","","","","","","","","","","","","","","","","","","","","","","","","","","","","","",""
"","","","","","rdk","63","2632639","0.0-5.0-1.0-0.0-2.0-1.0-0.0-1.0-1.18","937","match_RDK","j","","true","[""f"",""j""]","[""j""]","3000","true","2","[80,20]","1","0","0","0","5","1","-1","3","500","500","hsla(225, 50%, 50%, 70%)","hsla(0, 50%, 50%, 70%)","[""hsla(225, 50%, 50%, 70%)"",""hsla(0, 50%, 50%, 70%)""]","10","7","circle","black","3","2","2","16.857142857142858","[11,17,17,17,17,17,17,17,17,17,17,17,17,17,17,17,17,17,17,17,17,17,17,17,17,17,17,17,17,17,17,16,17,17,17,16,16,17,17,17,17,17,17,18,17,17,17,17,17,17,17,17,17,17,17,17]","56","600","250","false","20","20","black","1","false","1","1","1200","660","response","j","no","other",""
"","","","","","html-keyboard-response","64","2633667","0.0-5.0-1.0-0.0-2.0-1.0-0.0-1.0-2.18","null","","null","<p style='font-size: 60px; color: green'>正确!</p>","","","","","","","","","","","","","","","","","","","","","","","","","","","","","","","","","","","","","","","","","","","","","","",""
"","","","","","html-keyboard-response","65","2635184","0.0-5.0-1.0-0.0-2.0-1.0-0.0-1.0-0.19","null","fixation","null","<p style='font-size: 48px; color: white'>+</p >","","","","","","","","","","","","","","","","","","","","","","","","","","","","","","","","","","","","","","","","","","","","","","",""
"","","","","","rdk","66","2637119","0.0-5.0-1.0-0.0-2.0-1.0-0.0-1.0-1.19","918","match_RDK","j","","true","[""f"",""j""]","[""j""]","3000","true","2","[80,20]","1","0","0","0","5","1","-1","3","500","500","hsla(225, 50%, 50%, 70%)","hsla(0, 50%, 50%, 70%)","[""hsla(0, 50%, 50%, 70%)"",""hsla(225, 50%, 50%, 70%)""]","10","7","circle","black","3","2","2","16.87272727272727","[12,17,17,17,17,17,17,17,17,17,17,17,17,17,17,17,17,17,17,17,17,17,17,17,17,17,17,17,17,17,17,16,17,17,17,17,17,17,17,17,17,17,17,17,17,17,17,16,17,17,17,17,17,17,17]","55","600","250","false","20","20","black","1","false","1","1","1200","660","response","j","no","self",""
"","","","","","html-keyboard-response","67","2638150","0.0-5.0-1.0-0.0-2.0-1.0-0.0-1.0-2.19","null","","null","<p style='font-size: 60px; color: green'>正确!</p>","","","","","","","","","","","","","","","","","","","","","","","","","","","","","","","","","","","","","","","","","","","","","","",""
"","","","","","html-keyboard-response","68","2639654","0.0-5.0-1.0-0.0-2.0-1.0-0.0-1.0-0.20","null","fixation","null","<p style='font-size: 48px; color: white'>+</p >","","","","","","","","","","","","","","","","","","","","","","","","","","","","","","","","","","","","","","","","","","","","","","",""
"","","","","","rdk","69","2641631","0.0-5.0-1.0-0.0-2.0-1.0-0.0-1.0-1.20","963","match_RDK","f","","true","[""f"",""j""]","[""f""]","3000","true","2","[80,20]","1","0","0","0","5","1","-1","3","500","500","hsla(225, 50%, 50%, 70%)","hsla(0, 50%, 50%, 70%)","[""hsla(0, 50%, 50%, 70%)"",""hsla(225, 50%, 50%, 70%)""]","10","7","circle","black","3","2","2","16.771929824561404","[13,16,17,17,17,17,17,16,17,16,17,17,17,17,17,17,17,17,17,17,17,17,17,17,17,17,17,17,17,16,17,16,17,17,17,16,17,16,17,17,17,17,17,17,17,17,16,17,17,17,17,17,17,16,17,17,17]","57","600","250","false","20","20","black","1","false","1","1","1200","660","response","f","yes","other",""
"","","","","","html-keyboard-response","70","2642650","0.0-5.0-1.0-0.0-2.0-1.0-0.0-1.0-2.20","null","","null","<p style='font-size: 60px; color: green'>正确!</p>","","","","","","","","","","","","","","","","","","","","","","","","","","","","","","","","","","","","","","","","","","","","","","",""
"","","","","","html-keyboard-response","71","2644168","0.0-5.0-1.0-0.0-2.0-1.0-0.0-1.0-0.21","null","fixation","null","<p style='font-size: 48px; color: white'>+</p >","","","","","","","","","","","","","","","","","","","","","","","","","","","","","","","","","","","","","","","","","","","","","","",""
"","","","","","rdk","72","2646207","0.0-5.0-1.0-0.0-2.0-1.0-0.0-1.0-1.21","1037","match_RDK","j","","true","[""f"",""j""]","[""j""]","3000","true","2","[80,20]","1","0","0","0","5","1","-1","3","500","500","hsla(225, 50%, 50%, 70%)","hsla(0, 50%, 50%, 70%)","[""hsla(225, 50%, 50%, 70%)"",""hsla(0, 50%, 50%, 70%)""]","10","7","circle","black","3","2","2","16.85483870967742","[10,17,17,17,17,17,17,17,17,17,17,17,17,17,17,17,16,17,17,17,17,17,17,17,17,17,17,17,17,17,17,17,17,17,17,17,17,17,17,17,17,17,17,17,17,17,17,17,17,17,17,17,17,17,17,17,17,17,16,17,17,17]","62","600","250","false","20","20","black","1","false","1","1","1200","660","response","j","no","other",""
"","","","","","html-keyboard-response","73","2647218","0.0-5.0-1.0-0.0-2.0-1.0-0.0-1.0-2.21","null","","null","<p style='font-size: 60px; color: green'>正确!</p>","","","","","","","","","","","","","","","","","","","","","","","","","","","","","","","","","","","","","","","","","","","","","","",""
"","","","","","html-keyboard-response","74","2648735","0.0-5.0-1.0-0.0-2.0-1.0-0.0-1.0-0.22","null","fixation","null","<p style='font-size: 48px; color: white'>+</p >","","","","","","","","","","","","","","","","","","","","","","","","","","","","","","","","","","","","","","","","","","","","","","",""
"","","","","","rdk","75","2650543","0.0-5.0-1.0-0.0-2.0-1.0-0.0-1.0-1.22","792","match_RDK","j","","false","[""f"",""j""]","[""f""]","3000","true","2","[20,80]","1","0","0","0","5","1","-1","3","500","500","hsla(225, 50%, 50%, 70%)","hsla(0, 50%, 50%, 70%)","[""hsla(0, 50%, 50%, 70%)"",""hsla(225, 50%, 50%, 70%)""]","10","7","circle","black","3","2","2","16.93617021276596","[14,17,17,17,17,17,17,17,17,17,17,17,17,17,17,17,17,17,17,17,17,17,17,17,17,17,17,17,17,17,17,17,17,17,17,17,17,17,17,17,17,17,17,17,17,17,17]","47","600","250","false","20","20","black","1","false","1","1","1200","660","response","f","yes","self",""
"","","","","","html-keyboard-response","76","2651567","0.0-5.0-1.0-0.0-2.0-1.0-0.0-1.0-2.22","null","","null","<p style='font-size: 60px; color: red'>错误!</p>","","","","","","","","","","","","","","","","","","","","","","","","","","","","","","","","","","","","","","","","","","","","","","",""
"","","","","","html-keyboard-response","77","2653084","0.0-5.0-1.0-0.0-2.0-1.0-0.0-1.0-0.23","null","fixation","null","<p style='font-size: 48px; color: white'>+</p >","","","","","","","","","","","","","","","","","","","","","","","","","","","","","","","","","","","","","","","","","","","","","","",""
"","","","","","rdk","78","2655136","0.0-5.0-1.0-0.0-2.0-1.0-0.0-1.0-1.23","1049","match_RDK","j","","true","[""f"",""j""]","[""j""]","3000","true","2","[80,20]","1","0","0","0","5","1","-1","3","500","500","hsla(225, 50%, 50%, 70%)","hsla(0, 50%, 50%, 70%)","[""hsla(0, 50%, 50%, 70%)"",""hsla(225, 50%, 50%, 70%)""]","10","7","circle","black","3","2","2","16.761904761904763","[10,16,16,17,17,17,16,18,16,17,17,17,17,17,17,17,17,17,17,17,17,17,16,17,17,17,17,17,17,17,17,17,17,17,17,16,16,17,17,17,17,17,16,17,17,17,17,17,17,17,17,17,17,17,17,17,17,17,17,17,17,17,16]","63","600","250","false","20","20","black","1","false","1","1","1200","660","response","j","no","self",""
"","","","","","html-keyboard-response","79","2656151","0.0-5.0-1.0-0.0-2.0-1.0-0.0-1.0-2.23","null","","null","<p style='font-size: 60px; color: green'>正确!</p>","","","","","","","","","","","","","","","","","","","","","","","","","","","","","","","","","","","","","","","","","","","","","","",""
"","","","","","html-keyboard-response","80","2658959","0.0-5.0-1.0-0.0-2.0-1.0-0.0-3.0-0.0","1791","instruction_practiceEnd"," ","
    <div style=""text-align: center; color: white; padding: 30px; font-size: 30px"">
      <p>恭喜您完成练习，请按空格键进入正式任务。</p >
      <p> 正式任务仅在 每组 测试结束后提供反馈</p>
    </div>
    ","","","","","","","","","","","","","","","","","","","","","","","","","","","","","","","","","","","","","","","","","","","","","","",""
"","","","","","html-keyboard-response","81","2660991","0.0-5.0-1.0-0.0-3.0-1.0-0.0-0.0","1024","instruction_match_formal"," ","
    <div style=""text-align: center; color: white; padding: 35px; font-size: 35px"">
      <p>请按下空格键开始【正式任务】</p >
    </div>
    ","","","","","","","","","","","","","","","","","","","","","","","","","","","","","","","","","","","","","","","","","","","","","","",""
"","","","","","html-keyboard-response","82","2662502","0.0-5.0-1.0-0.0-3.0-1.0-0.0-1.0-0.0","null","fixation","null","<p style='font-size: 48px; color: white'>+</p >","","","","","","","","","","","","","","","","","","","","","","","","","","","","","","","","","","","","","","","","","","","","","","",""
"","","","","","rdk","83","2664239","0.0-5.0-1.0-0.0-3.0-1.0-0.0-1.0-1.0","721","match_RDK","j","","true","[""f"",""j""]","[""j""]","3000","true","2","[80,20]","1","0","0","0","5","1","-1","3","500","500","hsla(225, 50%, 50%, 70%)","hsla(0, 50%, 50%, 70%)","[""hsla(0, 50%, 50%, 70%)"",""hsla(225, 50%, 50%, 70%)""]","10","7","circle","black","3","2","2","16.837209302325583","[12,17,17,17,17,17,17,17,17,17,17,17,16,17,17,17,17,17,17,17,17,17,16,17,17,17,17,17,17,17,17,17,17,17,17,17,17,17,17,17,17,17,17]","43","600","250","false","20","20","black","1","false","1","1","1200","660","response","j","no","self",""
"","","","","","html-keyboard-response","84","2665267","0.0-5.0-1.0-0.0-3.0-1.0-0.0-1.0-0.1","null","fixation","null","<p style='font-size: 48px; color: white'>+</p >","","","","","","","","","","","","","","","","","","","","","","","","","","","","","","","","","","","","","","","","","","","","","","",""
"","","","","","rdk","85","2667295","0.0-5.0-1.0-0.0-3.0-1.0-0.0-1.0-1.1","1025","match_RDK","j","","false","[""f"",""j""]","[""f""]","3000","true","2","[80,20]","1","0","0","0","5","1","-1","3","500","500","hsla(225, 50%, 50%, 70%)","hsla(0, 50%, 50%, 70%)","[""hsla(0, 50%, 50%, 70%)"",""hsla(225, 50%, 50%, 70%)""]","10","7","circle","black","3","2","2","16.78688524590164","[10,17,17,17,17,17,17,17,17,16,17,17,17,17,17,17,17,17,16,17,17,16,17,17,17,17,17,17,17,17,17,17,17,16,17,17,17,17,17,17,17,17,17,17,17,17,17,17,17,16,17,17,17,17,17,17,17,17,16,17,17]","61","600","250","false","20","20","black","1","false","1","1","1200","660","response","f","yes","other",""
"","","","","","html-keyboard-response","86","2668302","0.0-5.0-1.0-0.0-3.0-1.0-0.0-1.0-0.2","null","fixation","null","<p style='font-size: 48px; color: white'>+</p >","","","","","","","","","","","","","","","","","","","","","","","","","","","","","","","","","","","","","","","","","","","","","","",""
"","","","","","rdk","87","2670032","0.0-5.0-1.0-0.0-3.0-1.0-0.0-1.0-1.2","713","match_RDK","f","","true","[""f"",""j""]","[""f""]","3000","true","2","[20,80]","1","0","0","0","5","1","-1","3","500","500","hsla(225, 50%, 50%, 70%)","hsla(0, 50%, 50%, 70%)","[""hsla(0, 50%, 50%, 70%)"",""hsla(225, 50%, 50%, 70%)""]","10","7","circle","black","3","2","2","16.857142857142858","[11,17,17,17,17,17,17,17,17,17,17,17,17,17,17,17,17,17,17,17,17,17,17,17,17,17,17,17,17,17,17,17,17,17,17,17,17,17,17,17,17,17]","42","600","250","false","20","20","black","1","false","1","1","1200","660","response","f","yes","self",""
"","","","","","html-keyboard-response","88","2671051","0.0-5.0-1.0-0.0-3.0-1.0-0.0-1.0-0.3","null","fixation","null","<p style='font-size: 48px; color: white'>+</p >","","","","","","","","","","","","","","","","","","","","","","","","","","","","","","","","","","","","","","","","","","","","","","",""
"","","","","","rdk","89","2672910","0.0-5.0-1.0-0.0-3.0-1.0-0.0-1.0-1.3","857","match_RDK","j","","true","[""f"",""j""]","[""j""]","3000","true","2","[80,20]","1","0","0","0","5","1","-1","3","500","500","hsla(225, 50%, 50%, 70%)","hsla(0, 50%, 50%, 70%)","[""hsla(225, 50%, 50%, 70%)"",""hsla(0, 50%, 50%, 70%)""]","10","7","circle","black","3","2","2","16.764705882352942","[10,17,17,17,17,17,17,17,17,16,17,17,17,16,16,17,17,17,17,17,17,17,17,17,17,17,17,17,17,17,17,17,17,17,17,17,17,17,17,16,17,17,17,17,17,17,17,16,17,17,17]","51","600","250","false","20","20","black","1","false","1","1","1200","660","response","j","no","other",""
"","","","","","html-keyboard-response","90","2673934","0.0-5.0-1.0-0.0-3.0-1.0-0.0-1.0-0.4","null","fixation","null","<p style='font-size: 48px; color: white'>+</p >","","","","","","","","","","","","","","","","","","","","","","","","","","","","","","","","","","","","","","","","","","","","","","",""
"","","","","","rdk","91","2676127","0.0-5.0-1.0-0.0-3.0-1.0-0.0-1.0-1.4","1175","match_RDK","f","","true","[""f"",""j""]","[""f""]","3000","true","2","[80,20]","1","0","0","0","5","1","-1","3","500","500","hsla(225, 50%, 50%, 70%)","hsla(0, 50%, 50%, 70%)","[""hsla(0, 50%, 50%, 70%)"",""hsla(225, 50%, 50%, 70%)""]","10","7","circle","black","3","2","2","16.87142857142857","[11,17,17,17,17,17,17,17,17,17,17,17,17,17,17,17,17,17,17,17,17,17,17,16,17,17,17,17,17,16,17,17,17,17,17,17,17,17,17,17,17,17,17,17,17,17,17,17,17,17,17,17,17,17,17,16,17,17,17,17,17,17,17,17,17,17,17,17,17,17]","70","600","250","false","20","20","black","1","false","1","1","1200","660","response","f","yes","other",""
"","","","","","html-keyboard-response","92","2677151","0.0-5.0-1.0-0.0-3.0-1.0-0.0-1.0-0.5","null","fixation","null","<p style='font-size: 48px; color: white'>+</p >","","","","","","","","","","","","","","","","","","","","","","","","","","","","","","","","","","","","","","","","","","","","","","",""
"","","","","","rdk","93","2678895","0.0-5.0-1.0-0.0-3.0-1.0-0.0-1.0-1.5","727","match_RDK","j","","true","[""f"",""j""]","[""j""]","3000","true","2","[80,20]","1","0","0","0","5","1","-1","3","500","500","hsla(225, 50%, 50%, 70%)","hsla(0, 50%, 50%, 70%)","[""hsla(0, 50%, 50%, 70%)"",""hsla(225, 50%, 50%, 70%)""]","10","7","circle","black","3","2","2","16.837209302325583","[12,17,17,17,17,17,17,17,17,17,17,17,17,17,17,17,17,17,17,17,17,17,17,17,17,16,17,16,17,17,17,17,17,17,17,17,17,17,17,17,17,17,17]","43","600","250","false","20","20","black","1","false","1","1","1200","660","response","j","no","self",""
"","","","","","html-keyboard-response","94","2679917","0.0-5.0-1.0-0.0-3.0-1.0-0.0-1.0-0.6","null","fixation","null","<p style='font-size: 48px; color: white'>+</p >","","","","","","","","","","","","","","","","","","","","","","","","","","","","","","","","","","","","","","","","","","","","","","",""
"","","","","","rdk","95","2681775","0.0-5.0-1.0-0.0-3.0-1.0-0.0-1.0-1.6","856","match_RDK","f","","true","[""f"",""j""]","[""f""]","3000","true","2","[20,80]","1","0","0","0","5","1","-1","3","500","500","hsla(225, 50%, 50%, 70%)","hsla(0, 50%, 50%, 70%)","[""hsla(0, 50%, 50%, 70%)"",""hsla(225, 50%, 50%, 70%)""]","10","7","circle","black","3","2","2","16.88235294117647","[12,17,17,17,17,17,17,17,17,17,17,17,17,17,17,17,17,17,17,17,17,16,17,17,17,17,17,17,17,17,17,17,17,17,17,17,17,17,17,17,17,17,17,17,17,17,17,17,17,17,17]","51","600","250","false","20","20","black","1","false","1","1","1200","660","response","f","yes","self",""
"","","","","","html-keyboard-response","96","2682785","0.0-5.0-1.0-0.0-3.0-1.0-0.0-1.0-0.7","null","fixation","null","<p style='font-size: 48px; color: white'>+</p >","","","","","","","","","","","","","","","","","","","","","","","","","","","","","","","","","","","","","","","","","","","","","","",""
"","","","","","rdk","97","2684654","0.0-5.0-1.0-0.0-3.0-1.0-0.0-1.0-1.7","852","match_RDK","j","","true","[""f"",""j""]","[""j""]","3000","true","2","[80,20]","1","0","0","0","5","1","-1","3","500","500","hsla(225, 50%, 50%, 70%)","hsla(0, 50%, 50%, 70%)","[""hsla(225, 50%, 50%, 70%)"",""hsla(0, 50%, 50%, 70%)""]","10","7","circle","black","3","2","2","16.764705882352942","[10,17,17,16,17,17,17,17,17,16,17,17,17,17,17,18,16,17,17,17,17,17,17,17,17,17,17,17,17,17,17,17,17,17,17,17,17,17,17,17,17,16,17,17,16,17,17,17,17,16,17]","51","600","250","false","20","20","black","1","false","1","1","1200","660","response","j","no","other",""
"","","","","","html-keyboard-response","98","2685667","0.0-5.0-1.0-0.0-3.0-1.0-0.0-1.0-0.8","null","fixation","null","<p style='font-size: 48px; color: white'>+</p >","","","","","","","","","","","","","","","","","","","","","","","","","","","","","","","","","","","","","","","","","","","","","","",""
"","","","","","rdk","99","2687679","0.0-5.0-1.0-0.0-3.0-1.0-0.0-1.0-1.8","1009","match_RDK","f","","true","[""f"",""j""]","[""f""]","3000","true","2","[80,20]","1","0","0","0","5","1","-1","3","500","500","hsla(225, 50%, 50%, 70%)","hsla(0, 50%, 50%, 70%)","[""hsla(0, 50%, 50%, 70%)"",""hsla(225, 50%, 50%, 70%)""]","10","7","circle","black","3","2","2","16.783333333333335","[10,17,17,17,17,17,17,17,17,17,17,17,17,16,17,17,16,17,17,16,17,17,17,17,17,17,17,17,17,17,17,16,17,17,17,17,16,17,17,17,17,17,17,17,17,17,17,17,16,18,17,17,16,17,17,17,17,17,17,17]","60","600","250","false","20","20","black","1","false","1","1","1200","660","response","f","yes","other",""
"","","","","","html-keyboard-response","100","2688700","0.0-5.0-1.0-0.0-3.0-1.0-0.0-1.0-0.9","null","fixation","null","<p style='font-size: 48px; color: white'>+</p >","","","","","","","","","","","","","","","","","","","","","","","","","","","","","","","","","","","","","","","","","","","","","","",""
"","","","","","rdk","101","2690479","0.0-5.0-1.0-0.0-3.0-1.0-0.0-1.0-1.9","776","match_RDK","j","","true","[""f"",""j""]","[""j""]","3000","true","2","[80,20]","1","0","0","0","5","1","-1","3","500","500","hsla(225, 50%, 50%, 70%)","hsla(0, 50%, 50%, 70%)","[""hsla(0, 50%, 50%, 70%)"",""hsla(225, 50%, 50%, 70%)""]","10","7","circle","black","3","2","2","16.891304347826086","[12,17,17,17,17,17,17,17,17,17,17,17,17,17,17,17,17,17,17,17,17,17,17,17,17,17,17,17,17,17,17,17,17,17,17,17,17,17,17,17,17,17,17,17,17,17]","46","600","250","false","20","20","black","1","false","1","1","1200","660","response","j","no","self",""
"","","","","","html-keyboard-response","102","2691500","0.0-5.0-1.0-0.0-3.0-1.0-0.0-1.0-0.10","null","fixation","null","<p style='font-size: 48px; color: white'>+</p >","","","","","","","","","","","","","","","","","","","","","","","","","","","","","","","","","","","","","","","","","","","","","","",""
"","","","","","rdk","103","2693375","0.0-5.0-1.0-0.0-3.0-1.0-0.0-1.0-1.10","873","match_RDK","j","","true","[""f"",""j""]","[""j""]","3000","true","2","[80,20]","1","0","0","0","5","1","-1","3","500","500","hsla(225, 50%, 50%, 70%)","hsla(0, 50%, 50%, 70%)","[""hsla(225, 50%, 50%, 70%)"",""hsla(0, 50%, 50%, 70%)""]","10","7","circle","black","3","2","2","16.807692307692307","[12,17,17,17,17,17,17,17,17,17,16,16,17,17,17,17,17,17,17,16,17,17,17,17,16,16,17,17,17,17,17,17,17,17,17,17,17,17,17,17,17,17,17,17,17,17,17,17,17,17,17,17]","52","600","250","false","20","20","black","1","false","1","1","1200","660","response","j","no","other",""
"","","","","","html-keyboard-response","104","2694401","0.0-5.0-1.0-0.0-3.0-1.0-0.0-1.0-0.11","null","fixation","null","<p style='font-size: 48px; color: white'>+</p >","","","","","","","","","","","","","","","","","","","","","","","","","","","","","","","","","","","","","","","","","","","","","","",""
"","","","","","rdk","105","2696191","0.0-5.0-1.0-0.0-3.0-1.0-0.0-1.0-1.11","788","match_RDK","f","","true","[""f"",""j""]","[""f""]","3000","true","2","[20,80]","1","0","0","0","5","1","-1","3","500","500","hsla(225, 50%, 50%, 70%)","hsla(0, 50%, 50%, 70%)","[""hsla(0, 50%, 50%, 70%)"",""hsla(225, 50%, 50%, 70%)""]","10","7","circle","black","3","2","2","16.74468085106383","[10,17,16,17,17,17,17,17,17,17,17,17,16,17,17,17,17,17,17,17,17,17,17,17,16,17,17,17,17,17,17,17,16,17,16,17,17,17,17,17,17,17,17,17,17,17,17]","47","600","250","false","20","20","black","1","false","1","1","1200","660","response","f","yes","self",""
"","","","","","html-keyboard-response","106","2697217","0.0-5.0-1.0-0.0-3.0-1.0-0.0-1.0-0.12","null","fixation","null","<p style='font-size: 48px; color: white'>+</p >","","","","","","","","","","","","","","","","","","","","","","","","","","","","","","","","","","","","","","","","","","","","","","",""
"","","","","","rdk","107","2699263","0.0-5.0-1.0-0.0-3.0-1.0-0.0-1.0-1.12","1028","match_RDK","f","","true","[""f"",""j""]","[""f""]","3000","true","2","[20,80]","1","0","0","0","5","1","-1","3","500","500","hsla(225, 50%, 50%, 70%)","hsla(0, 50%, 50%, 70%)","[""hsla(0, 50%, 50%, 70%)"",""hsla(225, 50%, 50%, 70%)""]","10","7","circle","black","3","2","2","16.78688524590164","[12,17,17,17,17,17,17,16,17,17,17,17,17,17,17,16,17,17,17,17,17,17,17,17,17,17,17,17,17,17,16,17,17,17,17,17,17,16,17,17,17,17,17,17,17,17,16,17,17,17,17,17,17,17,16,17,16,17,17,17,16]","61","600","250","false","20","20","black","1","false","1","1","1200","660","response","f","yes","self",""
"","","","","","html-keyboard-response","108","2700284","0.0-5.0-1.0-0.0-3.0-1.0-0.0-1.0-0.13","null","fixation","null","<p style='font-size: 48px; color: white'>+</p >","","","","","","","","","","","","","","","","","","","","","","","","","","","","","","","","","","","","","","","","","","","","","","",""
"","","","","","rdk","109","2702079","0.0-5.0-1.0-0.0-3.0-1.0-0.0-1.0-1.13","777","match_RDK","j","","true","[""f"",""j""]","[""j""]","3000","true","2","[80,20]","1","0","0","0","5","1","-1","3","500","500","hsla(225, 50%, 50%, 70%)","hsla(0, 50%, 50%, 70%)","[""hsla(0, 50%, 50%, 70%)"",""hsla(225, 50%, 50%, 70%)""]","10","7","circle","black","3","2","2","16.82608695652174","[11,17,17,17,17,17,17,16,17,17,17,17,17,17,17,17,17,17,17,17,17,17,17,17,17,17,17,17,17,17,17,17,17,17,17,17,17,17,17,17,17,16,17,17,17,17]","46","600","250","false","20","20","black","1","false","1","1","1200","660","response","j","no","self",""
"","","","","","html-keyboard-response","110","2703101","0.0-5.0-1.0-0.0-3.0-1.0-0.0-1.0-0.14","null","fixation","null","<p style='font-size: 48px; color: white'>+</p >","","","","","","","","","","","","","","","","","","","","","","","","","","","","","","","","","","","","","","","","","","","","","","",""
"","","","","","rdk","111","2705072","0.0-5.0-1.0-0.0-3.0-1.0-0.0-1.0-1.14","968","match_RDK","f","","false","[""f"",""j""]","[""j""]","3000","true","2","[80,20]","1","0","0","0","5","1","-1","3","500","500","hsla(225, 50%, 50%, 70%)","hsla(0, 50%, 50%, 70%)","[""hsla(225, 50%, 50%, 70%)"",""hsla(0, 50%, 50%, 70%)""]","10","7","circle","black","3","2","2","16.862068965517242","[11,17,17,17,17,17,17,17,17,16,17,17,17,17,17,17,17,17,17,17,17,17,17,17,17,17,17,17,17,17,17,17,17,17,17,17,17,17,17,17,17,17,17,17,17,17,17,17,17,17,17,17,17,17,16,17,17,17]","58","600","250","false","20","20","black","1","false","1","1","1200","660","response","j","no","other",""
"","","","","","html-keyboard-response","112","2706101","0.0-5.0-1.0-0.0-3.0-1.0-0.0-1.0-0.15","null","fixation","null","<p style='font-size: 48px; color: white'>+</p >","","","","","","","","","","","","","","","","","","","","","","","","","","","","","","","","","","","","","","","","","","","","","","",""
"","","","","","rdk","113","2708002","0.0-5.0-1.0-0.0-3.0-1.0-0.0-1.0-1.15","883","match_RDK","j","","false","[""f"",""j""]","[""f""]","3000","true","2","[80,20]","1","0","0","0","5","1","-1","3","500","500","hsla(225, 50%, 50%, 70%)","hsla(0, 50%, 50%, 70%)","[""hsla(0, 50%, 50%, 70%)"",""hsla(225, 50%, 50%, 70%)""]","10","7","circle","black","3","2","2","16.735849056603772","[11,19,16,17,17,17,16,17,16,17,16,17,17,17,17,17,17,17,17,16,17,17,17,17,17,17,17,17,17,17,17,17,17,17,17,17,17,16,16,17,16,17,17,17,17,17,16,16,17,17,17,16,18]","53","600","250","false","20","20","black","1","false","1","1","1200","660","response","f","yes","other",""
"","","","","","html-keyboard-response","114","2709018","0.0-5.0-1.0-0.0-3.0-1.0-0.0-1.0-0.16","null","fixation","null","<p style='font-size: 48px; color: white'>+</p >","","","","","","","","","","","","","","","","","","","","","","","","","","","","","","","","","","","","","","","","","","","","","","",""
"","","","","","rdk","115","2710944","0.0-5.0-1.0-0.0-3.0-1.0-0.0-1.0-1.16","923","match_RDK","j","","true","[""f"",""j""]","[""j""]","3000","true","2","[80,20]","1","0","0","0","5","1","-1","3","500","500","hsla(225, 50%, 50%, 70%)","hsla(0, 50%, 50%, 70%)","[""hsla(0, 50%, 50%, 70%)"",""hsla(225, 50%, 50%, 70%)""]","10","7","circle","black","3","2","2","16.78181818181818","[10,17,17,17,17,17,17,17,17,17,17,17,17,17,17,17,17,17,17,17,17,17,16,17,17,17,17,17,17,17,17,16,17,17,17,17,17,17,17,17,17,17,17,17,17,17,16,17,17,17,16,17,17,16,17]","55","600","250","false","20","20","black","1","false","1","1","1200","660","response","j","no","self",""
"","","","","","html-keyboard-response","116","2711968","0.0-5.0-1.0-0.0-3.0-1.0-0.0-1.0-0.17","null","fixation","null","<p style='font-size: 48px; color: white'>+</p >","","","","","","","","","","","","","","","","","","","","","","","","","","","","","","","","","","","","","","","","","","","","","","",""
"","","","","","rdk","117","2713664","0.0-5.0-1.0-0.0-3.0-1.0-0.0-1.0-1.17","694","match_RDK","f","","true","[""f"",""j""]","[""f""]","3000","true","2","[20,80]","1","0","0","0","5","1","-1","3","500","500","hsla(225, 50%, 50%, 70%)","hsla(0, 50%, 50%, 70%)","[""hsla(0, 50%, 50%, 70%)"",""hsla(225, 50%, 50%, 70%)""]","10","7","circle","black","3","2","2","16.70731707317073","[12,17,17,17,16,16,17,17,17,17,17,17,16,17,17,17,17,17,17,16,17,16,17,17,17,17,17,17,17,17,17,16,16,17,17,17,17,17,17,17,17]","41","600","250","false","20","20","black","1","false","1","1","1200","660","response","f","yes","self",""
"","","","","","html-keyboard-response","118","2714684","0.0-5.0-1.0-0.0-3.0-1.0-0.0-1.0-0.18","null","fixation","null","<p style='font-size: 48px; color: white'>+</p >","","","","","","","","","","","","","","","","","","","","","","","","","","","","","","","","","","","","","","","","","","","","","","",""
"","","","","","rdk","119","2716591","0.0-5.0-1.0-0.0-3.0-1.0-0.0-1.0-1.18","903","match_RDK","f","","true","[""f"",""j""]","[""f""]","3000","true","2","[80,20]","1","0","0","0","5","1","-1","3","500","500","hsla(225, 50%, 50%, 70%)","hsla(0, 50%, 50%, 70%)","[""hsla(0, 50%, 50%, 70%)"",""hsla(225, 50%, 50%, 70%)""]","10","7","circle","black","3","2","2","16.796296296296298","[10,17,17,17,17,17,17,17,17,17,17,17,17,17,17,17,17,17,16,17,17,17,17,17,17,17,17,17,17,17,17,17,17,17,17,16,17,17,17,17,17,17,17,16,17,17,17,17,17,17,17,17,16,17]","54","600","250","false","20","20","black","1","false","1","1","1200","660","response","f","yes","other",""
"","","","","","html-keyboard-response","120","2717618","0.0-5.0-1.0-0.0-3.0-1.0-0.0-1.0-0.19","null","fixation","null","<p style='font-size: 48px; color: white'>+</p >","","","","","","","","","","","","","","","","","","","","","","","","","","","","","","","","","","","","","","","","","","","","","","",""
"","","","","","rdk","121","2719504","0.0-5.0-1.0-0.0-3.0-1.0-0.0-1.0-1.19","869","match_RDK","j","","true","[""f"",""j""]","[""j""]","3000","true","2","[80,20]","1","0","0","0","5","1","-1","3","500","500","hsla(225, 50%, 50%, 70%)","hsla(0, 50%, 50%, 70%)","[""hsla(225, 50%, 50%, 70%)"",""hsla(0, 50%, 50%, 70%)""]","10","7","circle","black","3","2","2","16.903846153846153","[14,16,16,17,17,17,17,17,17,17,17,17,17,17,17,17,17,17,17,17,17,17,17,17,17,17,17,17,17,17,17,17,17,17,17,17,17,17,17,17,17,17,17,17,17,17,17,17,17,17,17,17]","52","600","250","false","20","20","black","1","false","1","1","1200","660","response","j","no","other",""
"","","","","","html-keyboard-response","122","2720534","0.0-5.0-1.0-0.0-3.0-1.0-0.0-1.0-0.20","null","fixation","null","<p style='font-size: 48px; color: white'>+</p >","","","","","","","","","","","","","","","","","","","","","","","","","","","","","","","","","","","","","","","","","","","","","","",""
"","","","","","rdk","123","2722223","0.0-5.0-1.0-0.0-3.0-1.0-0.0-1.0-1.20","686","match_RDK","f","","true","[""f"",""j""]","[""f""]","3000","true","2","[20,80]","1","0","0","0","5","1","-1","3","500","500","hsla(225, 50%, 50%, 70%)","hsla(0, 50%, 50%, 70%)","[""hsla(0, 50%, 50%, 70%)"",""hsla(225, 50%, 50%, 70%)""]","10","7","circle","black","3","2","2","16.75609756097561","[10,17,17,17,17,17,17,17,16,17,17,17,16,17,17,17,17,17,17,17,17,17,17,17,17,17,17,17,17,17,17,17,17,16,17,17,17,17,17,17,17]","41","600","250","false","20","20","black","1","false","1","1","1200","660","response","f","yes","self",""
"","","","","","html-keyboard-response","124","2723251","0.0-5.0-1.0-0.0-3.0-1.0-0.0-1.0-0.21","null","fixation","null","<p style='font-size: 48px; color: white'>+</p >","","","","","","","","","","","","","","","","","","","","","","","","","","","","","","","","","","","","","","","","","","","","","","",""
"","","","","","rdk","125","2725152","0.0-5.0-1.0-0.0-3.0-1.0-0.0-1.0-1.21","899","match_RDK","j","","true","[""f"",""j""]","[""j""]","3000","true","2","[80,20]","1","0","0","0","5","1","-1","3","500","500","hsla(225, 50%, 50%, 70%)","hsla(0, 50%, 50%, 70%)","[""hsla(225, 50%, 50%, 70%)"",""hsla(0, 50%, 50%, 70%)""]","10","7","circle","black","3","2","2","16.75925925925926","[11,18,17,16,17,17,17,16,17,16,16,17,17,16,17,17,16,17,17,17,17,17,17,17,16,17,17,17,17,17,17,17,17,17,17,17,16,17,17,17,17,17,17,17,17,17,17,17,17,17,17,17,17,17]","54","600","250","false","20","20","black","1","false","1","1","1200","660","response","j","no","other",""
"","","","","","html-keyboard-response","126","2726168","0.0-5.0-1.0-0.0-3.0-1.0-0.0-1.0-0.22","null","fixation","null","<p style='font-size: 48px; color: white'>+</p >","","","","","","","","","","","","","","","","","","","","","","","","","","","","","","","","","","","","","","","","","","","","","","",""
"","","","","","rdk","127","2728002","0.0-5.0-1.0-0.0-3.0-1.0-0.0-1.0-1.22","817","match_RDK","f","","true","[""f"",""j""]","[""f""]","3000","true","2","[80,20]","1","0","0","0","5","1","-1","3","500","500","hsla(225, 50%, 50%, 70%)","hsla(0, 50%, 50%, 70%)","[""hsla(0, 50%, 50%, 70%)"",""hsla(225, 50%, 50%, 70%)""]","10","7","circle","black","3","2","2","16.836734693877553","[14,17,17,17,17,17,17,17,17,17,17,17,17,17,17,17,17,17,17,17,16,17,17,17,17,17,16,17,16,17,17,17,17,16,17,17,17,17,17,17,17,17,17,17,16,17,16,17,18]","49","600","250","false","20","20","black","1","false","1","1","1200","660","response","f","yes","other",""
"","","","","","html-keyboard-response","128","2729018","0.0-5.0-1.0-0.0-3.0-1.0-0.0-1.0-0.23","null","fixation","null","<p style='font-size: 48px; color: white'>+</p >","","","","","","","","","","","","","","","","","","","","","","","","","","","","","","","","","","","","","","","","","","","","","","",""
"","","","","","rdk","129","2730832","0.0-5.0-1.0-0.0-3.0-1.0-0.0-1.0-1.23","801","match_RDK","j","","true","[""f"",""j""]","[""j""]","3000","true","2","[80,20]","1","0","0","0","5","1","-1","3","500","500","hsla(225, 50%, 50%, 70%)","hsla(0, 50%, 50%, 70%)","[""hsla(0, 50%, 50%, 70%)"",""hsla(225, 50%, 50%, 70%)""]","10","7","circle","black","3","2","2","16.479166666666668","[8,8,17,17,16,17,19,15,16,17,17,16,17,17,17,17,17,17,17,17,16,17,17,17,17,16,17,16,17,17,17,17,17,17,17,17,17,17,17,17,17,17,17,16,17,17,17,17]","48","600","250","false","20","20","black","1","false","1","1","1200","660","response","j","no","self",""
"","","","","","html-keyboard-response","130","2731851","0.0-5.0-1.0-0.0-3.0-1.0-0.0-1.0-0.24","null","fixation","null","<p style='font-size: 48px; color: white'>+</p >","","","","","","","","","","","","","","","","","","","","","","","","","","","","","","","","","","","","","","","","","","","","","","",""
"","","","","","rdk","131","2733552","0.0-5.0-1.0-0.0-3.0-1.0-0.0-1.0-1.24","699","match_RDK","f","","true","[""f"",""j""]","[""f""]","3000","true","2","[20,80]","1","0","0","0","5","1","-1","3","500","500","hsla(225, 50%, 50%, 70%)","hsla(0, 50%, 50%, 70%)","[""hsla(0, 50%, 50%, 70%)"",""hsla(225, 50%, 50%, 70%)""]","10","7","circle","black","3","2","2","16.785714285714285","[10,17,17,16,17,17,17,17,17,17,17,17,17,17,17,17,17,17,17,17,17,17,17,16,17,17,17,17,17,17,17,17,17,17,17,17,17,17,17,17,17,17]","42","600","250","false","20","20","black","1","false","1","1","1200","660","response","f","yes","self",""
"","","","","","html-keyboard-response","132","2734568","0.0-5.0-1.0-0.0-3.0-1.0-0.0-1.0-0.25","null","fixation","null","<p style='font-size: 48px; color: white'>+</p >","","","","","","","","","","","","","","","","","","","","","","","","","","","","","","","","","","","","","","","","","","","","","","",""
"","","","","","rdk","133","2736496","0.0-5.0-1.0-0.0-3.0-1.0-0.0-1.0-1.25","925","match_RDK","j","","true","[""f"",""j""]","[""j""]","3000","true","2","[80,20]","1","0","0","0","5","1","-1","3","500","500","hsla(225, 50%, 50%, 70%)","hsla(0, 50%, 50%, 70%)","[""hsla(0, 50%, 50%, 70%)"",""hsla(225, 50%, 50%, 70%)""]","10","7","circle","black","3","2","2","16.672727272727272","[10,17,17,17,17,17,17,17,17,17,17,17,17,16,17,17,16,17,17,17,17,17,16,17,17,17,16,17,17,16,17,17,16,17,17,17,17,17,17,17,16,17,16,17,17,17,17,17,17,17,16,17,16,16,17]","55","600","250","false","20","20","black","1","false","1","1","1200","660","response","j","no","self",""
"","","","","","html-keyboard-response","134","2737517","0.0-5.0-1.0-0.0-3.0-1.0-0.0-1.0-0.26","null","fixation","null","<p style='font-size: 48px; color: white'>+</p >","","","","","","","","","","","","","","","","","","","","","","","","","","","","","","","","","","","","","","","","","","","","","","",""
"","","","","","rdk","135","2739376","0.0-5.0-1.0-0.0-3.0-1.0-0.0-1.0-1.26","855","match_RDK","j","","true","[""f"",""j""]","[""j""]","3000","true","2","[80,20]","1","0","0","0","5","1","-1","3","500","500","hsla(225, 50%, 50%, 70%)","hsla(0, 50%, 50%, 70%)","[""hsla(225, 50%, 50%, 70%)"",""hsla(0, 50%, 50%, 70%)""]","10","7","circle","black","3","2","2","16.686274509803923","[10,17,17,17,17,17,17,16,16,17,17,17,17,17,17,16,17,17,17,16,17,16,17,17,17,16,17,17,17,17,17,17,16,17,17,17,16,17,17,17,17,17,17,17,17,17,17,17,17,16,17]","51","600","250","false","20","20","black","1","false","1","1","1200","660","response","j","no","other",""
"","","","","","html-keyboard-response","136","2740401","0.0-5.0-1.0-0.0-3.0-1.0-0.0-1.0-0.27","null","fixation","null","<p style='font-size: 48px; color: white'>+</p >","","","","","","","","","","","","","","","","","","","","","","","","","","","","","","","","","","","","","","","","","","","","","","",""
"","","","","","rdk","137","2742208","0.0-5.0-1.0-0.0-3.0-1.0-0.0-1.0-1.27","788","match_RDK","f","","true","[""f"",""j""]","[""f""]","3000","true","2","[80,20]","1","0","0","0","5","1","-1","3","500","500","hsla(225, 50%, 50%, 70%)","hsla(0, 50%, 50%, 70%)","[""hsla(0, 50%, 50%, 70%)"",""hsla(225, 50%, 50%, 70%)""]","10","7","circle","black","3","2","2","16.829787234042552","[11,17,17,17,17,17,17,17,17,16,17,17,17,17,17,17,17,17,17,17,16,17,17,17,17,17,17,17,17,17,17,17,17,17,17,17,17,17,17,17,17,17,17,17,17,17,17]","47","600","250","false","20","20","black","1","false","1","1","1200","660","response","f","yes","other",""
"","","","","","html-keyboard-response","138","2743219","0.0-5.0-1.0-0.0-3.0-1.0-0.0-1.0-0.28","null","fixation","null","<p style='font-size: 48px; color: white'>+</p >","","","","","","","","","","","","","","","","","","","","","","","","","","","","","","","","","","","","","","","","","","","","","","",""
"","","","","","rdk","139","2745264","0.0-5.0-1.0-0.0-3.0-1.0-0.0-1.0-1.28","1027","match_RDK","f","","true","[""f"",""j""]","[""f""]","3000","true","2","[20,80]","1","0","0","0","5","1","-1","3","500","500","hsla(225, 50%, 50%, 70%)","hsla(0, 50%, 50%, 70%)","[""hsla(0, 50%, 50%, 70%)"",""hsla(225, 50%, 50%, 70%)""]","10","7","circle","black","3","2","2","16.83606557377049","[11,16,17,17,17,17,17,17,17,17,17,17,17,17,17,17,17,17,17,17,17,17,17,17,17,16,17,17,16,17,17,17,17,17,17,17,16,17,17,17,17,17,17,17,17,17,17,17,17,17,17,17,17,17,17,17,17,17,17,17,17]","61","600","250","false","20","20","black","1","false","1","1","1200","660","response","f","yes","self",""
"","","","","","html-keyboard-response","140","2746284","0.0-5.0-1.0-0.0-3.0-1.0-0.0-1.0-0.29","null","fixation","null","<p style='font-size: 48px; color: white'>+</p >","","","","","","","","","","","","","","","","","","","","","","","","","","","","","","","","","","","","","","","","","","","","","","",""
"","","","","","rdk","141","2748208","0.0-5.0-1.0-0.0-3.0-1.0-0.0-1.0-1.29","921","match_RDK","j","","true","[""f"",""j""]","[""j""]","3000","true","2","[80,20]","1","0","0","0","5","1","-1","3","500","500","hsla(225, 50%, 50%, 70%)","hsla(0, 50%, 50%, 70%)","[""hsla(0, 50%, 50%, 70%)"",""hsla(225, 50%, 50%, 70%)""]","10","7","circle","black","3","2","2","16.8","[12,17,17,17,17,17,16,17,17,17,17,17,17,16,17,17,17,17,17,17,16,17,17,17,17,17,17,17,17,17,17,17,17,17,17,17,17,17,17,17,16,16,17,17,17,17,17,17,16,17,17,17,17,17,17]","55","600","250","false","20","20","black","1","false","1","1","1200","660","response","j","no","self",""
"","","","","","html-keyboard-response","142","2749234","0.0-5.0-1.0-0.0-3.0-1.0-0.0-1.0-0.30","null","fixation","null","<p style='font-size: 48px; color: white'>+</p >","","","","","","","","","","","","","","","","","","","","","","","","","","","","","","","","","","","","","","","","","","","","","","",""
"","","","","","rdk","143","2751120","0.0-5.0-1.0-0.0-3.0-1.0-0.0-1.0-1.30","882","match_RDK","f","","true","[""f"",""j""]","[""f""]","3000","true","2","[80,20]","1","0","0","0","5","1","-1","3","500","500","hsla(225, 50%, 50%, 70%)","hsla(0, 50%, 50%, 70%)","[""hsla(0, 50%, 50%, 70%)"",""hsla(225, 50%, 50%, 70%)""]","10","7","circle","black","3","2","2","16.77358490566038","[10,17,17,17,17,17,17,16,17,17,17,17,17,17,17,17,16,17,17,17,17,17,17,16,17,17,17,17,17,17,17,17,17,17,17,17,17,17,17,17,17,17,17,16,17,17,16,17,17,17,17,17,17]","53","600","250","false","20","20","black","1","false","1","1","1200","660","response","f","yes","other",""
"","","","","","html-keyboard-response","144","2752151","0.0-5.0-1.0-0.0-3.0-1.0-0.0-1.0-0.31","null","fixation","null","<p style='font-size: 48px; color: white'>+</p >","","","","","","","","","","","","","","","","","","","","","","","","","","","","","","","","","","","","","","","","","","","","","","",""
"","","","","","rdk","145","2754160","0.0-5.0-1.0-0.0-3.0-1.0-0.0-1.0-1.31","1006","match_RDK","j","","true","[""f"",""j""]","[""j""]","3000","true","2","[80,20]","1","0","0","0","5","1","-1","3","500","500","hsla(225, 50%, 50%, 70%)","hsla(0, 50%, 50%, 70%)","[""hsla(225, 50%, 50%, 70%)"",""hsla(0, 50%, 50%, 70%)""]","10","7","circle","black","3","2","2","16.683333333333334","[10,17,16,17,17,17,17,17,17,16,17,16,18,17,17,17,17,17,17,17,17,17,16,17,16,17,17,17,17,17,17,16,17,16,17,17,17,17,16,17,16,17,17,17,16,16,17,17,17,17,17,17,17,16,17,17,17,17,17,16]","60","600","250","false","20","20","black","1","false","1","1","1200","660","response","j","no","other",""
"","","","","","html-keyboard-response","146","2755185","0.0-5.0-1.0-0.0-3.0-1.0-0.0-1.0-0.32","null","fixation","null","<p style='font-size: 48px; color: white'>+</p >","","","","","","","","","","","","","","","","","","","","","","","","","","","","","","","","","","","","","","","","","","","","","","",""
"","","","","","rdk","147","2757007","0.0-5.0-1.0-0.0-3.0-1.0-0.0-1.0-1.32","820","match_RDK","f","","true","[""f"",""j""]","[""f""]","3000","true","2","[20,80]","1","0","0","0","5","1","-1","3","500","500","hsla(225, 50%, 50%, 70%)","hsla(0, 50%, 50%, 70%)","[""hsla(0, 50%, 50%, 70%)"",""hsla(225, 50%, 50%, 70%)""]","10","7","circle","black","3","2","2","16.591836734693878","[10,17,17,17,17,17,17,16,16,16,17,17,17,17,17,17,15,17,17,16,17,17,17,16,17,17,17,17,17,17,17,16,17,17,17,17,16,17,17,16,17,17,17,16,17,17,16,17,16]","49","600","250","false","20","20","black","1","false","1","1","1200","660","response","f","yes","self",""
"","","","","","html-keyboard-response","148","2758035","0.0-5.0-1.0-0.0-3.0-1.0-0.0-1.0-0.33","null","fixation","null","<p style='font-size: 48px; color: white'>+</p >","","","","","","","","","","","","","","","","","","","","","","","","","","","","","","","","","","","","","","","","","","","","","","",""
"","","","","","rdk","149","2760002","0.0-5.0-1.0-0.0-3.0-1.0-0.0-1.0-1.33","949","match_RDK","j","","true","[""f"",""j""]","[""j""]","3000","true","2","[80,20]","1","0","0","0","5","1","-1","3","500","500","hsla(225, 50%, 50%, 70%)","hsla(0, 50%, 50%, 70%)","[""hsla(225, 50%, 50%, 70%)"",""hsla(0, 50%, 50%, 70%)""]","10","7","circle","black","3","2","2","16.859649122807017","[12,17,17,17,17,17,17,17,16,17,17,17,17,17,17,17,16,17,17,17,17,17,17,17,17,17,17,17,17,17,17,17,17,17,17,17,17,17,17,17,17,17,17,17,16,17,17,17,17,17,17,16,17,17,17,17,18]","57","600","250","false","20","20","black","1","false","1","1","1200","660","response","j","no","other",""
"","","","","","html-keyboard-response","150","2761018","0.0-5.0-1.0-0.0-3.0-1.0-0.0-1.0-0.34","null","fixation","null","<p style='font-size: 48px; color: white'>+</p >","","","","","","","","","","","","","","","","","","","","","","","","","","","","","","","","","","","","","","","","","","","","","","",""
"","","","","","rdk","151","2762640","0.0-5.0-1.0-0.0-3.0-1.0-0.0-1.0-1.34","620","match_RDK","f","","false","[""f"",""j""]","[""j""]","3000","true","2","[80,20]","1","0","0","0","5","1","-1","3","500","500","hsla(225, 50%, 50%, 70%)","hsla(0, 50%, 50%, 70%)","[""hsla(0, 50%, 50%, 70%)"",""hsla(225, 50%, 50%, 70%)""]","10","7","circle","black","3","2","2","16.72972972972973","[10,17,17,17,17,17,17,17,17,17,16,17,17,17,17,17,16,17,17,17,17,17,17,17,17,17,17,17,17,17,17,17,17,17,17,16,17]","37","600","250","false","20","20","black","1","false","1","1","1200","660","response","j","no","self",""
"","","","","","html-keyboard-response","152","2763668","0.0-5.0-1.0-0.0-3.0-1.0-0.0-1.0-0.35","null","fixation","null","<p style='font-size: 48px; color: white'>+</p >","","","","","","","","","","","","","","","","","","","","","","","","","","","","","","","","","","","","","","","","","","","","","","",""
"","","","","","rdk","153","2765520","0.0-5.0-1.0-0.0-3.0-1.0-0.0-1.0-1.35","849","match_RDK","f","","true","[""f"",""j""]","[""f""]","3000","true","2","[80,20]","1","0","0","0","5","1","-1","3","500","500","hsla(225, 50%, 50%, 70%)","hsla(0, 50%, 50%, 70%)","[""hsla(0, 50%, 50%, 70%)"",""hsla(225, 50%, 50%, 70%)""]","10","7","circle","black","3","2","2","16.784313725490197","[10,17,17,17,17,17,17,16,17,17,17,17,17,17,17,17,17,17,17,17,17,17,16,17,17,17,17,17,17,17,17,17,17,17,17,17,17,17,17,17,16,17,17,16,17,17,17,17,17,17,17]","51","600","250","false","20","20","black","1","false","1","1","1200","660","response","f","yes","other",""
"","","","","","html-keyboard-response","154","2766551","0.0-5.0-1.0-0.0-3.0-1.0-0.0-1.0-0.36","null","fixation","null","<p style='font-size: 48px; color: white'>+</p >","","","","","","","","","","","","","","","","","","","","","","","","","","","","","","","","","","","","","","","","","","","","","","",""
"","","","","","rdk","155","2768672","0.0-5.0-1.0-0.0-3.0-1.0-0.0-1.0-1.36","1103","match_RDK","f","","true","[""f"",""j""]","[""f""]","3000","true","2","[80,20]","1","0","0","0","5","1","-1","3","500","500","hsla(225, 50%, 50%, 70%)","hsla(0, 50%, 50%, 70%)","[""hsla(0, 50%, 50%, 70%)"",""hsla(225, 50%, 50%, 70%)""]","10","7","circle","black","3","2","2","16.87878787878788","[11,17,17,17,17,17,17,17,16,17,17,17,17,17,17,17,17,17,17,17,17,17,17,17,17,17,17,17,17,17,17,17,17,17,17,16,17,17,17,17,17,17,17,17,17,17,17,17,17,17,17,17,17,17,17,17,17,17,17,17,17,17,17,17,17,17]","66","600","250","false","20","20","black","1","false","1","1","1200","660","response","f","yes","other",""
"","","","","","html-keyboard-response","156","2769701","0.0-5.0-1.0-0.0-3.0-1.0-0.0-1.0-0.37","null","fixation","null","<p style='font-size: 48px; color: white'>+</p >","","","","","","","","","","","","","","","","","","","","","","","","","","","","","","","","","","","","","","","","","","","","","","",""
"","","","","","rdk","157","2771488","0.0-5.0-1.0-0.0-3.0-1.0-0.0-1.0-1.37","780","match_RDK","j","","true","[""f"",""j""]","[""j""]","3000","true","2","[80,20]","1","0","0","0","5","1","-1","3","500","500","hsla(225, 50%, 50%, 70%)","hsla(0, 50%, 50%, 70%)","[""hsla(0, 50%, 50%, 70%)"",""hsla(225, 50%, 50%, 70%)""]","10","7","circle","black","3","2","2","16.574468085106382","[7,17,16,17,17,17,17,17,17,17,17,17,17,16,16,17,17,16,17,17,17,17,17,16,17,17,17,17,17,17,17,16,17,17,16,17,16,17,16,17,17,17,17,16,17,17,17]","47","600","250","false","20","20","black","1","false","1","1","1200","660","response","j","no","self",""
"","","","","","html-keyboard-response","158","2772518","0.0-5.0-1.0-0.0-3.0-1.0-0.0-1.0-0.38","null","fixation","null","<p style='font-size: 48px; color: white'>+</p >","","","","","","","","","","","","","","","","","","","","","","","","","","","","","","","","","","","","","","","","","","","","","","",""
"","","","","","rdk","159","2774208","0.0-5.0-1.0-0.0-3.0-1.0-0.0-1.0-1.38","688","match_RDK","f","","true","[""f"",""j""]","[""f""]","3000","true","2","[20,80]","1","0","0","0","5","1","-1","3","500","500","hsla(225, 50%, 50%, 70%)","hsla(0, 50%, 50%, 70%)","[""hsla(0, 50%, 50%, 70%)"",""hsla(225, 50%, 50%, 70%)""]","10","7","circle","black","3","2","2","16.70731707317073","[12,17,16,17,17,16,17,17,16,17,17,17,17,16,17,17,16,16,17,16,17,17,17,17,17,17,17,17,17,17,17,17,17,17,17,17,17,17,17,17,17]","41","600","250","false","20","20","black","1","false","1","1","1200","660","response","f","yes","self",""
"","","","","","html-keyboard-response","160","2775234","0.0-5.0-1.0-0.0-3.0-1.0-0.0-1.0-0.39","null","fixation","null","<p style='font-size: 48px; color: white'>+</p >","","","","","","","","","","","","","","","","","","","","","","","","","","","","","","","","","","","","","","","","","","","","","","",""
"","","","","","rdk","161","2777296","0.0-5.0-1.0-0.0-3.0-1.0-0.0-1.0-1.39","1059","match_RDK","f","","false","[""f"",""j""]","[""j""]","3000","true","2","[80,20]","1","0","0","0","5","1","-1","3","500","500","hsla(225, 50%, 50%, 70%)","hsla(0, 50%, 50%, 70%)","[""hsla(225, 50%, 50%, 70%)"",""hsla(0, 50%, 50%, 70%)""]","10","7","circle","black","3","2","2","16.761904761904763","[10,18,16,17,17,17,17,17,17,17,17,17,17,17,17,17,17,17,17,17,17,16,17,17,17,17,17,17,17,17,17,16,17,17,17,16,17,17,17,17,17,17,16,17,17,17,17,17,16,17,17,16,17,17,17,16,17,17,16,17,17,17,17]","63","600","250","false","20","20","black","1","false","1","1","1200","660","response","j","no","other",""
"","","","","","html-keyboard-response","162","2780817","0.0-5.0-1.0-0.0-3.0-1.0-0.0-2.0","null","","null","<p style='font-size: 35px; color: white'>这组测试中，您正确回答了： 88% 的试次。平均反应时为：865毫秒。</p>","","","","","","","","","","","","","","","","","","","","","","","","","","","","","","","","","","","","","","","","","","","","","","",""
"","","","","","html-keyboard-response","163","2782991","0.0-5.0-1.0-0.0-3.0-1.0-0.0-3.0","1172","instruction_rest"," ","
    <div style=""text-align: center; color: white; padding: 35px; font-size: 35px"">
      <p>请休息一下，若准备好可按空格键继续</p >
    </div>
    ","","","","","","","","","","","","","","","","","","","","","","","","","","","","","","","","","","","","","","","","","","","","","","",""
"","","","","","html-keyboard-response","164","2784518","0.0-5.0-1.0-0.0-3.0-1.0-0.0-4.0-0.0","null","fixation","null","<p style='font-size: 48px; color: white'>+</p >","","","","","","","","","","","","","","","","","","","","","","","","","","","","","","","","","","","","","","","","","","","","","","",""
"","","","","","rdk","165","2786304","0.0-5.0-1.0-0.0-3.0-1.0-0.0-4.0-1.0","783","match_RDK","j","","true","[""f"",""j""]","[""j""]","3000","true","2","[80,20]","1","0","0","0","5","1","-1","3","500","500","hsla(225, 50%, 50%, 70%)","hsla(0, 50%, 50%, 70%)","[""hsla(0, 50%, 50%, 70%)"",""hsla(225, 50%, 50%, 70%)""]","10","7","circle","black","3","2","2","16.829787234042552","[10,17,17,17,17,17,17,17,17,17,17,17,17,16,17,17,17,17,17,17,17,17,17,17,17,17,17,17,17,17,17,17,17,17,17,17,17,17,17,17,17,17,17,17,17,17,17]","47","600","250","false","20","20","black","1","false","1","1","1200","660","response","j","no","self",""
"","","","","","html-keyboard-response","166","2787319","0.0-5.0-1.0-0.0-3.0-1.0-0.0-4.0-0.1","null","fixation","null","<p style='font-size: 48px; color: white'>+</p >","","","","","","","","","","","","","","","","","","","","","","","","","","","","","","","","","","","","","","","","","","","","","","",""
"","","","","","rdk","167","2788992","0.0-5.0-1.0-0.0-3.0-1.0-0.0-4.0-1.1","656","match_RDK","f","","true","[""f"",""j""]","[""f""]","3000","true","2","[20,80]","1","0","0","0","5","1","-1","3","500","500","hsla(225, 50%, 50%, 70%)","hsla(0, 50%, 50%, 70%)","[""hsla(0, 50%, 50%, 70%)"",""hsla(225, 50%, 50%, 70%)""]","10","7","circle","black","3","2","2","16.743589743589745","[11,16,17,17,17,17,17,17,17,17,17,17,17,17,17,17,17,17,17,17,17,17,17,17,17,17,17,16,16,17,17,17,17,17,16,17,17,17,17]","39","600","250","false","20","20","black","1","false","1","1","1200","660","response","f","yes","self",""
"","","","","","html-keyboard-response","168","2790019","0.0-5.0-1.0-0.0-3.0-1.0-0.0-4.0-0.2","null","fixation","null","<p style='font-size: 48px; color: white'>+</p >","","","","","","","","","","","","","","","","","","","","","","","","","","","","","","","","","","","","","","","","","","","","","","",""
"","","","","","rdk","169","2791904","0.0-5.0-1.0-0.0-3.0-1.0-0.0-4.0-1.2","884","match_RDK","j","","true","[""f"",""j""]","[""j""]","3000","true","2","[80,20]","1","0","0","0","5","1","-1","3","500","500","hsla(225, 50%, 50%, 70%)","hsla(0, 50%, 50%, 70%)","[""hsla(225, 50%, 50%, 70%)"",""hsla(0, 50%, 50%, 70%)""]","10","7","circle","black","3","2","2","16.90566037735849","[12,17,17,17,17,17,17,17,17,17,17,17,17,17,17,17,17,17,17,17,17,17,17,17,17,17,17,17,17,17,17,17,17,17,17,17,17,17,17,17,17,17,17,17,17,17,17,17,17,17,17,17,17]","53","600","250","false","20","20","black","1","false","1","1","1200","660","response","j","no","other",""
"","","","","","html-keyboard-response","170","2792934","0.0-5.0-1.0-0.0-3.0-1.0-0.0-4.0-0.3","null","fixation","null","<p style='font-size: 48px; color: white'>+</p >","","","","","","","","","","","","","","","","","","","","","","","","","","","","","","","","","","","","","","","","","","","","","","",""
"","","","","","rdk","171","2794944","0.0-5.0-1.0-0.0-3.0-1.0-0.0-4.0-1.3","1006","match_RDK","f","","true","[""f"",""j""]","[""f""]","3000","true","2","[80,20]","1","0","0","0","5","1","-1","3","500","500","hsla(225, 50%, 50%, 70%)","hsla(0, 50%, 50%, 70%)","[""hsla(0, 50%, 50%, 70%)"",""hsla(225, 50%, 50%, 70%)""]","10","7","circle","black","3","2","2","16.816666666666666","[10,17,17,17,17,17,17,17,17,17,17,17,17,17,16,17,17,17,17,17,17,16,17,17,17,17,17,17,17,17,17,17,17,17,17,17,17,17,17,16,17,17,17,17,17,17,17,17,17,17,17,16,17,17,17,17,17,17,17,17]","60","600","250","false","20","20","black","1","false","1","1","1200","660","response","f","yes","other",""
"","","","","","html-keyboard-response","172","2795968","0.0-5.0-1.0-0.0-3.0-1.0-0.0-4.0-0.4","null","fixation","null","<p style='font-size: 48px; color: white'>+</p >","","","","","","","","","","","","","","","","","","","","","","","","","","","","","","","","","","","","","","","","","","","","","","",""
"","","","","","rdk","173","2797760","0.0-5.0-1.0-0.0-3.0-1.0-0.0-4.0-1.4","790","match_RDK","j","","true","[""f"",""j""]","[""j""]","3000","true","2","[80,20]","1","0","0","0","5","1","-1","3","500","500","hsla(225, 50%, 50%, 70%)","hsla(0, 50%, 50%, 70%)","[""hsla(0, 50%, 50%, 70%)"",""hsla(225, 50%, 50%, 70%)""]","10","7","circle","black","3","2","2","16.78723404255319","[12,16,16,17,17,17,17,17,17,17,16,17,17,17,17,17,17,17,17,17,17,17,17,17,17,17,17,17,17,17,17,17,17,17,17,17,17,17,16,17,17,17,17,16,17,17,17]","47","600","250","false","20","20","black","1","false","1","1","1200","660","response","j","no","self",""
"","","","","","html-keyboard-response","174","2798770","0.0-5.0-1.0-0.0-3.0-1.0-0.0-4.0-0.5","null","fixation","null","<p style='font-size: 48px; color: white'>+</p >","","","","","","","","","","","","","","","","","","","","","","","","","","","","","","","","","","","","","","","","","","","","","","",""
"","","","","","rdk","175","2800688","0.0-5.0-1.0-0.0-3.0-1.0-0.0-4.0-1.5","901","match_RDK","f","","true","[""f"",""j""]","[""f""]","3000","true","2","[20,80]","1","0","0","0","5","1","-1","3","500","500","hsla(225, 50%, 50%, 70%)","hsla(0, 50%, 50%, 70%)","[""hsla(0, 50%, 50%, 70%)"",""hsla(225, 50%, 50%, 70%)""]","10","7","circle","black","3","2","2","16.814814814814813","[11,17,17,17,17,17,17,17,17,17,17,17,16,17,16,17,17,17,17,17,17,17,17,17,17,17,16,17,17,17,17,17,17,17,17,17,17,17,17,17,17,17,17,17,17,17,16,17,17,17,17,17,17,17]","54","600","250","false","20","20","black","1","false","1","1","1200","660","response","f","yes","self",""
"","","","","","html-keyboard-response","176","2801718","0.0-5.0-1.0-0.0-3.0-1.0-0.0-4.0-0.6","null","fixation","null","<p style='font-size: 48px; color: white'>+</p >","","","","","","","","","","","","","","","","","","","","","","","","","","","","","","","","","","","","","","","","","","","","","","",""
"","","","","","rdk","177","2803488","0.0-5.0-1.0-0.0-3.0-1.0-0.0-4.0-1.6","768","match_RDK","f","","true","[""f"",""j""]","[""f""]","3000","true","2","[80,20]","1","0","0","0","5","1","-1","3","500","500","hsla(225, 50%, 50%, 70%)","hsla(0, 50%, 50%, 70%)","[""hsla(0, 50%, 50%, 70%)"",""hsla(225, 50%, 50%, 70%)""]","10","7","circle","black","3","2","2","16.847826086956523","[12,17,17,17,17,17,17,17,17,17,17,16,18,16,17,17,17,17,17,17,17,17,17,17,17,17,16,17,17,17,17,17,17,17,17,17,17,17,17,17,17,17,17,17,17,17]","46","600","250","false","20","20","black","1","false","1","1","1200","660","response","f","yes","other",""
"","","","","","html-keyboard-response","178","2804518","0.0-5.0-1.0-0.0-3.0-1.0-0.0-4.0-0.7","null","fixation","null","<p style='font-size: 48px; color: white'>+</p >","","","","","","","","","","","","","","","","","","","","","","","","","","","","","","","","","","","","","","","","","","","","","","",""
"","","","","","rdk","179","2806368","0.0-5.0-1.0-0.0-3.0-1.0-0.0-4.0-1.7","849","match_RDK","j","","true","[""f"",""j""]","[""j""]","3000","true","2","[80,20]","1","0","0","0","5","1","-1","3","500","500","hsla(225, 50%, 50%, 70%)","hsla(0, 50%, 50%, 70%)","[""hsla(225, 50%, 50%, 70%)"",""hsla(0, 50%, 50%, 70%)""]","10","7","circle","black","3","2","2","16.686274509803923","[12,18,16,17,17,16,17,17,16,16,17,17,17,18,17,17,16,17,17,17,17,17,16,17,17,17,16,17,16,17,17,16,17,17,16,17,17,17,17,17,17,17,16,17,16,17,17,17,16,17,17]","51","600","250","false","20","20","black","1","false","1","1","1200","660","response","j","no","other",""
"","","","","","html-keyboard-response","180","2807385","0.0-5.0-1.0-0.0-3.0-1.0-0.0-4.0-0.8","null","fixation","null","<p style='font-size: 48px; color: white'>+</p >","","","","","","","","","","","","","","","","","","","","","","","","","","","","","","","","","","","","","","","","","","","","","","",""
"","","","","","rdk","181","2809185","0.0-5.0-1.0-0.0-3.0-1.0-0.0-4.0-1.8","797","match_RDK","j","","true","[""f"",""j""]","[""j""]","3000","true","2","[80,20]","1","0","0","0","5","1","-1","3","500","500","hsla(225, 50%, 50%, 70%)","hsla(0, 50%, 50%, 70%)","[""hsla(225, 50%, 50%, 70%)"",""hsla(0, 50%, 50%, 70%)""]","10","7","circle","black","3","2","2","16.875","[11,17,17,17,17,17,17,17,17,17,17,17,17,17,17,17,17,17,17,17,17,17,17,17,17,17,17,17,17,17,17,17,17,17,17,17,17,17,17,17,17,17,17,17,17,17,17,17]","48","600","250","false","20","20","black","1","false","1","1","1200","660","response","j","no","other",""
"","","","","","html-keyboard-response","182","2810202","0.0-5.0-1.0-0.0-3.0-1.0-0.0-4.0-0.9","null","fixation","null","<p style='font-size: 48px; color: white'>+</p >","","","","","","","","","","","","","","","","","","","","","","","","","","","","","","","","","","","","","","","","","","","","","","",""
"","","","","","rdk","183","2811952","0.0-5.0-1.0-0.0-3.0-1.0-0.0-4.0-1.9","733","match_RDK","f","","true","[""f"",""j""]","[""f""]","3000","true","2","[20,80]","1","0","0","0","5","1","-1","3","500","500","hsla(225, 50%, 50%, 70%)","hsla(0, 50%, 50%, 70%)","[""hsla(0, 50%, 50%, 70%)"",""hsla(225, 50%, 50%, 70%)""]","10","7","circle","black","3","2","2","16.863636363636363","[11,17,17,17,17,17,17,17,17,17,17,17,17,17,17,17,17,17,17,17,17,17,17,17,17,17,17,17,17,17,17,17,17,17,17,17,17,17,17,17,17,17,17,17]","44","600","250","false","20","20","black","1","false","1","1","1200","660","response","f","yes","self",""
"","","","","","html-keyboard-response","184","2812968","0.0-5.0-1.0-0.0-3.0-1.0-0.0-4.0-0.10","null","fixation","null","<p style='font-size: 48px; color: white'>+</p >","","","","","","","","","","","","","","","","","","","","","","","","","","","","","","","","","","","","","","","","","","","","","","",""
"","","","","","rdk","185","2814768","0.0-5.0-1.0-0.0-3.0-1.0-0.0-4.0-1.10","798","match_RDK","f","","true","[""f"",""j""]","[""f""]","3000","true","2","[80,20]","1","0","0","0","5","1","-1","3","500","500","hsla(225, 50%, 50%, 70%)","hsla(0, 50%, 50%, 70%)","[""hsla(0, 50%, 50%, 70%)"",""hsla(225, 50%, 50%, 70%)""]","10","7","circle","black","3","2","2","16.895833333333332","[12,17,17,17,17,17,17,17,17,17,17,17,17,17,17,17,17,17,17,17,17,17,17,17,17,17,17,17,17,17,17,17,17,17,17,17,17,17,17,17,17,17,17,17,17,17,17,17]","48","600","250","false","20","20","black","1","false","1","1","1200","660","response","f","yes","other",""
"","","","","","html-keyboard-response","186","2815785","0.0-5.0-1.0-0.0-3.0-1.0-0.0-4.0-0.11","null","fixation","null","<p style='font-size: 48px; color: white'>+</p >","","","","","","","","","","","","","","","","","","","","","","","","","","","","","","","","","","","","","","","","","","","","","","",""
"","","","","","rdk","187","2817520","0.0-5.0-1.0-0.0-3.0-1.0-0.0-4.0-1.11","733","match_RDK","j","","true","[""f"",""j""]","[""j""]","3000","true","2","[80,20]","1","0","0","0","5","1","-1","3","500","500","hsla(225, 50%, 50%, 70%)","hsla(0, 50%, 50%, 70%)","[""hsla(0, 50%, 50%, 70%)"",""hsla(225, 50%, 50%, 70%)""]","10","7","circle","black","3","2","2","16.863636363636363","[12,17,17,17,17,17,17,17,17,17,17,17,16,17,17,17,17,17,17,17,17,17,17,17,17,17,17,17,17,17,17,17,17,17,17,17,17,17,17,17,17,17,17,17]","44","600","250","false","20","20","black","1","false","1","1","1200","660","response","j","no","self",""
"","","","","","html-keyboard-response","188","2818535","0.0-5.0-1.0-0.0-3.0-1.0-0.0-4.0-0.12","null","fixation","null","<p style='font-size: 48px; color: white'>+</p >","","","","","","","","","","","","","","","","","","","","","","","","","","","","","","","","","","","","","","","","","","","","","","",""
"","","","","","rdk","189","2820256","0.0-5.0-1.0-0.0-3.0-1.0-0.0-4.0-1.12","719","match_RDK","f","","true","[""f"",""j""]","[""f""]","3000","true","2","[80,20]","1","0","0","0","5","1","-1","3","500","500","hsla(225, 50%, 50%, 70%)","hsla(0, 50%, 50%, 70%)","[""hsla(0, 50%, 50%, 70%)"",""hsla(225, 50%, 50%, 70%)""]","10","7","circle","black","3","2","2","16.790697674418606","[10,17,17,17,17,17,17,17,17,17,17,17,17,17,17,16,17,17,17,17,17,17,16,17,17,17,17,17,17,17,17,17,17,17,17,17,17,17,17,17,17,17,17]","43","600","250","false","20","20","black","1","false","1","1","1200","660","response","f","yes","other",""
"","","","","","html-keyboard-response","190","2821285","0.0-5.0-1.0-0.0-3.0-1.0-0.0-4.0-0.13","null","fixation","null","<p style='font-size: 48px; color: white'>+</p >","","","","","","","","","","","","","","","","","","","","","","","","","","","","","","","","","","","","","","","","","","","","","","",""
"","","","","","rdk","191","2823024","0.0-5.0-1.0-0.0-3.0-1.0-0.0-4.0-1.13","737","match_RDK","f","","true","[""f"",""j""]","[""f""]","3000","true","2","[20,80]","1","0","0","0","5","1","-1","3","500","500","hsla(225, 50%, 50%, 70%)","hsla(0, 50%, 50%, 70%)","[""hsla(0, 50%, 50%, 70%)"",""hsla(225, 50%, 50%, 70%)""]","10","7","circle","black","3","2","2","16.795454545454547","[13,16,17,17,17,17,17,17,17,17,17,17,17,17,17,17,17,17,17,17,17,17,17,17,17,17,17,17,17,17,16,17,17,16,17,17,17,16,16,17,17,17,17,17]","44","600","250","false","20","20","black","1","false","1","1","1200","660","response","f","yes","self",""
"","","","","","html-keyboard-response","192","2824051","0.0-5.0-1.0-0.0-3.0-1.0-0.0-4.0-0.14","null","fixation","null","<p style='font-size: 48px; color: white'>+</p >","","","","","","","","","","","","","","","","","","","","","","","","","","","","","","","","","","","","","","","","","","","","","","",""
"","","","","","rdk","193","2825760","0.0-5.0-1.0-0.0-3.0-1.0-0.0-4.0-1.14","706","match_RDK","j","","true","[""f"",""j""]","[""j""]","3000","true","2","[80,20]","1","0","0","0","5","1","-1","3","500","500","hsla(225, 50%, 50%, 70%)","hsla(0, 50%, 50%, 70%)","[""hsla(0, 50%, 50%, 70%)"",""hsla(225, 50%, 50%, 70%)""]","10","7","circle","black","3","2","2","16.833333333333332","[11,17,17,17,17,17,17,17,17,17,17,17,17,16,17,17,17,17,17,17,17,17,17,17,17,17,17,17,17,17,17,17,17,17,17,17,17,17,17,17,17,17]","42","600","250","false","20","20","black","1","false","1","1","1200","660","response","j","no","self",""
"","","","","","html-keyboard-response","194","2826785","0.0-5.0-1.0-0.0-3.0-1.0-0.0-4.0-0.15","null","fixation","null","<p style='font-size: 48px; color: white'>+</p >","","","","","","","","","","","","","","","","","","","","","","","","","","","","","","","","","","","","","","","","","","","","","","",""
"","","","","","rdk","195","2828592","0.0-5.0-1.0-0.0-3.0-1.0-0.0-4.0-1.15","789","match_RDK","f","","false","[""f"",""j""]","[""j""]","3000","true","2","[80,20]","1","0","0","0","5","1","-1","3","500","500","hsla(225, 50%, 50%, 70%)","hsla(0, 50%, 50%, 70%)","[""hsla(225, 50%, 50%, 70%)"",""hsla(0, 50%, 50%, 70%)""]","10","7","circle","black","3","2","2","16.74468085106383","[11,18,17,16,17,17,17,17,18,16,17,17,17,17,16,17,17,17,16,17,17,17,17,16,17,17,17,17,17,17,17,17,17,17,17,16,17,16,17,17,17,16,17,17,17,17,17]","47","600","250","false","20","20","black","1","false","1","1","1200","660","response","j","no","other",""
"","","","","","html-keyboard-response","196","2829618","0.0-5.0-1.0-0.0-3.0-1.0-0.0-4.0-0.16","null","fixation","null","<p style='font-size: 48px; color: white'>+</p >","","","","","","","","","","","","","","","","","","","","","","","","","","","","","","","","","","","","","","","","","","","","","","",""
"","","","","","rdk","197","2831553","0.0-5.0-1.0-0.0-3.0-1.0-0.0-4.0-1.16","917","match_RDK","j","","true","[""f"",""j""]","[""j""]","3000","true","2","[80,20]","1","0","0","0","5","1","-1","3","500","500","hsla(225, 50%, 50%, 70%)","hsla(0, 50%, 50%, 70%)","[""hsla(225, 50%, 50%, 70%)"",""hsla(0, 50%, 50%, 70%)""]","10","7","circle","black","3","2","2","16.854545454545455","[12,17,17,17,17,16,17,17,17,17,17,17,17,17,17,17,17,17,17,17,17,17,17,17,17,17,17,17,17,17,17,17,17,17,17,17,17,17,17,17,17,16,17,17,17,17,17,17,17,17,17,16,17,17,17]","55","600","250","false","20","20","black","1","false","1","1","1200","660","response","j","no","other",""
"","","","","","html-keyboard-response","198","2832568","0.0-5.0-1.0-0.0-3.0-1.0-0.0-4.0-0.17","null","fixation","null","<p style='font-size: 48px; color: white'>+</p >","","","","","","","","","","","","","","","","","","","","","","","","","","","","","","","","","","","","","","","","","","","","","","",""
"","","","","","rdk","199","2834303","0.0-5.0-1.0-0.0-3.0-1.0-0.0-4.0-1.17","732","match_RDK","f","","false","[""f"",""j""]","[""j""]","3000","true","2","[80,20]","1","0","0","0","5","1","-1","3","500","500","hsla(225, 50%, 50%, 70%)","hsla(0, 50%, 50%, 70%)","[""hsla(0, 50%, 50%, 70%)"",""hsla(225, 50%, 50%, 70%)""]","10","7","circle","black","3","2","2","16.727272727272727","[10,17,17,17,17,16,17,17,17,17,17,17,17,17,17,17,17,17,17,17,17,16,17,17,17,17,17,17,17,17,17,17,16,17,17,17,17,17,17,17,16,17,17,16]","44","600","250","false","20","20","black","1","false","1","1","1200","660","response","j","no","self",""
"","","","","","html-keyboard-response","200","2835319","0.0-5.0-1.0-0.0-3.0-1.0-0.0-4.0-0.18","null","fixation","null","<p style='font-size: 48px; color: white'>+</p >","","","","","","","","","","","","","","","","","","","","","","","","","","","","","","","","","","","","","","","","","","","","","","",""
"","","","","","rdk","201","2837120","0.0-5.0-1.0-0.0-3.0-1.0-0.0-4.0-1.18","784","match_RDK","f","","true","[""f"",""j""]","[""f""]","3000","true","2","[80,20]","1","0","0","0","5","1","-1","3","500","500","hsla(225, 50%, 50%, 70%)","hsla(0, 50%, 50%, 70%)","[""hsla(0, 50%, 50%, 70%)"",""hsla(225, 50%, 50%, 70%)""]","10","7","circle","black","3","2","2","16.78723404255319","[12,17,17,17,17,17,17,17,17,16,17,17,17,17,17,17,17,17,17,17,17,17,16,17,17,17,17,17,17,17,16,17,17,17,17,16,17,17,17,17,17,17,16,17,17,17,17]","47","600","250","false","20","20","black","1","false","1","1","1200","660","response","f","yes","other",""
"","","","","","html-keyboard-response","202","2838135","0.0-5.0-1.0-0.0-3.0-1.0-0.0-4.0-0.19","null","fixation","null","<p style='font-size: 48px; color: white'>+</p >","","","","","","","","","","","","","","","","","","","","","","","","","","","","","","","","","","","","","","","","","","","","","","",""
"","","","","","rdk","203","2840096","0.0-5.0-1.0-0.0-3.0-1.0-0.0-4.0-1.19","959","match_RDK","f","","true","[""f"",""j""]","[""f""]","3000","true","2","[20,80]","1","0","0","0","5","1","-1","3","500","500","hsla(225, 50%, 50%, 70%)","hsla(0, 50%, 50%, 70%)","[""hsla(0, 50%, 50%, 70%)"",""hsla(225, 50%, 50%, 70%)""]","10","7","circle","black","3","2","2","16.859649122807017","[12,17,17,17,17,17,17,17,17,17,17,17,17,17,17,17,17,17,17,17,17,17,17,17,17,17,17,17,17,17,17,17,17,16,17,17,17,17,17,17,17,17,17,17,17,17,16,17,16,17,17,17,17,17,17,17,17]","57","600","250","false","20","20","black","1","false","1","1","1200","660","response","f","yes","self",""
"","","","","","html-keyboard-response","204","2841118","0.0-5.0-1.0-0.0-3.0-1.0-0.0-4.0-0.20","null","fixation","null","<p style='font-size: 48px; color: white'>+</p >","","","","","","","","","","","","","","","","","","","","","","","","","","","","","","","","","","","","","","","","","","","","","","",""
"","","","","","rdk","205","2843040","0.0-5.0-1.0-0.0-3.0-1.0-0.0-4.0-1.20","904","match_RDK","f","","true","[""f"",""j""]","[""f""]","3000","true","2","[80,20]","1","0","0","0","5","1","-1","3","500","500","hsla(225, 50%, 50%, 70%)","hsla(0, 50%, 50%, 70%)","[""hsla(0, 50%, 50%, 70%)"",""hsla(225, 50%, 50%, 70%)""]","10","7","circle","black","3","2","2","16.77777777777778","[11,17,17,17,17,17,17,17,17,16,17,17,17,17,17,17,17,17,17,17,17,17,17,16,17,17,17,16,17,17,17,17,17,17,16,17,17,17,17,16,17,17,17,17,17,17,16,17,17,17,17,17,17,17]","54","600","250","false","20","20","black","1","false","1","1","1200","660","response","f","yes","other",""
"","","","","","html-keyboard-response","206","2844068","0.0-5.0-1.0-0.0-3.0-1.0-0.0-4.0-0.21","null","fixation","null","<p style='font-size: 48px; color: white'>+</p >","","","","","","","","","","","","","","","","","","","","","","","","","","","","","","","","","","","","","","","","","","","","","","",""
"","","","","","rdk","207","2845952","0.0-5.0-1.0-0.0-3.0-1.0-0.0-4.0-1.21","882","match_RDK","j","","true","[""f"",""j""]","[""j""]","3000","true","2","[80,20]","1","0","0","0","5","1","-1","3","500","500","hsla(225, 50%, 50%, 70%)","hsla(0, 50%, 50%, 70%)","[""hsla(0, 50%, 50%, 70%)"",""hsla(225, 50%, 50%, 70%)""]","10","7","circle","black","3","2","2","16.867924528301888","[11,17,17,17,17,17,17,17,17,17,17,17,17,17,17,17,17,17,17,17,17,17,17,17,17,17,17,17,17,17,17,17,17,17,17,17,17,17,17,17,17,17,17,16,17,17,17,17,17,17,17,17,17]","53","600","250","false","20","20","black","1","false","1","1","1200","660","response","j","no","self",""
"","","","","","html-keyboard-response","208","2846968","0.0-5.0-1.0-0.0-3.0-1.0-0.0-4.0-0.22","null","fixation","null","<p style='font-size: 48px; color: white'>+</p >","","","","","","","","","","","","","","","","","","","","","","","","","","","","","","","","","","","","","","","","","","","","","","",""
"","","","","","rdk","209","2848928","0.0-5.0-1.0-0.0-3.0-1.0-0.0-4.0-1.22","957","match_RDK","j","","true","[""f"",""j""]","[""j""]","3000","true","2","[80,20]","1","0","0","0","5","1","-1","3","500","500","hsla(225, 50%, 50%, 70%)","hsla(0, 50%, 50%, 70%)","[""hsla(225, 50%, 50%, 70%)"",""hsla(0, 50%, 50%, 70%)""]","10","7","circle","black","3","2","2","16.859649122807017","[10,17,17,17,17,17,17,17,17,17,17,17,17,17,17,17,17,17,17,17,17,17,17,17,17,17,17,17,17,17,17,17,17,17,17,17,17,16,17,17,17,17,17,17,17,17,17,17,17,17,17,17,17,17,17,17,17]","57","600","250","false","20","20","black","1","false","1","1","1200","660","response","j","no","other",""
"","","","","","html-keyboard-response","210","2849951","0.0-5.0-1.0-0.0-3.0-1.0-0.0-4.0-0.23","null","fixation","null","<p style='font-size: 48px; color: white'>+</p >","","","","","","","","","","","","","","","","","","","","","","","","","","","","","","","","","","","","","","","","","","","","","","",""
