"success","timeout","failed_images","failed_audio","failed_video","trial_type","trial_index","time_elapsed","internal_node_id","rt","part","response","stimulus","correct","choices","correct_choice","trial_duration","response_ends_trial","number_of_apertures","number_of_dots","number_of_sets","coherent_direction","coherence","opposite_coherence","dot_radius","dot_side_length","dot_life","move_distance","aperture_width","aperture_height","dot_color_beforeOne","dot_color_beforeTwo","dot_color_after","dot_color_delay","move_delay","dot_shape","background_color","RDK_type","aperture_type","reinsert_type","frame_rate","frame_rate_array","number_of_frames","aperture_center_x","aperture_center_y","fixation_cross","fixation_cross_width","fixation_cross_height","fixation_cross_color","fixation_cross_thickness","border","border_thickness","border_color","canvas_width","canvas_height","task","correct_responce","match","association","difficulty"
"true","false","[]","[]","[]","preload","0","9","0.0-0.0","","","","","","","","","","","","","","","","","","","","","","","","","","","","","","","","","","","","","","","","","","","","","","","","","","",""
"true","","","","","fullscreen","1","6883811","0.0-1.0","6881799","fullScreen","","","","","","","","","","","","","","","","","","","","","","","","","","","","","","","","","","","","","","","","","","","","","","","","",""
"","","","","","survey","2","6897015","0.0-2.0","12120","survey","{""sex"":""女"",""age"":24,""hands"":""右"",""color_blindness"":""都不是""}","","","","","","","","","","","","","","","","","","","","","","","","","","","","","","","","","","","","","","","","","","","","","","","",""
"","","","","","survey-text","3","6917837","0.0-3.0","19792","color_test","{""Q0"":""BE""}","","","","","","","","","","","","","","","","","","","","","","","","","","","","","","","","","","","","","","","","","","","","","","","",""
"","","","","","html-keyboard-response","4","6924635","0.0-4.0","5794","instruction_beginning"," ","
      <div style=""text-align: left; color: white"">
        <h3 style=""text-align: center; font-size: 30px; margin: 0;"">欢迎参与本实验</h3>
          <p>为充分保障您的权利，请确保您已经知晓并同意《参与实验同意书》以及《数据公开知情同意书》，</p>
          <p>如果您未见过上述内容，请咨询实验员 ，</p>
          <p>如果您选择继续实验，则表示您已经清楚两份知情同意书的内容并同意 。</p>
          <p>在整个实验中，您需要完成两项任务，具体的任务要求会在后面说明 ，</p>
          <p>请按空格键进入实验</p >
      </div>","","","","","","","","","","","","","","","","","","","","","","","","","","","","","","","","","","","","","","","","","","","","","","",""
"","","","","","html-keyboard-response","5","6957579","0.0-5.0-1.0-0.0-0.0","31940","instruction_match"," ","
        <div style=""text-align: left; color: white; padding: 10px""> 
          <h3 style=""text-align: center; font-size: 30px; margin: 10px"">任务一：匹配判断</h3>
          <p>接下来，屏幕上会呈现一些运动的圆点，其中一半为 <span style=""color: hsl(0, 50%, 50%)"">红色</span> ，一半为 <span style=""color: hsl(225, 50%, 50%)"">蓝色</span> 。</p>
          <p>同时散点图的下方会出现 ""自己"" 或 ""生人"" 的文字标签。</p >
          <p><span style=""font-weight: bold"">大约0.2秒后,</span>  一部分点会随机变为另一种颜色（例如从红色变为蓝色），变化后某种颜色的数量会超过另一种。</p >
          <p>如果整体颜色为 <span style=""color: hsl(0, 50%, 50%)"">红色</span> 代表 <span style=""color: hsl(0, 50%, 50%)"">你自己</span> ，整体颜色为 <span style=""color: hsl(225, 50%, 50%)"">蓝色</span> 代表 <span style=""color: hsl(225, 50%, 50%)"">生人（即陌生人）</span>。</p >
          <p>您需要在3秒内判断 <span style=""font-weight: bold"">散点图的整体颜色与文字是否匹配</span> 。</p >
          <ul>
            <li><span style=""color: hsl(135, 50%, 50%)"">匹配</span>，请按键盘 <span style=""color: hsl(135, 50%, 50%)"">""F"" 键</span>；</li>
            <li><span style=""color: red"">不匹配</span>，请按键盘 <span style=""color: red"">""J"" 键</span> </li>
          </ul>
          <p>按下空格键后将呈现示例</p>
        </div>","","","","","","","","","","","","","","","","","","","","","","","","","","","","","","","","","","","","","","","","","","","","","","",""
"","","","","","rdk","6","6986714","0.0-5.0-1.0-0.0-1.0","28107","example"," ","","true","["" ""]","["" ""]","300000","true","4","[80,20,80,20]","1","0","0","0","5","1","-1","3","400","400","hsla(0, 50%, 50%, 70%)","hsla(225, 50%, 50%, 70%)","[""hsla(0, 50%, 50%, 70%)"",""hsla(225, 50%, 50%, 70%)"",""hsla(225, 50%, 50%, 70%)"",""hsla(0, 50%, 50%, 70%)""]","10","10","circle","black","3","1","2","16.80616478956728","[1,14,16,17,16,17,17,17,17,16,16,17,17,17,18,15,17,17,17,17,16,17,17,17,17,17,17,17,18,16,17,17,16,17,16,17,16,17,16,17,17,16,17,17,17,17,19,14,17,16,17,17,17,17,17,17,16,17,17,17,17,17,17,16,18,16,17,17,16,17,17,18,17,17,17,17,17,17,17,17,16,17,17,17,17,17,16,17,17,18,16,17,17,17,17,17,17,17,17,16,17,16,17,17,17,17,17,16,17,17,16,16,17,16,17,17,16,17,17,17,16,17,16,17,17,17,17,17,16,17,17,16,17,17,17,16,17,17,17,16,17,17,17,17,17,17,17,16,17,16,16,17,17,17,16,17,17,17,17,17,17,16,16,17,17,16,18,15,17,17,17,17,17,16,16,17,16,17,17,17,16,17,17,17,17,17,17,17,17,17,16,17,17,17,17,16,16,17,17,17,17,17,17,17,17,17,17,17,17,17,16,16,17,17,17,17,17,17,17,17,17,16,16,17,17,17,19,15,18,16,16,17,17,17,17,17,17,17,17,17,16,17,17,17,17,16,17,17,16,17,17,16,17,17,17,17,17,17,17,17,17,17,17,17,16,17,17,17,18,16,17,17,17,17,17,17,17,17,16,17,17,17,16,17,17,16,18,15,17,17,16,17,17,16,17,17,16,17,17,17,17,17,17,17,16,17,17,17,17,17,17,16,17,17,17,17,16,16,17,17,16,17,17,17,17,17,16,17,17,16,17,17,17,17,16,17,17,17,17,17,17,17,17,16,17,17,18,16,17,17,17,17,17,17,17,17,17,17,17,16,17,17,17,17,17,17,17,17,16,17,17,16,17,17,17,17,16,16,17,17,16,17,17,17,17,17,17,17,16,17,17,17,16,17,17,17,16,17,16,17,17,17,17,17,16,17,17,16,17,16,18,16,16,17,17,17,16,17,17,17,17,17,16,17,17,17,16,16,17,17,17,17,17,17,18,17,17,17,17,17,17,16,17,17,17,17,16,17,17,17,17,17,17,17,17,17,17,17,17,17,17,17,16,17,17,16,17,16,17,17,16,17,17,16,17,17,16,17,17,17,17,17,16,17,16,17,17,17,17,17,17,17,17,17,16,18,15,17,17,17,17,17,17,16,17,18,16,17,17,17,16,17,17,17,16,17,16,17,17,17,17,16,17,17,17,17,17,16,17,18,16,17,17,17,17,17,17,17,17,17,16,17,16,17,17,17,17,18,16,17,17,17,17,17,17,16,16,17,17,18,16,17,17,17,17,16,16,16,17,17,17,17,17,17,17,17,16,17,17,17,17,16,17,16,16,17,19,15,17,16,17,17,17,16,17,17,17,17,17,17,17,17,16,17,17,17,17,17,17,17,17,17,17,17,17,17,17,16,17,17,17,17,17,17,17,17,17,17,17,17,17,17,17,17,17,17,17,17,17,17,17,17,17,17,17,17,16,17,16,18,16,17,17,17,17,16,17,17,17,17,16,17,17,16,17,17,17,17,17,17,17,17,17,17,17,17,16,17,17,18,16,17,17,17,17,17,17,17,17,17,17,17,17,17,17,17,17,17,17,17,17,17,17,17,17,17,17,16,17,17,16,17,17,17,17,17,16,17,17,17,17,17,17,16,17,17,17,17,16,18,16,17,17,17,17,17,17,17,17,17,16,17,17,17,17,16,17,17,17,17,17,17,17,16,17,17,17,16,17,17,17,17,17,17,17,17,17,16,17,18,16,17,17,17,17,17,17,17,17,16,17,17,16,17,17,17,17,17,16,17,17,17,17,17,17,17,16,17,17,18,16,17,17,17,17,17,16,16,17,17,16,17,16,17,17,16,16,17,17,17,17,17,16,17,17,16,18,16,16,17,17,17,17,17,17,17,16,17,17,17,17,17,17,17,17,17,17,17,15,17,17,16,17,17,17,16,17,16,17,17,16,17,17,16,17,18,16,17,17,17,17,17,17,17,17,17,16,17,17,16,16,17,16,17,17,16,18,16,16,17,17,17,16,16,17,17,16,17,17,17,17,17,17,17,17,16,17,17,17,17,17,17,17,17,17,17,17,16,17,17,17,17,17,17,16,17,17,17,17,17,17,17,16,17,17,17,17,17,17,17,16,17,17,16,17,16,18,15,17,16,17,17,17,16,17,17,16,17,17,17,17,17,17,17,17,17,17,17,16,17,17,17,17,17,17,17,16,17,17,17,17,17,16,17,17,17,16,17,17,16,17,17,16,17,17,17,17,17,17,17,17,18,16,17,17,17,17,17,16,17,17,17,17,16,17,17,17,17,17,17,16,17,17,17,17,16,17,17,16,17,16,17,17,17,16,17,17,17,17,17,16,17,16,17,17,17,17,17,16,17,16,17,17,17,17,17,17,17,17,17,17,16,17,17,17,17,16,17,17,17,17,17,17,17,16,17,16,17,17,17,17,17,17,17,16,17,17,17,17,17,16,17,17,17,17,17,17,16,17,17,17,17,17,17,17,17,16,17,17,17,17,17,17,17,17,17,17,17,17,17,17,17,17,17,17,17,17,16,17,17,16,17,17,17,17,16,17,17,17,17,16,17,17,16,17,17,17,17,16,17,17,16,17,17,17,17,17,17,16,16,17,17,18,16,17,17,17,16,17,17,16,17,17,17,16,17,17,17,17,17,17,17,16,17,17,17,17,16,17,18,16,16,17,17,17,17,16,17,17,17,17,17,16,17,17,16,17,17,16,17,17,17,17,17,17,17,17,17,17,17,17,17,17,17,17,16,17,17,17,17,17,17,17,17,16,18,16,16,17,17,17,16,17,17,17,17,17,17,16,17,16,17,17,17,17,17,17,16,17,17,16,17,17,17,17,17,17,17,17,17,16,17,17,17,17,17,17,17,17,17,16,17,17,17,17,17,17,17,17,17,16,17,16,17,17,17,17,17,17,17,17,16,17,17,17,17,17,16,17,17,16,17,18,16,16,18,16,17,17,17,17,17,17,17,17,17,17,17,16,17,17,16,17,17,17,17,17,17,17,17,16,17,17,16,17,17,17,17,18,16,17,18,16,17,17,17,17,17,17,17,17,16,17,17,16,17,17,16,17,17,16,17,17,17,17,17,16,17,17,17,16,17,17,17,16,17,17,17,17,17,17,16,17,17,17,17,17,17,17,17,16,17,16,16,17,16,17,17,17,17,17,17,17,17,16,17,17,17,17,17,17,17,17,16,17,17,17,17,16,17,17,17,17,17,17,17,16,17,17,16,17,17,17,16,17,17,17,18,16,16,17,16,17,17,17,16,17,17,17,17,16,17,17,17,17,17,16,17,17,16,16,17,17,17,17,18,16,16,17,17,17,16,17,17,16,17,17,17,17,17,17,17,17,15,17,17,17,17,17,17,17,17,17,17,17,17,17,17,17,17,17,16,17,17,17,17,17,17,17,17,17,17,17,16,16,17,17,17,18,16,17,17,16,17,16,17,17,17,16,17,17,17,16,17,16,17,17,16,16,18,16,17,17,16,17,17,17,17,17,17,17,16,17,17,17,16,17,17,17,17,17,16,17,17,17,17,16,17,17,17,16,17,17,17,17,17,16,17,17,17,16,17,16,17,17,17,16,17,17,17,18,16,17,17,16,17,17,16,17,17,16,17,17,17,17,17,17,17,17,17,17,17,16,17,16,17,17,18,17,17,16,18,16,17,17,17,17,17,17,17,17,17,16,17,17,17,17,17,17,17,17,17,16,17,17,17,16,17,16,17,17,16,17,18,16,17,17,16,17,17,16,17,17,17,17,17,17,17,17,16,16,17,17,16,16,17,17]","1687","[300,300,900,900]","[280,280,280,280]","false","20","20","black","1","false","1","1","1200","660","","","","",""
"","","","","","html-keyboard-response","7","6998635","0.0-5.0-1.0-0.0-2.0-0.0-0.0-0.0","11406","instruction_match_practice"," ","
        <div style=""text-align: left; color: white; padding: 10px"">  
          <h3 style=""text-align: center; font-size: 30px; margin: 10px;"">练习阶段</h3>
          <p>整体颜色为 <span style=""color: hsl(0, 50%, 50%)"">红色</span> 代表 <span style=""color: hsl(0, 50%, 50%)"">你自己</span> ，为 <span style=""color: hsl(225, 50%, 50%)"">蓝色</span> 代表 <span style=""color: hsl(225, 50%, 50%)"">生人（即陌生人）</span>。</p >
          <p>您需要在3秒内判断 <span style=""font-weight: bold"">散点图的整体颜色与文字是否匹配</span>，<span style=""color: hsl(135, 50%, 50%);"">匹配</span> 按 <span style=""color: hsl(135, 50%, 50%);"">""F"" 键</span>；<span style=""color: red;"">不匹配</span> 按 <span style=""color: red;"">""J"" 键</span> </p >
          <p>正确率达到 70% 及以上才能进入下一个阶段</p >
          <p>请把左手食指放在 ""F"" 键上，右手食指放在 ""J"" 键上</p >
          <p>请按下空格键开始练习</p >
        </div>","","","","","","","","","","","","","","","","","","","","","","","","","","","","","","","","","","","","","","","","","","","","","","",""
"","","","","","html-keyboard-response","8","7000144","0.0-5.0-1.0-0.0-2.0-0.0-0.0-1.0-0.0","null","fixation","null","<p style='font-size: 48px; color: white'>+</p >","","","","","","","","","","","","","","","","","","","","","","","","","","","","","","","","","","","","","","","","","","","","","","",""
"","","","","","rdk","9","7003835","0.0-5.0-1.0-0.0-2.0-0.0-0.0-1.0-1.0","2673","match_RDK","j","","true","[""f"",""j""]","[""j""]","3000","true","2","[80,20]","1","0","0","0","5","1","-1","3","500","500","hsla(225, 50%, 50%, 70%)","hsla(0, 50%, 50%, 70%)","[""hsla(0, 50%, 50%, 70%)"",""hsla(225, 50%, 50%, 70%)""]","10","9","circle","black","3","2","2","16.78125","[10,16,17,16,17,18,17,17,17,17,17,16,17,16,17,16,17,17,17,17,17,16,17,17,17,17,16,17,17,17,16,17,17,17,17,17,17,17,17,16,17,17,16,17,17,17,17,17,16,17,17,17,16,17,17,16,17,17,17,17,17,17,17,17,17,17,17,17,17,17,17,17,16,16,17,16,17,17,17,17,17,18,16,17,17,16,17,17,17,17,17,17,17,17,16,17,17,17,17,16,18,16,17,17,17,17,17,17,17,17,17,16,17,17,17,16,17,17,17,17,17,17,17,17,17,17,17,17,16,17,17,17,16,17,17,16,17,17,16,17,16,17,17,17,16,17,17,17,17,17,16,17,17,17,17,16,17,17,17,17]","160","600","250","false","20","20","black","1","false","1","1","1200","660","response","j","no","other",""
"","","","","","html-keyboard-response","10","7004859","0.0-5.0-1.0-0.0-2.0-0.0-0.0-1.0-2.0","null","","null","<p style='font-size: 60px; color: green'>正确!</p>","","","","","","","","","","","","","","","","","","","","","","","","","","","","","","","","","","","","","","","","","","","","","","",""
"","","","","","html-keyboard-response","11","7006377","0.0-5.0-1.0-0.0-2.0-0.0-0.0-1.0-0.1","null","fixation","null","<p style='font-size: 48px; color: white'>+</p >","","","","","","","","","","","","","","","","","","","","","","","","","","","","","","","","","","","","","","","","","","","","","","",""
"","","","","","rdk","12","7009663","0.0-5.0-1.0-0.0-2.0-0.0-0.0-1.0-1.1","2249","match_RDK","f","","true","[""f"",""j""]","[""f""]","3000","true","2","[80,20]","1","0","0","0","5","1","-1","3","500","500","hsla(225, 50%, 50%, 70%)","hsla(0, 50%, 50%, 70%)","[""hsla(225, 50%, 50%, 70%)"",""hsla(0, 50%, 50%, 70%)""]","10","9","circle","black","3","2","2","16.85185185185185","[11,17,17,17,17,17,17,17,17,17,17,17,17,17,17,17,17,17,17,17,17,17,17,17,16,17,17,17,16,17,16,16,16,17,17,17,16,17,17,17,17,17,17,17,17,17,17,17,17,17,17,17,17,17,17,17,17,17,17,16,17,17,17,17,17,17,17,17,17,17,17,17,17,17,17,17,17,17,17,17,17,17,17,17,17,17,17,17,17,17,17,17,16,17,17,17,17,16,17,17,16,17,17,16,17,17,17,17,17,16,17,17,17,17,17,17,17,17,17,17,17,16,17,17,17,16,17,17,17,17,17,17,17,17,17]","135","600","250","false","20","20","black","1","false","1","1","1200","660","response","f","yes","other",""
"","","","","","html-keyboard-response","13","7010692","0.0-5.0-1.0-0.0-2.0-0.0-0.0-1.0-2.1","null","","null","<p style='font-size: 60px; color: green'>正确!</p>","","","","","","","","","","","","","","","","","","","","","","","","","","","","","","","","","","","","","","","","","","","","","","",""
"","","","","","html-keyboard-response","14","7012209","0.0-5.0-1.0-0.0-2.0-0.0-0.0-1.0-0.2","null","fixation","null","<p style='font-size: 48px; color: white'>+</p >","","","","","","","","","","","","","","","","","","","","","","","","","","","","","","","","","","","","","","","","","","","","","","",""
"","","","","","rdk","15","7014907","0.0-5.0-1.0-0.0-2.0-0.0-0.0-1.0-1.2","1696","match_RDK","f","","true","[""f"",""j""]","[""f""]","3000","true","2","[80,20]","1","0","0","0","5","1","-1","3","500","500","hsla(225, 50%, 50%, 70%)","hsla(0, 50%, 50%, 70%)","[""hsla(0, 50%, 50%, 70%)"",""hsla(225, 50%, 50%, 70%)""]","10","9","circle","black","3","2","2","16.85148514851485","[11,17,17,17,17,17,17,17,17,17,17,17,17,17,17,17,16,16,17,17,17,17,17,17,17,17,17,17,17,17,17,17,17,17,17,17,17,17,16,16,17,17,17,17,17,17,17,17,17,17,17,17,17,17,17,17,17,16,17,17,17,17,17,17,17,17,17,17,17,17,17,17,16,17,17,16,17,17,17,16,17,17,17,17,16,17,17,17,17,17,17,17,17,17,17,17,17,17,17,17,17]","101","600","250","false","20","20","black","1","false","1","1","1200","660","response","f","yes","self",""
"","","","","","html-keyboard-response","16","7015925","0.0-5.0-1.0-0.0-2.0-0.0-0.0-1.0-2.2","null","","null","<p style='font-size: 60px; color: green'>正确!</p>","","","","","","","","","","","","","","","","","","","","","","","","","","","","","","","","","","","","","","","","","","","","","","",""
"","","","","","html-keyboard-response","17","7017442","0.0-5.0-1.0-0.0-2.0-0.0-0.0-1.0-0.3","null","fixation","null","<p style='font-size: 48px; color: white'>+</p >","","","","","","","","","","","","","","","","","","","","","","","","","","","","","","","","","","","","","","","","","","","","","","",""
"","","","","","rdk","18","7019643","0.0-5.0-1.0-0.0-2.0-0.0-0.0-1.0-1.3","1199","match_RDK","j","","true","[""f"",""j""]","[""j""]","3000","true","2","[20,80]","1","0","0","0","5","1","-1","3","500","500","hsla(225, 50%, 50%, 70%)","hsla(0, 50%, 50%, 70%)","[""hsla(0, 50%, 50%, 70%)"",""hsla(225, 50%, 50%, 70%)""]","10","9","circle","black","3","2","2","16.916666666666668","[12,17,17,17,17,17,17,17,17,17,17,17,17,17,17,17,17,17,17,17,17,17,17,17,16,17,17,17,17,17,17,17,17,17,17,17,17,17,17,17,17,17,17,17,17,17,17,17,17,17,17,17,17,17,17,17,17,17,17,17,17,17,17,17,17,17,17,17,17,17,17,17]","72","600","250","false","20","20","black","1","false","1","1","1200","660","response","j","no","self",""
"","","","","","html-keyboard-response","19","7020659","0.0-5.0-1.0-0.0-2.0-0.0-0.0-1.0-2.3","null","","null","<p style='font-size: 60px; color: green'>正确!</p>","","","","","","","","","","","","","","","","","","","","","","","","","","","","","","","","","","","","","","","","","","","","","","",""
"","","","","","html-keyboard-response","20","7022175","0.0-5.0-1.0-0.0-2.0-0.0-0.0-1.0-0.4","null","fixation","null","<p style='font-size: 48px; color: white'>+</p >","","","","","","","","","","","","","","","","","","","","","","","","","","","","","","","","","","","","","","","","","","","","","","",""
"","","","","","rdk","21","7024714","0.0-5.0-1.0-0.0-2.0-0.0-0.0-1.0-1.4","1521","match_RDK","j","","true","[""f"",""j""]","[""j""]","3000","true","2","[80,20]","1","0","0","0","5","1","-1","3","500","500","hsla(225, 50%, 50%, 70%)","hsla(0, 50%, 50%, 70%)","[""hsla(0, 50%, 50%, 70%)"",""hsla(225, 50%, 50%, 70%)""]","10","9","circle","black","3","2","2","16.835164835164836","[11,17,17,17,17,16,17,17,17,17,16,16,17,17,17,17,17,16,17,17,17,17,17,17,17,17,16,17,17,17,17,17,17,17,17,17,17,17,17,17,17,17,17,17,17,17,17,17,17,17,17,17,17,17,17,17,17,17,16,17,17,17,17,17,16,17,17,17,17,17,17,17,17,17,17,17,17,17,17,17,17,17,17,17,17,17,17,16,17,17,16]","91","600","250","false","20","20","black","1","false","1","1","1200","660","response","j","no","other",""
"","","","","","html-keyboard-response","22","7025742","0.0-5.0-1.0-0.0-2.0-0.0-0.0-1.0-2.4","null","","null","<p style='font-size: 60px; color: green'>正确!</p>","","","","","","","","","","","","","","","","","","","","","","","","","","","","","","","","","","","","","","","","","","","","","","",""
"","","","","","html-keyboard-response","23","7027260","0.0-5.0-1.0-0.0-2.0-0.0-0.0-1.0-0.5","null","fixation","null","<p style='font-size: 48px; color: white'>+</p >","","","","","","","","","","","","","","","","","","","","","","","","","","","","","","","","","","","","","","","","","","","","","","",""
"","","","","","rdk","24","7030843","0.0-5.0-1.0-0.0-2.0-0.0-0.0-1.0-1.5","2577","match_RDK","f","","true","[""f"",""j""]","[""f""]","3000","true","2","[80,20]","1","0","0","0","5","1","-1","3","500","500","hsla(225, 50%, 50%, 70%)","hsla(0, 50%, 50%, 70%)","[""hsla(225, 50%, 50%, 70%)"",""hsla(0, 50%, 50%, 70%)""]","10","9","circle","black","3","2","2","16.73548387096774","[1,13,17,17,17,17,18,17,16,17,17,17,17,17,17,17,17,17,17,17,17,17,17,17,17,17,17,17,17,17,17,17,17,17,17,17,17,17,16,17,16,17,16,18,16,17,17,16,17,17,16,17,17,17,17,17,17,17,16,17,17,17,17,16,17,17,17,16,16,18,16,17,17,17,17,17,17,16,16,17,17,17,17,17,17,16,16,17,17,17,17,17,17,17,17,17,16,17,17,17,16,17,18,16,17,17,17,17,17,16,17,17,17,17,17,17,17,17,17,17,17,17,16,17,17,17,17,17,17,17,16,17,17,17,17,17,17,17,17,16,17,16,17,17,17,17,17,17,17,16,17,17,17,18,16]","155","600","250","false","20","20","black","1","false","1","1","1200","660","response","f","yes","other",""
"","","","","","html-keyboard-response","25","7031858","0.0-5.0-1.0-0.0-2.0-0.0-0.0-1.0-2.5","null","","null","<p style='font-size: 60px; color: green'>正确!</p>","","","","","","","","","","","","","","","","","","","","","","","","","","","","","","","","","","","","","","","","","","","","","","",""
"","","","","","html-keyboard-response","26","7033376","0.0-5.0-1.0-0.0-2.0-0.0-0.0-1.0-0.6","null","fixation","null","<p style='font-size: 48px; color: white'>+</p >","","","","","","","","","","","","","","","","","","","","","","","","","","","","","","","","","","","","","","","","","","","","","","",""
"","","","","","rdk","27","7035898","0.0-5.0-1.0-0.0-2.0-0.0-0.0-1.0-1.6","1519","match_RDK","f","","true","[""f"",""j""]","[""f""]","3000","true","2","[80,20]","1","0","0","0","5","1","-1","3","500","500","hsla(225, 50%, 50%, 70%)","hsla(0, 50%, 50%, 70%)","[""hsla(0, 50%, 50%, 70%)"",""hsla(225, 50%, 50%, 70%)""]","10","9","circle","black","3","2","2","16.75824175824176","[9,16,17,17,17,17,17,17,17,17,17,17,17,16,17,17,17,16,17,17,17,17,17,17,16,17,17,16,17,17,17,17,17,17,17,17,16,17,17,17,17,17,17,17,16,17,17,17,17,17,17,17,17,17,17,16,17,17,17,17,16,17,17,16,17,17,17,16,17,16,17,17,17,17,17,17,17,17,16,17,17,17,17,17,17,16,17,17,17,17,17]","91","600","250","false","20","20","black","1","false","1","1","1200","660","response","f","yes","self",""
"","","","","","html-keyboard-response","28","7036925","0.0-5.0-1.0-0.0-2.0-0.0-0.0-1.0-2.6","null","","null","<p style='font-size: 60px; color: green'>正确!</p>","","","","","","","","","","","","","","","","","","","","","","","","","","","","","","","","","","","","","","","","","","","","","","",""
"","","","","","html-keyboard-response","29","7038443","0.0-5.0-1.0-0.0-2.0-0.0-0.0-1.0-0.7","null","fixation","null","<p style='font-size: 48px; color: white'>+</p >","","","","","","","","","","","","","","","","","","","","","","","","","","","","","","","","","","","","","","","","","","","","","","",""
"","","","","","rdk","30","7040442","0.0-5.0-1.0-0.0-2.0-0.0-0.0-1.0-1.7","996","match_RDK","j","","true","[""f"",""j""]","[""j""]","3000","true","2","[20,80]","1","0","0","0","5","1","-1","3","500","500","hsla(225, 50%, 50%, 70%)","hsla(0, 50%, 50%, 70%)","[""hsla(0, 50%, 50%, 70%)"",""hsla(225, 50%, 50%, 70%)""]","10","9","circle","black","3","2","2","16.816666666666666","[10,17,17,16,17,17,17,17,17,17,16,17,17,17,17,17,17,17,17,17,17,17,17,17,17,17,17,16,17,17,17,17,17,17,17,17,17,17,17,17,17,17,17,17,17,17,17,17,17,17,17,17,17,17,17,17,16,17,17,17]","60","600","250","false","20","20","black","1","false","1","1","1200","660","response","j","no","self",""
"","","","","","html-keyboard-response","31","7041459","0.0-5.0-1.0-0.0-2.0-0.0-0.0-1.0-2.7","null","","null","<p style='font-size: 60px; color: green'>正确!</p>","","","","","","","","","","","","","","","","","","","","","","","","","","","","","","","","","","","","","","","","","","","","","","",""
"","","","","","html-keyboard-response","32","7042977","0.0-5.0-1.0-0.0-2.0-0.0-0.0-1.0-0.8","null","fixation","null","<p style='font-size: 48px; color: white'>+</p >","","","","","","","","","","","","","","","","","","","","","","","","","","","","","","","","","","","","","","","","","","","","","","",""
"","","","","","rdk","33","7045771","0.0-5.0-1.0-0.0-2.0-0.0-0.0-1.0-1.8","1777","match_RDK","j","","true","[""f"",""j""]","[""j""]","3000","true","2","[80,20]","1","0","0","0","5","1","-1","3","500","500","hsla(225, 50%, 50%, 70%)","hsla(0, 50%, 50%, 70%)","[""hsla(0, 50%, 50%, 70%)"",""hsla(225, 50%, 50%, 70%)""]","10","9","circle","black","3","2","2","16.90566037735849","[11,17,17,17,17,17,17,17,17,16,17,17,17,17,17,17,17,16,17,17,17,17,17,17,17,17,17,17,17,17,17,17,17,17,17,17,17,17,17,17,17,17,17,17,17,16,17,17,17,17,17,17,17,17,17,17,17,17,17,17,17,17,17,17,17,17,17,17,17,17,17,17,17,17,17,17,17,17,17,17,17,17,17,17,17,17,17,17,17,17,17,16,17,17,17,17,17,17,17,17,17,17,17,17,17,17]","106","600","250","false","20","20","black","1","false","1","1","1200","660","response","j","no","other",""
"","","","","","html-keyboard-response","34","7046792","0.0-5.0-1.0-0.0-2.0-0.0-0.0-1.0-2.8","null","","null","<p style='font-size: 60px; color: green'>正确!</p>","","","","","","","","","","","","","","","","","","","","","","","","","","","","","","","","","","","","","","","","","","","","","","",""
"","","","","","html-keyboard-response","35","7048310","0.0-5.0-1.0-0.0-2.0-0.0-0.0-1.0-0.9","null","fixation","null","<p style='font-size: 48px; color: white'>+</p >","","","","","","","","","","","","","","","","","","","","","","","","","","","","","","","","","","","","","","","","","","","","","","",""
"","","","","","rdk","36","7051882","0.0-5.0-1.0-0.0-2.0-0.0-0.0-1.0-1.9","2555","match_RDK","f","","true","[""f"",""j""]","[""f""]","3000","true","2","[80,20]","1","0","0","0","5","1","-1","3","500","500","hsla(225, 50%, 50%, 70%)","hsla(0, 50%, 50%, 70%)","[""hsla(0, 50%, 50%, 70%)"",""hsla(225, 50%, 50%, 70%)""]","10","9","circle","black","3","2","2","16.88235294117647","[11,17,17,17,17,17,17,17,17,17,16,16,17,17,17,17,17,17,17,17,17,17,17,17,17,17,17,17,17,17,17,17,17,17,17,17,17,17,17,17,17,17,17,17,17,17,17,17,17,17,17,17,17,17,17,17,17,17,17,17,17,17,17,17,17,17,17,17,16,17,17,17,17,17,17,17,17,16,17,17,17,17,17,17,17,17,17,17,17,17,17,17,17,17,17,16,17,17,17,17,17,17,17,17,17,17,16,17,17,17,17,17,17,17,17,17,17,16,17,17,17,17,17,17,16,17,17,17,17,17,17,16,17,17,17,17,17,17,17,17,17,17,17,17,17,17,16,17,17,16,17,16,17]","153","600","250","false","20","20","black","1","false","1","1","1200","660","response","f","yes","self",""
"","","","","","html-keyboard-response","37","7052909","0.0-5.0-1.0-0.0-2.0-0.0-0.0-1.0-2.9","null","","null","<p style='font-size: 60px; color: green'>正确!</p>","","","","","","","","","","","","","","","","","","","","","","","","","","","","","","","","","","","","","","","","","","","","","","",""
"","","","","","html-keyboard-response","38","7054411","0.0-5.0-1.0-0.0-2.0-0.0-0.0-1.0-0.10","null","fixation","null","<p style='font-size: 48px; color: white'>+</p >","","","","","","","","","","","","","","","","","","","","","","","","","","","","","","","","","","","","","","","","","","","","","","",""
"","","","","","rdk","39","7056507","0.0-5.0-1.0-0.0-2.0-0.0-0.0-1.0-1.10","1079","match_RDK","j","","true","[""f"",""j""]","[""j""]","3000","true","2","[20,80]","1","0","0","0","5","1","-1","3","500","500","hsla(225, 50%, 50%, 70%)","hsla(0, 50%, 50%, 70%)","[""hsla(0, 50%, 50%, 70%)"",""hsla(225, 50%, 50%, 70%)""]","10","9","circle","black","3","2","2","16.8125","[11,17,17,17,17,17,17,17,17,17,17,17,17,17,17,17,17,17,17,17,17,17,17,16,17,17,17,17,17,16,17,16,17,17,17,17,17,17,17,17,17,17,17,17,17,16,17,17,17,17,17,17,17,17,17,17,16,17,17,17,17,17,17,16]","64","600","250","false","20","20","black","1","false","1","1","1200","660","response","j","no","self",""
"","","","","","html-keyboard-response","40","7057526","0.0-5.0-1.0-0.0-2.0-0.0-0.0-1.0-2.10","null","","null","<p style='font-size: 60px; color: green'>正确!</p>","","","","","","","","","","","","","","","","","","","","","","","","","","","","","","","","","","","","","","","","","","","","","","",""
"","","","","","html-keyboard-response","41","7059042","0.0-5.0-1.0-0.0-2.0-0.0-0.0-1.0-0.11","null","fixation","null","<p style='font-size: 48px; color: white'>+</p >","","","","","","","","","","","","","","","","","","","","","","","","","","","","","","","","","","","","","","","","","","","","","","",""
"","","","","","rdk","42","7061498","0.0-5.0-1.0-0.0-2.0-0.0-0.0-1.0-1.11","1454","match_RDK","f","","true","[""f"",""j""]","[""f""]","3000","true","2","[80,20]","1","0","0","0","5","1","-1","3","500","500","hsla(225, 50%, 50%, 70%)","hsla(0, 50%, 50%, 70%)","[""hsla(225, 50%, 50%, 70%)"",""hsla(0, 50%, 50%, 70%)""]","10","9","circle","black","3","2","2","16.850574712643677","[10,17,17,17,17,17,17,17,17,17,17,17,17,17,17,17,17,17,17,17,16,16,17,17,17,17,17,17,17,17,17,17,17,17,17,17,17,17,16,17,17,17,17,17,17,16,17,17,16,17,17,17,17,17,17,17,17,17,17,17,17,17,17,17,17,17,17,17,17,17,17,17,17,17,17,17,17,17,17,17,17,17,16,17,17,17,17]","87","600","250","false","20","20","black","1","false","1","1","1200","660","response","f","yes","other",""
"","","","","","html-keyboard-response","43","7062525","0.0-5.0-1.0-0.0-2.0-0.0-0.0-1.0-2.11","null","","null","<p style='font-size: 60px; color: green'>正确!</p>","","","","","","","","","","","","","","","","","","","","","","","","","","","","","","","","","","","","","","","","","","","","","","",""
"","","","","","html-keyboard-response","44","7064027","0.0-5.0-1.0-0.0-2.0-0.0-0.0-1.0-0.12","null","fixation","null","<p style='font-size: 48px; color: white'>+</p >","","","","","","","","","","","","","","","","","","","","","","","","","","","","","","","","","","","","","","","","","","","","","","",""
"","","","","","rdk","45","7067643","0.0-5.0-1.0-0.0-2.0-0.0-0.0-1.0-1.12","2599","match_RDK","j","","true","[""f"",""j""]","[""j""]","3000","true","2","[80,20]","1","0","0","0","5","1","-1","3","500","500","hsla(225, 50%, 50%, 70%)","hsla(0, 50%, 50%, 70%)","[""hsla(0, 50%, 50%, 70%)"",""hsla(225, 50%, 50%, 70%)""]","10","9","circle","black","3","2","2","16.846153846153847","[11,17,17,17,17,17,17,16,17,17,17,17,17,17,17,17,17,17,17,17,17,16,17,17,17,17,17,17,17,17,17,16,17,17,17,17,17,17,17,17,17,17,17,17,17,17,17,16,17,17,17,17,17,17,17,16,17,17,17,17,17,17,17,17,17,17,17,17,17,17,17,17,17,17,17,17,17,16,17,16,16,16,17,17,17,17,17,17,17,16,17,17,17,17,17,16,17,16,17,17,17,17,17,17,17,17,17,17,17,17,17,16,17,17,17,17,17,17,17,16,17,16,17,17,17,17,17,17,17,17,17,17,17,17,17,17,17,16,17,17,16,16,17,17,17,17,17,17,17,17,17,17,17,17,17,17]","156","600","250","false","20","20","black","1","false","1","1","1200","660","response","j","no","other",""
"","","","","","html-keyboard-response","46","7068658","0.0-5.0-1.0-0.0-2.0-0.0-0.0-1.0-2.12","null","","null","<p style='font-size: 60px; color: green'>正确!</p>","","","","","","","","","","","","","","","","","","","","","","","","","","","","","","","","","","","","","","","","","","","","","","",""
"","","","","","html-keyboard-response","47","7070176","0.0-5.0-1.0-0.0-2.0-0.0-0.0-1.0-0.13","null","fixation","null","<p style='font-size: 48px; color: white'>+</p >","","","","","","","","","","","","","","","","","","","","","","","","","","","","","","","","","","","","","","","","","","","","","","",""
"","","","","","rdk","48","7072682","0.0-5.0-1.0-0.0-2.0-0.0-0.0-1.0-1.13","1504","match_RDK","f","","true","[""f"",""j""]","[""f""]","3000","true","2","[80,20]","1","0","0","0","5","1","-1","3","500","500","hsla(225, 50%, 50%, 70%)","hsla(0, 50%, 50%, 70%)","[""hsla(225, 50%, 50%, 70%)"",""hsla(0, 50%, 50%, 70%)""]","10","9","circle","black","3","2","2","16.8","[9,17,17,17,17,17,17,17,17,17,17,17,17,17,17,17,17,17,17,17,16,17,17,17,17,17,16,17,17,16,17,17,16,17,17,16,17,17,17,17,17,17,17,17,17,17,17,17,17,16,17,17,17,17,17,17,17,17,17,17,16,17,17,16,17,17,17,17,17,16,16,17,17,17,17,17,17,17,17,17,17,17,17,17,17,17,17,17,17,17]","90","600","250","false","20","20","black","1","false","1","1","1200","660","response","f","yes","other",""
"","","","","","html-keyboard-response","49","7073709","0.0-5.0-1.0-0.0-2.0-0.0-0.0-1.0-2.13","null","","null","<p style='font-size: 60px; color: green'>正确!</p>","","","","","","","","","","","","","","","","","","","","","","","","","","","","","","","","","","","","","","","","","","","","","","",""
"","","","","","html-keyboard-response","50","7075226","0.0-5.0-1.0-0.0-2.0-0.0-0.0-1.0-0.14","null","fixation","null","<p style='font-size: 48px; color: white'>+</p >","","","","","","","","","","","","","","","","","","","","","","","","","","","","","","","","","","","","","","","","","","","","","","",""
"","","","","","rdk","51","7078091","0.0-5.0-1.0-0.0-2.0-0.0-0.0-1.0-1.14","1863","match_RDK","f","","true","[""f"",""j""]","[""f""]","3000","true","2","[80,20]","1","0","0","0","5","1","-1","3","500","500","hsla(225, 50%, 50%, 70%)","hsla(0, 50%, 50%, 70%)","[""hsla(0, 50%, 50%, 70%)"",""hsla(225, 50%, 50%, 70%)""]","10","9","circle","black","3","2","2","16.866071428571427","[10,17,17,17,17,17,17,16,17,17,17,17,16,16,17,17,17,17,17,17,17,17,17,17,17,17,17,17,17,17,17,17,17,17,17,17,17,17,17,17,17,17,17,17,17,17,17,17,17,16,17,17,17,17,17,17,17,17,17,17,17,17,17,17,17,17,17,17,16,17,16,17,17,17,17,17,17,17,17,17,17,17,17,17,17,17,17,17,17,17,16,17,17,17,17,17,17,17,17,17,17,17,17,17,17,17,17,17,16,17,17,17]","112","600","250","false","20","20","black","1","false","1","1","1200","660","response","f","yes","self",""
"","","","","","html-keyboard-response","52","7079109","0.0-5.0-1.0-0.0-2.0-0.0-0.0-1.0-2.14","null","","null","<p style='font-size: 60px; color: green'>正确!</p>","","","","","","","","","","","","","","","","","","","","","","","","","","","","","","","","","","","","","","","","","","","","","","",""
"","","","","","html-keyboard-response","53","7080626","0.0-5.0-1.0-0.0-2.0-0.0-0.0-1.0-0.15","null","fixation","null","<p style='font-size: 48px; color: white'>+</p >","","","","","","","","","","","","","","","","","","","","","","","","","","","","","","","","","","","","","","","","","","","","","","",""
"","","","","","rdk","54","7083114","0.0-5.0-1.0-0.0-2.0-0.0-0.0-1.0-1.15","1486","match_RDK","j","","true","[""f"",""j""]","[""j""]","3000","true","2","[20,80]","1","0","0","0","5","1","-1","3","500","500","hsla(225, 50%, 50%, 70%)","hsla(0, 50%, 50%, 70%)","[""hsla(0, 50%, 50%, 70%)"",""hsla(225, 50%, 50%, 70%)""]","10","9","circle","black","3","2","2","16.808988764044944","[12,17,17,17,17,17,17,17,17,17,17,17,16,17,17,17,17,17,17,17,17,17,17,17,16,17,17,17,17,17,17,17,17,17,17,17,17,16,17,17,17,17,17,17,17,16,17,17,17,17,17,17,17,17,17,16,17,17,17,17,17,17,17,16,17,17,16,17,16,16,17,17,17,17,17,17,16,17,17,16,17,17,16,17,17,17,17,17,17]","89","600","250","false","20","20","black","1","false","1","1","1200","660","response","j","no","self",""
"","","","","","html-keyboard-response","55","7084143","0.0-5.0-1.0-0.0-2.0-0.0-0.0-1.0-2.15","null","","null","<p style='font-size: 60px; color: green'>正确!</p>","","","","","","","","","","","","","","","","","","","","","","","","","","","","","","","","","","","","","","","","","","","","","","",""
"","","","","","html-keyboard-response","56","7085660","0.0-5.0-1.0-0.0-2.0-0.0-0.0-1.0-0.16","null","fixation","null","<p style='font-size: 48px; color: white'>+</p >","","","","","","","","","","","","","","","","","","","","","","","","","","","","","","","","","","","","","","","","","","","","","","",""
"","","","","","rdk","57","7088155","0.0-5.0-1.0-0.0-2.0-0.0-0.0-1.0-1.16","1478","match_RDK","j","","true","[""f"",""j""]","[""j""]","3000","true","2","[20,80]","1","0","0","0","5","1","-1","3","500","500","hsla(225, 50%, 50%, 70%)","hsla(0, 50%, 50%, 70%)","[""hsla(0, 50%, 50%, 70%)"",""hsla(225, 50%, 50%, 70%)""]","10","9","circle","black","3","2","2","16.772727272727273","[14,17,16,17,17,17,16,17,17,17,16,17,17,17,17,16,17,17,16,17,17,17,17,17,17,17,16,17,17,17,16,17,17,17,16,17,17,17,17,17,16,17,17,16,17,17,17,17,17,17,17,17,17,17,16,17,17,17,17,17,16,17,16,17,16,17,17,17,17,17,16,17,17,17,16,17,17,17,17,17,17,17,17,17,17,17,16,17]","88","600","250","false","20","20","black","1","false","1","1","1200","660","response","j","no","self",""
"","","","","","html-keyboard-response","58","7089176","0.0-5.0-1.0-0.0-2.0-0.0-0.0-1.0-2.16","null","","null","<p style='font-size: 60px; color: green'>正确!</p>","","","","","","","","","","","","","","","","","","","","","","","","","","","","","","","","","","","","","","","","","","","","","","",""
"","","","","","html-keyboard-response","59","7090692","0.0-5.0-1.0-0.0-2.0-0.0-0.0-1.0-0.17","null","fixation","null","<p style='font-size: 48px; color: white'>+</p >","","","","","","","","","","","","","","","","","","","","","","","","","","","","","","","","","","","","","","","","","","","","","","",""
"","","","","","rdk","60","7092987","0.0-5.0-1.0-0.0-2.0-0.0-0.0-1.0-1.17","1292","match_RDK","f","","true","[""f"",""j""]","[""f""]","3000","true","2","[80,20]","1","0","0","0","5","1","-1","3","500","500","hsla(225, 50%, 50%, 70%)","hsla(0, 50%, 50%, 70%)","[""hsla(0, 50%, 50%, 70%)"",""hsla(225, 50%, 50%, 70%)""]","10","9","circle","black","3","2","2","16.844155844155843","[11,17,17,17,17,17,17,17,17,17,17,17,17,17,17,17,17,17,17,17,17,17,17,16,17,17,17,17,17,17,17,17,17,17,17,17,17,17,17,17,17,17,16,17,17,17,17,17,16,17,17,17,17,17,17,17,17,17,17,17,17,17,17,17,16,16,17,17,17,17,17,17,17,17,16,17,17]","77","600","250","false","20","20","black","1","false","1","1","1200","660","response","f","yes","self",""
"","","","","","html-keyboard-response","61","7093994","0.0-5.0-1.0-0.0-2.0-0.0-0.0-1.0-2.17","null","","null","<p style='font-size: 60px; color: green'>正确!</p>","","","","","","","","","","","","","","","","","","","","","","","","","","","","","","","","","","","","","","","","","","","","","","",""
"","","","","","html-keyboard-response","62","7095510","0.0-5.0-1.0-0.0-2.0-0.0-0.0-1.0-0.18","null","fixation","null","<p style='font-size: 48px; color: white'>+</p >","","","","","","","","","","","","","","","","","","","","","","","","","","","","","","","","","","","","","","","","","","","","","","",""
"","","","","","rdk","63","7098363","0.0-5.0-1.0-0.0-2.0-0.0-0.0-1.0-1.18","1851","match_RDK","j","","true","[""f"",""j""]","[""j""]","3000","true","2","[80,20]","1","0","0","0","5","1","-1","3","500","500","hsla(225, 50%, 50%, 70%)","hsla(0, 50%, 50%, 70%)","[""hsla(0, 50%, 50%, 70%)"",""hsla(225, 50%, 50%, 70%)""]","10","9","circle","black","3","2","2","16.792792792792792","[11,17,17,17,17,16,17,17,17,17,17,17,17,16,17,17,17,17,17,17,16,17,16,17,16,17,17,17,16,17,17,17,16,17,16,17,16,17,16,17,17,17,17,17,17,16,17,17,17,17,17,17,16,17,17,17,16,17,16,17,17,17,17,17,17,17,17,17,17,17,17,17,17,17,17,17,17,17,17,17,17,17,17,17,17,17,17,17,17,16,17,17,17,17,17,16,17,17,17,17,17,17,17,17,17,17,17,17,17,16,17]","111","600","250","false","20","20","black","1","false","1","1","1200","660","response","j","no","other",""
"","","","","","html-keyboard-response","64","7099393","0.0-5.0-1.0-0.0-2.0-0.0-0.0-1.0-2.18","null","","null","<p style='font-size: 60px; color: green'>正确!</p>","","","","","","","","","","","","","","","","","","","","","","","","","","","","","","","","","","","","","","","","","","","","","","",""
"","","","","","html-keyboard-response","65","7100911","0.0-5.0-1.0-0.0-2.0-0.0-0.0-1.0-0.19","null","fixation","null","<p style='font-size: 48px; color: white'>+</p >","","","","","","","","","","","","","","","","","","","","","","","","","","","","","","","","","","","","","","","","","","","","","","",""
"","","","","","rdk","66","7103530","0.0-5.0-1.0-0.0-2.0-0.0-0.0-1.0-1.19","1614","match_RDK","f","","true","[""f"",""j""]","[""f""]","3000","true","2","[80,20]","1","0","0","0","5","1","-1","3","500","500","hsla(225, 50%, 50%, 70%)","hsla(0, 50%, 50%, 70%)","[""hsla(225, 50%, 50%, 70%)"",""hsla(0, 50%, 50%, 70%)""]","10","9","circle","black","3","2","2","16.68041237113402","[6,16,17,17,17,17,17,17,16,17,16,17,17,16,17,17,17,17,17,17,17,16,17,17,17,17,17,17,16,17,17,17,16,17,17,16,17,17,17,16,17,17,17,17,17,17,17,17,16,17,17,16,16,17,17,17,17,17,17,17,17,17,17,17,17,17,17,17,17,17,16,17,17,17,17,17,17,16,17,17,17,16,17,16,17,16,17,17,17,17,17,16,17,17,16,16,17]","97","600","250","false","20","20","black","1","false","1","1","1200","660","response","f","yes","other",""
"","","","","","html-keyboard-response","67","7104559","0.0-5.0-1.0-0.0-2.0-0.0-0.0-1.0-2.19","null","","null","<p style='font-size: 60px; color: green'>正确!</p>","","","","","","","","","","","","","","","","","","","","","","","","","","","","","","","","","","","","","","","","","","","","","","",""
"","","","","","html-keyboard-response","68","7106078","0.0-5.0-1.0-0.0-2.0-0.0-0.0-1.0-0.20","null","fixation","null","<p style='font-size: 48px; color: white'>+</p >","","","","","","","","","","","","","","","","","","","","","","","","","","","","","","","","","","","","","","","","","","","","","","",""
"","","","","","rdk","69","7108555","0.0-5.0-1.0-0.0-2.0-0.0-0.0-1.0-1.20","1461","match_RDK","j","","true","[""f"",""j""]","[""j""]","3000","true","2","[20,80]","1","0","0","0","5","1","-1","3","500","500","hsla(225, 50%, 50%, 70%)","hsla(0, 50%, 50%, 70%)","[""hsla(0, 50%, 50%, 70%)"",""hsla(225, 50%, 50%, 70%)""]","10","9","circle","black","3","2","2","16.850574712643677","[12,17,17,17,17,17,17,17,17,17,16,17,17,17,17,17,16,17,17,17,17,17,17,17,17,17,17,17,17,17,17,17,17,17,17,16,17,17,17,17,17,16,17,17,17,17,17,17,17,16,17,16,17,17,17,17,17,17,17,17,17,17,17,17,17,17,17,17,17,17,17,17,17,17,16,17,16,17,17,17,17,17,17,17,17,17,17]","87","600","250","false","20","20","black","1","false","1","1","1200","660","response","j","no","self",""
"","","","","","html-keyboard-response","70","7109576","0.0-5.0-1.0-0.0-2.0-0.0-0.0-1.0-2.20","null","","null","<p style='font-size: 60px; color: green'>正确!</p>","","","","","","","","","","","","","","","","","","","","","","","","","","","","","","","","","","","","","","","","","","","","","","",""
"","","","","","html-keyboard-response","71","7111080","0.0-5.0-1.0-0.0-2.0-0.0-0.0-1.0-0.21","null","fixation","null","<p style='font-size: 48px; color: white'>+</p >","","","","","","","","","","","","","","","","","","","","","","","","","","","","","","","","","","","","","","","","","","","","","","",""
"","","","","","rdk","72","7114860","0.0-5.0-1.0-0.0-2.0-0.0-0.0-1.0-1.21","2766","match_RDK","j","","true","[""f"",""j""]","[""j""]","3000","true","2","[80,20]","1","0","0","0","5","1","-1","3","500","500","hsla(225, 50%, 50%, 70%)","hsla(0, 50%, 50%, 70%)","[""hsla(0, 50%, 50%, 70%)"",""hsla(225, 50%, 50%, 70%)""]","10","9","circle","black","3","2","2","16.879518072289155","[11,18,16,17,17,17,17,17,17,17,17,16,17,17,17,17,17,17,17,17,17,17,17,17,17,17,17,17,17,17,17,17,17,17,17,17,17,17,17,17,16,16,17,17,17,17,17,17,17,17,17,17,17,17,17,17,17,17,17,17,17,17,17,16,17,17,17,17,17,17,17,17,17,17,16,17,17,16,16,17,17,17,17,17,16,16,17,16,18,16,17,17,17,17,17,17,17,17,17,17,17,17,16,17,17,17,17,17,17,16,16,16,17,17,16,17,17,17,17,17,17,17,17,17,17,17,17,17,17,17,17,17,17,17,18,17,17,17,17,17,17,17,17,17,17,17,17,17,17,17,17,17,17,17,17,16,17,17,17,17,17,17,17,17,17,18]","166","600","250","false","20","20","black","1","false","1","1","1200","660","response","j","no","other",""
"","","","","","html-keyboard-response","73","7115875","0.0-5.0-1.0-0.0-2.0-0.0-0.0-1.0-2.21","null","","null","<p style='font-size: 60px; color: green'>正确!</p>","","","","","","","","","","","","","","","","","","","","","","","","","","","","","","","","","","","","","","","","","","","","","","",""
"","","","","","html-keyboard-response","74","7117394","0.0-5.0-1.0-0.0-2.0-0.0-0.0-1.0-0.22","null","fixation","null","<p style='font-size: 48px; color: white'>+</p >","","","","","","","","","","","","","","","","","","","","","","","","","","","","","","","","","","","","","","","","","","","","","","",""
"","","","","","rdk","75","7120267","0.0-5.0-1.0-0.0-2.0-0.0-0.0-1.0-1.22","1869","match_RDK","f","","true","[""f"",""j""]","[""f""]","3000","true","2","[80,20]","1","0","0","0","5","1","-1","3","500","500","hsla(225, 50%, 50%, 70%)","hsla(0, 50%, 50%, 70%)","[""hsla(225, 50%, 50%, 70%)"",""hsla(0, 50%, 50%, 70%)""]","10","9","circle","black","3","2","2","16.866071428571427","[8,17,17,17,17,17,17,17,17,17,17,17,17,16,17,17,17,17,17,17,17,17,17,17,17,17,17,17,17,17,17,17,16,17,17,17,17,17,17,17,17,17,17,17,17,17,17,17,17,17,17,17,17,17,17,17,17,17,17,17,17,17,17,17,17,17,17,17,17,16,17,17,17,18,16,17,17,17,17,17,17,17,17,17,17,17,17,17,17,16,17,17,17,16,17,17,17,16,17,17,17,17,17,17,17,17,17,17,17,17,17,17]","112","600","250","false","20","20","black","1","false","1","1","1200","660","response","f","yes","other",""
"","","","","","html-keyboard-response","76","7121292","0.0-5.0-1.0-0.0-2.0-0.0-0.0-1.0-2.22","null","","null","<p style='font-size: 60px; color: green'>正确!</p>","","","","","","","","","","","","","","","","","","","","","","","","","","","","","","","","","","","","","","","","","","","","","","",""
"","","","","","html-keyboard-response","77","7122808","0.0-5.0-1.0-0.0-2.0-0.0-0.0-1.0-0.23","null","fixation","null","<p style='font-size: 48px; color: white'>+</p >","","","","","","","","","","","","","","","","","","","","","","","","","","","","","","","","","","","","","","","","","","","","","","",""
"","","","","","rdk","78","7125099","0.0-5.0-1.0-0.0-2.0-0.0-0.0-1.0-1.23","1286","match_RDK","f","","true","[""f"",""j""]","[""f""]","3000","true","2","[80,20]","1","0","0","0","5","1","-1","3","500","500","hsla(225, 50%, 50%, 70%)","hsla(0, 50%, 50%, 70%)","[""hsla(0, 50%, 50%, 70%)"",""hsla(225, 50%, 50%, 70%)""]","10","9","circle","black","3","2","2","16.77922077922078","[10,17,17,17,17,17,17,17,17,17,16,17,17,17,17,17,17,17,17,17,17,17,16,17,17,17,17,17,17,17,17,16,17,17,17,17,17,17,17,17,17,16,17,17,17,17,16,17,17,17,17,17,17,17,17,16,17,16,17,17,17,17,17,17,17,17,16,17,16,17,17,17,17,17,17,16,17]","77","600","250","false","20","20","black","1","false","1","1","1200","660","response","f","yes","self",""
"","","","","","html-keyboard-response","79","7126126","0.0-5.0-1.0-0.0-2.0-0.0-0.0-1.0-2.23","null","","null","<p style='font-size: 60px; color: green'>正确!</p>","","","","","","","","","","","","","","","","","","","","","","","","","","","","","","","","","","","","","","","","","","","","","","",""
"","","","","","html-keyboard-response","80","7133387","0.0-5.0-1.0-0.0-2.0-0.0-0.0-3.0-0.0","6258","instruction_practiceEnd"," ","
    <div style=""text-align: center; color: white; padding: 30px; font-size: 30px"">
      <p>恭喜您完成练习，请按空格键进入正式任务。</p >
      <p> 正式任务仅在 每组 测试结束后提供反馈</p>
    </div>
    ","","","","","","","","","","","","","","","","","","","","","","","","","","","","","","","","","","","","","","","","","","","","","","",""
"","","","","","html-keyboard-response","81","7136107","0.0-5.0-1.0-0.0-3.0-0.0-0.0-0.0","1712","instruction_match_formal"," ","
    <div style=""text-align: center; color: white; padding: 35px; font-size: 35px"">
      <p>请按下空格键开始【正式任务】</p >
    </div>
    ","","","","","","","","","","","","","","","","","","","","","","","","","","","","","","","","","","","","","","","","","","","","","","",""
"","","","","","html-keyboard-response","82","7137626","0.0-5.0-1.0-0.0-3.0-0.0-0.0-1.0-0.0","null","fixation","null","<p style='font-size: 48px; color: white'>+</p >","","","","","","","","","","","","","","","","","","","","","","","","","","","","","","","","","","","","","","","","","","","","","","",""
"","","","","","rdk","83","7140027","0.0-5.0-1.0-0.0-3.0-0.0-0.0-1.0-1.0","1384","match_RDK","f","","true","[""f"",""j""]","[""f""]","3000","true","2","[80,20]","1","0","0","0","5","1","-1","3","500","500","hsla(225, 50%, 50%, 70%)","hsla(0, 50%, 50%, 70%)","[""hsla(0, 50%, 50%, 70%)"",""hsla(225, 50%, 50%, 70%)""]","10","9","circle","black","3","2","2","16.85542168674699","[13,17,17,17,17,17,17,17,17,17,17,17,16,17,17,17,17,17,17,17,17,17,17,17,17,17,17,17,17,17,16,17,17,17,17,16,17,17,17,17,17,17,17,17,17,17,17,17,17,17,17,17,17,17,17,17,17,17,17,17,17,17,17,17,17,17,16,17,17,17,16,17,17,17,16,17,17,17,17,16,17,17,16]","83","600","250","false","20","20","black","1","false","1","1","1200","660","response","f","yes","self",""
"","","","","","html-keyboard-response","84","7141043","0.0-5.0-1.0-0.0-3.0-0.0-0.0-1.0-0.1","null","fixation","null","<p style='font-size: 48px; color: white'>+</p >","","","","","","","","","","","","","","","","","","","","","","","","","","","","","","","","","","","","","","","","","","","","","","",""
"","","","","","rdk","85","7143387","0.0-5.0-1.0-0.0-3.0-0.0-0.0-1.0-1.1","1327","match_RDK","f","","true","[""f"",""j""]","[""f""]","3000","true","2","[80,20]","1","0","0","0","5","1","-1","3","500","500","hsla(225, 50%, 50%, 70%)","hsla(0, 50%, 50%, 70%)","[""hsla(225, 50%, 50%, 70%)"",""hsla(0, 50%, 50%, 70%)""]","10","9","circle","black","3","2","2","16.772151898734176","[13,17,17,17,16,17,17,17,17,17,17,17,17,17,17,17,17,16,17,17,17,17,17,16,17,17,17,17,16,17,17,16,17,16,17,17,16,17,17,16,17,17,16,16,17,17,17,17,17,17,16,17,17,17,17,17,16,17,16,17,17,17,17,17,17,17,17,17,17,17,17,17,17,16,17,17,17,17,17]","79","600","250","false","20","20","black","1","false","1","1","1200","660","response","f","yes","other",""
"","","","","","html-keyboard-response","86","7144409","0.0-5.0-1.0-0.0-3.0-0.0-0.0-1.0-0.2","null","fixation","null","<p style='font-size: 48px; color: white'>+</p >","","","","","","","","","","","","","","","","","","","","","","","","","","","","","","","","","","","","","","","","","","","","","","",""
"","","","","","rdk","87","7146923","0.0-5.0-1.0-0.0-3.0-0.0-0.0-1.0-1.2","1510","match_RDK","j","","true","[""f"",""j""]","[""j""]","3000","true","2","[20,80]","1","0","0","0","5","1","-1","3","500","500","hsla(225, 50%, 50%, 70%)","hsla(0, 50%, 50%, 70%)","[""hsla(0, 50%, 50%, 70%)"",""hsla(225, 50%, 50%, 70%)""]","10","9","circle","black","3","2","2","16.77777777777778","[10,17,17,17,17,17,18,17,17,17,17,16,17,17,17,17,17,17,16,17,17,17,17,17,17,17,16,17,17,17,17,16,17,17,17,17,17,17,17,17,17,16,17,17,17,17,16,17,17,17,17,17,16,17,16,17,17,17,16,17,16,17,17,17,17,17,17,17,17,17,17,17,16,16,17,17,17,17,17,17,17,16,17,17,17,17,16,17,17,17]","90","600","250","false","20","20","black","1","false","1","1","1200","660","response","j","no","self",""
"","","","","","html-keyboard-response","88","7147942","0.0-5.0-1.0-0.0-3.0-0.0-0.0-1.0-0.3","null","fixation","null","<p style='font-size: 48px; color: white'>+</p >","","","","","","","","","","","","","","","","","","","","","","","","","","","","","","","","","","","","","","","","","","","","","","",""
"","","","","","rdk","89","7150634","0.0-5.0-1.0-0.0-3.0-0.0-0.0-1.0-1.3","1674","match_RDK","j","","true","[""f"",""j""]","[""j""]","3000","true","2","[80,20]","1","0","0","0","5","1","-1","3","500","500","hsla(225, 50%, 50%, 70%)","hsla(0, 50%, 50%, 70%)","[""hsla(0, 50%, 50%, 70%)"",""hsla(225, 50%, 50%, 70%)""]","10","9","circle","black","3","2","2","16.86","[12,17,17,17,17,17,17,16,17,17,17,17,17,17,16,17,17,17,17,17,17,17,17,17,17,17,17,17,17,17,17,17,17,17,17,17,17,17,17,17,17,17,15,17,17,17,17,17,17,17,17,17,17,17,17,17,17,17,17,17,17,17,17,17,17,17,17,16,16,17,17,17,17,17,17,17,17,17,17,16,17,16,17,17,17,17,17,17,17,17,17,17,17,17,17,17,16,17,17,17]","100","600","250","false","20","20","black","1","false","1","1","1200","660","response","j","no","other",""
"","","","","","html-keyboard-response","90","7151658","0.0-5.0-1.0-0.0-3.0-0.0-0.0-1.0-0.4","null","fixation","null","<p style='font-size: 48px; color: white'>+</p >","","","","","","","","","","","","","","","","","","","","","","","","","","","","","","","","","","","","","","","","","","","","","","",""
"","","","","","rdk","91","7154331","0.0-5.0-1.0-0.0-3.0-0.0-0.0-1.0-1.4","1670","match_RDK","f","","true","[""f"",""j""]","[""f""]","3000","true","2","[80,20]","1","0","0","0","5","1","-1","3","500","500","hsla(225, 50%, 50%, 70%)","hsla(0, 50%, 50%, 70%)","[""hsla(0, 50%, 50%, 70%)"",""hsla(225, 50%, 50%, 70%)""]","10","9","circle","black","3","2","2","16.87","[11,17,16,17,17,17,17,16,17,17,17,17,17,17,17,17,17,17,17,17,17,17,17,17,17,16,17,17,17,17,17,17,17,17,17,17,17,17,17,16,17,17,17,17,17,17,16,17,17,16,17,16,17,17,17,17,17,17,17,17,17,17,17,17,17,17,17,17,17,17,17,17,17,17,17,17,17,17,17,17,17,17,17,17,17,17,17,17,17,17,17,17,17,17,17,17,17,17,17,17]","100","600","250","false","20","20","black","1","false","1","1","1200","660","response","f","yes","self",""
"","","","","","html-keyboard-response","92","7155359","0.0-5.0-1.0-0.0-3.0-0.0-0.0-1.0-0.5","null","fixation","null","<p style='font-size: 48px; color: white'>+</p >","","","","","","","","","","","","","","","","","","","","","","","","","","","","","","","","","","","","","","","","","","","","","","",""
"","","","","","rdk","93","7157562","0.0-5.0-1.0-0.0-3.0-0.0-0.0-1.0-1.5","1200","match_RDK","f","","true","[""f"",""j""]","[""f""]","3000","true","2","[80,20]","1","0","0","0","5","1","-1","3","500","500","hsla(225, 50%, 50%, 70%)","hsla(0, 50%, 50%, 70%)","[""hsla(225, 50%, 50%, 70%)"",""hsla(0, 50%, 50%, 70%)""]","10","9","circle","black","3","2","2","16.65277777777778","[9,18,16,16,18,16,17,18,17,16,17,17,16,17,16,17,17,16,17,17,16,17,17,17,16,17,16,17,16,17,16,17,17,17,16,17,17,17,17,17,17,16,17,17,17,17,17,17,16,17,17,16,17,17,17,17,17,17,17,17,17,16,17,17,17,17,16,17,17,16,16,17]","72","600","250","false","20","20","black","1","false","1","1","1200","660","response","f","yes","other",""
"","","","","","html-keyboard-response","94","7158593","0.0-5.0-1.0-0.0-3.0-0.0-0.0-1.0-0.6","null","fixation","null","<p style='font-size: 48px; color: white'>+</p >","","","","","","","","","","","","","","","","","","","","","","","","","","","","","","","","","","","","","","","","","","","","","","",""
"","","","","","rdk","95","7160938","0.0-5.0-1.0-0.0-3.0-0.0-0.0-1.0-1.6","1343","match_RDK","j","","true","[""f"",""j""]","[""j""]","3000","true","2","[80,20]","1","0","0","0","5","1","-1","3","500","500","hsla(225, 50%, 50%, 70%)","hsla(0, 50%, 50%, 70%)","[""hsla(0, 50%, 50%, 70%)"",""hsla(225, 50%, 50%, 70%)""]","10","9","circle","black","3","2","2","16.7625","[10,17,17,17,17,17,17,17,17,17,17,16,17,17,17,17,17,16,17,17,17,17,17,16,17,17,17,16,17,17,17,17,17,16,17,16,17,17,17,16,17,17,17,17,17,17,17,17,17,17,17,17,17,17,17,17,16,16,17,17,17,17,17,17,17,16,17,17,17,17,16,17,17,17,17,16,17,17,17,17]","80","600","250","false","20","20","black","1","false","1","1","1200","660","response","j","no","other",""
"","","","","","html-keyboard-response","96","7161959","0.0-5.0-1.0-0.0-3.0-0.0-0.0-1.0-0.7","null","fixation","null","<p style='font-size: 48px; color: white'>+</p >","","","","","","","","","","","","","","","","","","","","","","","","","","","","","","","","","","","","","","","","","","","","","","",""
"","","","","","rdk","97","7164266","0.0-5.0-1.0-0.0-3.0-0.0-0.0-1.0-1.7","1305","match_RDK","j","","true","[""f"",""j""]","[""j""]","3000","true","2","[20,80]","1","0","0","0","5","1","-1","3","500","500","hsla(225, 50%, 50%, 70%)","hsla(0, 50%, 50%, 70%)","[""hsla(0, 50%, 50%, 70%)"",""hsla(225, 50%, 50%, 70%)""]","10","9","circle","black","3","2","2","16.743589743589745","[10,18,16,17,17,17,17,16,17,17,16,17,17,17,17,17,17,17,17,17,17,17,17,17,17,16,17,17,17,17,17,17,16,16,17,16,17,16,17,17,17,17,16,17,17,17,17,17,17,17,17,16,17,17,17,17,17,17,16,16,17,17,17,17,16,17,17,17,17,16,17,17,17,17,17,17,17,17]","78","600","250","false","20","20","black","1","false","1","1","1200","660","response","j","no","self",""
"","","","","","html-keyboard-response","98","7165293","0.0-5.0-1.0-0.0-3.0-0.0-0.0-1.0-0.8","null","fixation","null","<p style='font-size: 48px; color: white'>+</p >","","","","","","","","","","","","","","","","","","","","","","","","","","","","","","","","","","","","","","","","","","","","","","",""
"","","","","","rdk","99","7167627","0.0-5.0-1.0-0.0-3.0-0.0-0.0-1.0-1.8","1317","match_RDK","f","","true","[""f"",""j""]","[""f""]","3000","true","2","[80,20]","1","0","0","0","5","1","-1","3","500","500","hsla(225, 50%, 50%, 70%)","hsla(0, 50%, 50%, 70%)","[""hsla(0, 50%, 50%, 70%)"",""hsla(225, 50%, 50%, 70%)""]","10","9","circle","black","3","2","2","16.88607594936709","[11,17,17,17,17,17,17,16,17,17,17,17,17,17,17,17,17,17,17,17,17,17,17,17,17,17,17,17,17,17,17,17,17,17,17,17,17,17,17,17,17,17,17,17,17,17,17,17,17,17,17,17,16,17,17,17,17,17,16,17,17,17,17,17,17,17,17,17,17,17,17,17,17,17,17,17,17,17,17]","79","600","250","false","20","20","black","1","false","1","1","1200","660","response","f","yes","self",""
"","","","","","html-keyboard-response","100","7168642","0.0-5.0-1.0-0.0-3.0-0.0-0.0-1.0-0.9","null","fixation","null","<p style='font-size: 48px; color: white'>+</p >","","","","","","","","","","","","","","","","","","","","","","","","","","","","","","","","","","","","","","","","","","","","","","",""
"","","","","","rdk","101","7172331","0.0-5.0-1.0-0.0-3.0-0.0-0.0-1.0-1.9","2686","match_RDK","f","","true","[""f"",""j""]","[""f""]","3000","true","2","[80,20]","1","0","0","0","5","1","-1","3","500","500","hsla(225, 50%, 50%, 70%)","hsla(0, 50%, 50%, 70%)","[""hsla(225, 50%, 50%, 70%)"",""hsla(0, 50%, 50%, 70%)""]","10","9","circle","black","3","2","2","16.950310559006212","[10,17,17,17,17,17,17,17,17,17,17,17,17,17,17,17,17,17,17,17,17,17,17,17,17,17,17,17,17,17,17,17,17,17,17,17,17,17,17,17,17,17,17,17,17,17,17,17,17,17,17,17,17,17,17,17,17,17,17,17,17,17,17,17,17,17,17,17,17,17,17,17,17,17,17,17,17,17,17,17,17,17,17,17,17,17,17,17,17,17,17,17,17,17,17,17,17,17,17,17,17,17,17,17,17,17,17,17,17,17,17,17,17,16,17,17,17,17,17,17,17,17,17,17,17,17,17,17,17,17,17,17,17,17,17,17,17,17,17,17,17,17,17,17,17,17,17,17,17,17,17,17,17,17,17,17,17,17,17,17,17]","161","600","250","false","20","20","black","1","false","1","1","1200","660","response","f","yes","other",""
"","","","","","html-keyboard-response","102","7173359","0.0-5.0-1.0-0.0-3.0-0.0-0.0-1.0-0.10","null","fixation","null","<p style='font-size: 48px; color: white'>+</p >","","","","","","","","","","","","","","","","","","","","","","","","","","","","","","","","","","","","","","","","","","","","","","",""
"","","","","","rdk","103","7175643","0.0-5.0-1.0-0.0-3.0-0.0-0.0-1.0-1.10","1267","match_RDK","j","","true","[""f"",""j""]","[""j""]","3000","true","2","[20,80]","1","0","0","0","5","1","-1","3","500","500","hsla(225, 50%, 50%, 70%)","hsla(0, 50%, 50%, 70%)","[""hsla(0, 50%, 50%, 70%)"",""hsla(225, 50%, 50%, 70%)""]","10","9","circle","black","3","2","2","16.88157894736842","[13,17,17,17,17,17,17,17,17,17,17,17,17,17,17,17,17,17,17,17,17,17,17,17,17,17,17,17,17,17,17,16,17,17,17,17,17,17,17,17,17,17,17,17,16,17,17,17,17,17,17,17,17,17,17,17,16,17,17,17,17,17,17,16,17,17,17,17,17,17,17,16,17,17,17,17]","76","600","250","false","20","20","black","1","false","1","1","1200","660","response","j","no","self",""
"","","","","","html-keyboard-response","104","7176659","0.0-5.0-1.0-0.0-3.0-0.0-0.0-1.0-0.11","null","fixation","null","<p style='font-size: 48px; color: white'>+</p >","","","","","","","","","","","","","","","","","","","","","","","","","","","","","","","","","","","","","","","","","","","","","","",""
"","","","","","rdk","105","7179098","0.0-5.0-1.0-0.0-3.0-0.0-0.0-1.0-1.11","1436","match_RDK","j","","true","[""f"",""j""]","[""j""]","3000","true","2","[80,20]","1","0","0","0","5","1","-1","3","500","500","hsla(225, 50%, 50%, 70%)","hsla(0, 50%, 50%, 70%)","[""hsla(0, 50%, 50%, 70%)"",""hsla(225, 50%, 50%, 70%)""]","10","9","circle","black","3","2","2","16.825581395348838","[10,17,17,17,17,17,17,17,17,17,16,17,17,17,17,17,17,17,16,17,17,17,17,17,17,17,17,17,17,17,17,17,17,17,17,17,17,17,17,17,17,17,16,17,16,17,17,17,17,17,16,17,17,17,17,17,17,17,17,16,17,17,17,17,17,17,17,17,17,17,17,17,17,17,17,16,17,16,17,17,17,17,17,17,17,17]","86","600","250","false","20","20","black","1","false","1","1","1200","660","response","j","no","other",""
"","","","","","html-keyboard-response","106","7180126","0.0-5.0-1.0-0.0-3.0-0.0-0.0-1.0-0.12","null","fixation","null","<p style='font-size: 48px; color: white'>+</p >","","","","","","","","","","","","","","","","","","","","","","","","","","","","","","","","","","","","","","","","","","","","","","",""
"","","","","","rdk","107","7184076","0.0-5.0-1.0-0.0-3.0-0.0-0.0-1.0-1.12","2949","match_RDK","j","","true","[""f"",""j""]","[""j""]","3000","true","2","[80,20]","1","0","0","0","5","1","-1","3","500","500","hsla(225, 50%, 50%, 70%)","hsla(0, 50%, 50%, 70%)","[""hsla(0, 50%, 50%, 70%)"",""hsla(225, 50%, 50%, 70%)""]","10","9","circle","black","3","2","2","16.89265536723164","[12,16,17,17,17,17,17,17,17,17,17,17,17,17,17,17,17,17,16,17,17,17,17,17,17,17,17,17,17,17,17,17,17,17,17,17,17,17,17,17,17,17,16,17,17,17,17,17,17,17,17,17,16,17,17,17,17,17,17,17,17,17,17,17,17,17,17,17,17,17,17,17,17,17,16,16,17,17,17,17,17,17,17,17,17,17,17,16,17,17,17,17,17,17,17,17,17,17,17,17,16,16,17,17,17,17,17,16,17,17,17,17,17,17,17,17,17,17,16,17,17,17,17,17,17,17,17,17,17,17,17,17,17,17,17,17,16,17,16,17,17,17,17,16,16,17,17,17,17,17,17,17,17,17,17,17,17,17,17,17,17,17,17,17,17,17,17,17,17,17,17,17,17,17,17,17,18]","177","600","250","false","20","20","black","1","false","1","1","1200","660","response","j","no","other",""
"","","","","","html-keyboard-response","108","7185092","0.0-5.0-1.0-0.0-3.0-0.0-0.0-1.0-0.13","null","fixation","null","<p style='font-size: 48px; color: white'>+</p >","","","","","","","","","","","","","","","","","","","","","","","","","","","","","","","","","","","","","","","","","","","","","","",""
"","","","","","rdk","109","7187579","0.0-5.0-1.0-0.0-3.0-0.0-0.0-1.0-1.13","1483","match_RDK","j","","true","[""f"",""j""]","[""j""]","3000","true","2","[20,80]","1","0","0","0","5","1","-1","3","500","500","hsla(225, 50%, 50%, 70%)","hsla(0, 50%, 50%, 70%)","[""hsla(0, 50%, 50%, 70%)"",""hsla(225, 50%, 50%, 70%)""]","10","9","circle","black","3","2","2","16.876404494382022","[10,16,17,17,18,17,17,17,17,17,17,17,17,17,17,17,17,17,17,17,17,17,17,17,17,17,17,17,17,16,17,16,17,17,17,17,17,17,17,17,17,17,17,17,17,17,17,17,17,17,17,17,17,17,17,17,17,17,17,17,17,17,17,17,17,17,16,17,17,17,17,17,17,17,17,17,17,17,17,17,16,17,17,17,17,17,17,17,17]","89","600","250","false","20","20","black","1","false","1","1","1200","660","response","j","no","self",""
"","","","","","html-keyboard-response","110","7188610","0.0-5.0-1.0-0.0-3.0-0.0-0.0-1.0-0.14","null","fixation","null","<p style='font-size: 48px; color: white'>+</p >","","","","","","","","","","","","","","","","","","","","","","","","","","","","","","","","","","","","","","","","","","","","","","",""
"","","","","","rdk","111","7191339","0.0-5.0-1.0-0.0-3.0-0.0-0.0-1.0-1.14","1726","match_RDK","f","","true","[""f"",""j""]","[""f""]","3000","true","2","[80,20]","1","0","0","0","5","1","-1","3","500","500","hsla(225, 50%, 50%, 70%)","hsla(0, 50%, 50%, 70%)","[""hsla(225, 50%, 50%, 70%)"",""hsla(0, 50%, 50%, 70%)""]","10","9","circle","black","3","2","2","16.902912621359224","[9,17,17,17,17,17,17,17,17,17,17,17,17,17,17,17,17,17,17,17,17,17,17,17,17,17,17,17,17,17,17,17,17,17,17,17,17,17,17,17,17,17,17,17,17,17,17,17,17,16,16,17,17,17,17,17,17,17,17,17,17,17,17,17,17,17,17,17,17,17,17,17,17,17,17,17,17,17,17,17,17,17,17,17,17,17,17,17,17,17,17,17,17,17,17,17,17,17,17,17,17,17,17]","103","600","250","false","20","20","black","1","false","1","1","1200","660","response","f","yes","other",""
"","","","","","html-keyboard-response","112","7192359","0.0-5.0-1.0-0.0-3.0-0.0-0.0-1.0-0.15","null","fixation","null","<p style='font-size: 48px; color: white'>+</p >","","","","","","","","","","","","","","","","","","","","","","","","","","","","","","","","","","","","","","","","","","","","","","",""
"","","","","","rdk","113","7195051","0.0-5.0-1.0-0.0-3.0-0.0-0.0-1.0-1.15","1689","match_RDK","f","","true","[""f"",""j""]","[""f""]","3000","true","2","[80,20]","1","0","0","0","5","1","-1","3","500","500","hsla(225, 50%, 50%, 70%)","hsla(0, 50%, 50%, 70%)","[""hsla(0, 50%, 50%, 70%)"",""hsla(225, 50%, 50%, 70%)""]","10","9","circle","black","3","2","2","16.712871287128714","[10,17,17,17,16,17,17,17,17,17,15,17,17,17,17,17,17,17,17,17,16,17,17,17,16,17,17,17,16,17,17,16,17,16,17,17,17,16,17,17,16,17,17,17,17,17,17,16,17,17,17,16,17,17,16,17,17,17,17,17,16,17,17,17,16,17,17,16,17,17,16,17,17,17,16,17,17,16,17,17,16,17,17,17,17,17,17,16,16,17,17,17,17,17,17,17,17,17,17,17,17]","101","600","250","false","20","20","black","1","false","1","1","1200","660","response","f","yes","self",""
"","","","","","html-keyboard-response","114","7196076","0.0-5.0-1.0-0.0-3.0-0.0-0.0-1.0-0.16","null","fixation","null","<p style='font-size: 48px; color: white'>+</p >","","","","","","","","","","","","","","","","","","","","","","","","","","","","","","","","","","","","","","","","","","","","","","",""
"","","","","","rdk","115","7198218","0.0-5.0-1.0-0.0-3.0-0.0-0.0-1.0-1.16","1125","match_RDK","f","","true","[""f"",""j""]","[""f""]","3000","true","2","[80,20]","1","0","0","0","5","1","-1","3","500","500","hsla(225, 50%, 50%, 70%)","hsla(0, 50%, 50%, 70%)","[""hsla(225, 50%, 50%, 70%)"",""hsla(0, 50%, 50%, 70%)""]","10","9","circle","black","3","2","2","16.850746268656717","[12,17,17,17,17,16,17,17,17,17,17,17,17,17,16,17,17,16,17,17,16,16,17,17,17,17,17,17,17,17,17,17,17,17,17,17,17,17,17,17,17,17,17,17,17,17,17,17,17,17,17,17,17,17,17,17,17,17,17,17,17,17,17,17,17,17,17]","67","600","250","false","20","20","black","1","false","1","1","1200","660","response","f","yes","other",""
"","","","","","html-keyboard-response","116","7199242","0.0-5.0-1.0-0.0-3.0-0.0-0.0-1.0-0.17","null","fixation","null","<p style='font-size: 48px; color: white'>+</p >","","","","","","","","","","","","","","","","","","","","","","","","","","","","","","","","","","","","","","","","","","","","","","",""
"","","","","","rdk","117","7201692","0.0-5.0-1.0-0.0-3.0-0.0-0.0-1.0-1.17","1444","match_RDK","f","","true","[""f"",""j""]","[""f""]","3000","true","2","[80,20]","1","0","0","0","5","1","-1","3","500","500","hsla(225, 50%, 50%, 70%)","hsla(0, 50%, 50%, 70%)","[""hsla(0, 50%, 50%, 70%)"",""hsla(225, 50%, 50%, 70%)""]","10","9","circle","black","3","2","2","16.67816091954023","[8,18,17,17,17,16,17,17,17,17,17,17,17,16,16,17,17,17,18,16,17,17,16,17,17,17,17,17,17,17,16,17,17,17,17,16,17,16,17,17,16,17,17,17,16,17,16,17,16,17,17,16,16,17,17,16,17,17,17,16,17,16,17,17,17,17,17,17,17,17,17,16,17,17,17,17,17,16,17,17,16,17,17,17,16,17,17]","87","600","250","false","20","20","black","1","false","1","1","1200","660","response","f","yes","self",""
"","","","","","html-keyboard-response","118","7202709","0.0-5.0-1.0-0.0-3.0-0.0-0.0-1.0-0.18","null","fixation","null","<p style='font-size: 48px; color: white'>+</p >","","","","","","","","","","","","","","","","","","","","","","","","","","","","","","","","","","","","","","","","","","","","","","",""
"","","","","","rdk","119","7204810","0.0-5.0-1.0-0.0-3.0-0.0-0.0-1.0-1.18","1099","match_RDK","j","","true","[""f"",""j""]","[""j""]","3000","true","2","[20,80]","1","0","0","0","5","1","-1","3","500","500","hsla(225, 50%, 50%, 70%)","hsla(0, 50%, 50%, 70%)","[""hsla(0, 50%, 50%, 70%)"",""hsla(225, 50%, 50%, 70%)""]","10","9","circle","black","3","2","2","16.803030303030305","[10,17,17,17,17,17,17,17,17,17,17,17,16,17,17,17,17,17,17,17,17,17,17,17,17,17,17,17,17,17,17,17,16,16,17,17,17,17,17,17,17,17,17,17,16,17,17,17,16,17,17,17,17,17,17,17,17,17,17,17,17,17,17,17,17,16]","66","600","250","false","20","20","black","1","false","1","1","1200","660","response","j","no","self",""
"","","","","","html-keyboard-response","120","7205826","0.0-5.0-1.0-0.0-3.0-0.0-0.0-1.0-0.19","null","fixation","null","<p style='font-size: 48px; color: white'>+</p >","","","","","","","","","","","","","","","","","","","","","","","","","","","","","","","","","","","","","","","","","","","","","","",""
"","","","","","rdk","121","7208714","0.0-5.0-1.0-0.0-3.0-0.0-0.0-1.0-1.19","1879","match_RDK","j","","true","[""f"",""j""]","[""j""]","3000","true","2","[80,20]","1","0","0","0","5","1","-1","3","500","500","hsla(225, 50%, 50%, 70%)","hsla(0, 50%, 50%, 70%)","[""hsla(0, 50%, 50%, 70%)"",""hsla(225, 50%, 50%, 70%)""]","10","9","circle","black","3","2","2","16.831858407079647","[4,17,17,17,17,17,17,17,17,17,17,17,17,17,17,17,17,17,17,17,17,17,17,18,16,17,17,17,17,17,17,17,17,17,17,17,16,17,17,17,17,17,17,17,17,17,17,17,17,17,16,17,17,17,17,17,17,17,16,17,17,17,17,17,17,17,17,16,17,17,17,17,16,17,17,17,17,17,17,17,17,17,17,17,17,17,17,17,17,17,17,17,17,17,17,17,17,17,16,17,17,17,17,17,17,17,17,17,17,17,17,17,17]","113","600","250","false","20","20","black","1","false","1","1","1200","660","response","j","no","other",""
"","","","","","html-keyboard-response","122","7209741","0.0-5.0-1.0-0.0-3.0-0.0-0.0-1.0-0.20","null","fixation","null","<p style='font-size: 48px; color: white'>+</p >","","","","","","","","","","","","","","","","","","","","","","","","","","","","","","","","","","","","","","","","","","","","","","",""
"","","","","","rdk","123","7211898","0.0-5.0-1.0-0.0-3.0-0.0-0.0-1.0-1.20","1153","match_RDK","j","","true","[""f"",""j""]","[""j""]","3000","true","2","[20,80]","1","0","0","0","5","1","-1","3","500","500","hsla(225, 50%, 50%, 70%)","hsla(0, 50%, 50%, 70%)","[""hsla(0, 50%, 50%, 70%)"",""hsla(225, 50%, 50%, 70%)""]","10","9","circle","black","3","2","2","16.71014492753623","[10,17,16,17,17,17,17,17,16,17,17,17,16,17,17,17,17,17,17,17,17,16,17,17,16,17,17,17,16,17,17,17,17,17,17,17,17,17,16,17,16,16,16,17,17,17,17,17,17,17,16,17,17,17,17,17,17,17,17,17,17,17,16,17,16,17,17,17,17]","69","600","250","false","20","20","black","1","false","1","1","1200","660","response","j","no","self",""
"","","","","","html-keyboard-response","124","7212925","0.0-5.0-1.0-0.0-3.0-0.0-0.0-1.0-0.21","null","fixation","null","<p style='font-size: 48px; color: white'>+</p >","","","","","","","","","","","","","","","","","","","","","","","","","","","","","","","","","","","","","","","","","","","","","","",""
"","","","","","rdk","125","7215292","0.0-5.0-1.0-0.0-3.0-0.0-0.0-1.0-1.21","1364","match_RDK","f","","true","[""f"",""j""]","[""f""]","3000","true","2","[80,20]","1","0","0","0","5","1","-1","3","500","500","hsla(225, 50%, 50%, 70%)","hsla(0, 50%, 50%, 70%)","[""hsla(225, 50%, 50%, 70%)"",""hsla(0, 50%, 50%, 70%)""]","10","9","circle","black","3","2","2","16.74390243902439","[10,17,17,17,17,17,17,17,17,17,16,17,17,17,17,17,17,17,17,17,17,16,17,17,16,17,16,17,17,17,17,17,16,17,17,17,17,17,17,17,16,17,16,17,16,17,17,17,17,16,17,16,17,17,17,17,16,17,17,17,17,17,17,17,17,16,17,17,17,17,17,17,17,17,17,17,17,16,17,17,16,17]","82","600","250","false","20","20","black","1","false","1","1","1200","660","response","f","yes","other",""
"","","","","","html-keyboard-response","126","7216309","0.0-5.0-1.0-0.0-3.0-0.0-0.0-1.0-0.22","null","fixation","null","<p style='font-size: 48px; color: white'>+</p >","","","","","","","","","","","","","","","","","","","","","","","","","","","","","","","","","","","","","","","","","","","","","","",""
"","","","","","rdk","127","7218586","0.0-5.0-1.0-0.0-3.0-0.0-0.0-1.0-1.22","1276","match_RDK","f","","true","[""f"",""j""]","[""f""]","3000","true","2","[80,20]","1","0","0","0","5","1","-1","3","500","500","hsla(225, 50%, 50%, 70%)","hsla(0, 50%, 50%, 70%)","[""hsla(0, 50%, 50%, 70%)"",""hsla(225, 50%, 50%, 70%)""]","10","9","circle","black","3","2","2","16.855263157894736","[12,17,17,16,17,17,17,17,17,17,17,17,17,17,17,17,16,17,17,17,17,17,17,17,17,17,16,17,16,17,17,16,17,17,17,17,17,17,17,17,17,17,17,17,17,17,17,16,17,17,17,17,17,17,17,17,17,17,17,17,17,17,17,17,17,17,17,17,17,17,17,17,17,17,17,17]","76","600","250","false","20","20","black","1","false","1","1","1200","660","response","f","yes","self",""
"","","","","","html-keyboard-response","128","7219609","0.0-5.0-1.0-0.0-3.0-0.0-0.0-1.0-0.23","null","fixation","null","<p style='font-size: 48px; color: white'>+</p >","","","","","","","","","","","","","","","","","","","","","","","","","","","","","","","","","","","","","","","","","","","","","","",""
"","","","","","rdk","129","7221627","0.0-5.0-1.0-0.0-3.0-0.0-0.0-1.0-1.23","1015","match_RDK","j","","true","[""f"",""j""]","[""j""]","3000","true","2","[80,20]","1","0","0","0","5","1","-1","3","500","500","hsla(225, 50%, 50%, 70%)","hsla(0, 50%, 50%, 70%)","[""hsla(0, 50%, 50%, 70%)"",""hsla(225, 50%, 50%, 70%)""]","10","9","circle","black","3","2","2","16.704918032786885","[10,17,17,17,17,17,17,17,17,17,17,17,17,17,17,16,17,17,15,17,17,17,17,17,17,17,17,17,17,17,17,17,17,17,17,16,17,17,17,17,16,16,17,17,17,17,17,16,16,17,16,17,17,17,17,17,16,16,17,17,17]","61","600","250","false","20","20","black","1","false","1","1","1200","660","response","j","no","other",""
"","","","","","html-keyboard-response","130","7222642","0.0-5.0-1.0-0.0-3.0-0.0-0.0-1.0-0.24","null","fixation","null","<p style='font-size: 48px; color: white'>+</p >","","","","","","","","","","","","","","","","","","","","","","","","","","","","","","","","","","","","","","","","","","","","","","",""
"","","","","","rdk","131","7224971","0.0-5.0-1.0-0.0-3.0-0.0-0.0-1.0-1.24","1327","match_RDK","f","","true","[""f"",""j""]","[""f""]","3000","true","2","[80,20]","1","0","0","0","5","1","-1","3","500","500","hsla(225, 50%, 50%, 70%)","hsla(0, 50%, 50%, 70%)","[""hsla(225, 50%, 50%, 70%)"",""hsla(0, 50%, 50%, 70%)""]","10","9","circle","black","3","2","2","16.72151898734177","[12,17,17,17,17,17,17,17,17,17,17,17,17,16,17,17,16,17,16,17,17,16,17,17,17,17,16,17,17,17,16,17,17,17,17,17,17,16,17,16,17,17,17,17,17,17,16,17,16,17,17,17,17,17,16,17,17,16,17,17,17,17,16,17,17,17,17,16,17,16,17,17,16,17,17,17,17,16,17]","79","600","250","false","20","20","black","1","false","1","1","1200","660","response","f","yes","other",""
"","","","","","html-keyboard-response","132","7225992","0.0-5.0-1.0-0.0-3.0-0.0-0.0-1.0-0.25","null","fixation","null","<p style='font-size: 48px; color: white'>+</p >","","","","","","","","","","","","","","","","","","","","","","","","","","","","","","","","","","","","","","","","","","","","","","",""
"","","","","","rdk","133","7228298","0.0-5.0-1.0-0.0-3.0-0.0-0.0-1.0-1.25","1304","match_RDK","j","","true","[""f"",""j""]","[""j""]","3000","true","2","[20,80]","1","0","0","0","5","1","-1","3","500","500","hsla(225, 50%, 50%, 70%)","hsla(0, 50%, 50%, 70%)","[""hsla(0, 50%, 50%, 70%)"",""hsla(225, 50%, 50%, 70%)""]","10","9","circle","black","3","2","2","16.743589743589745","[11,16,17,17,17,17,17,17,17,17,17,17,17,17,17,17,16,16,17,17,17,17,18,16,17,17,17,17,17,16,17,17,16,17,16,17,16,17,17,17,17,16,17,17,17,16,17,17,17,16,17,17,17,17,17,17,17,16,17,17,17,16,17,17,16,17,17,17,17,17,17,17,17,17,17,16,17,17]","78","600","250","false","20","20","black","1","false","1","1","1200","660","response","j","no","self",""
"","","","","","html-keyboard-response","134","7229326","0.0-5.0-1.0-0.0-3.0-0.0-0.0-1.0-0.26","null","fixation","null","<p style='font-size: 48px; color: white'>+</p >","","","","","","","","","","","","","","","","","","","","","","","","","","","","","","","","","","","","","","","","","","","","","","",""
"","","","","","rdk","135","7231659","0.0-5.0-1.0-0.0-3.0-0.0-0.0-1.0-1.26","1331","match_RDK","f","","false","[""f"",""j""]","[""j""]","3000","true","2","[80,20]","1","0","0","0","5","1","-1","3","500","500","hsla(225, 50%, 50%, 70%)","hsla(0, 50%, 50%, 70%)","[""hsla(0, 50%, 50%, 70%)"",""hsla(225, 50%, 50%, 70%)""]","10","9","circle","black","3","2","2","16.7125","[10,17,17,17,17,16,17,17,17,17,17,17,17,17,17,17,16,17,17,17,17,16,17,17,17,16,17,17,17,16,17,17,17,17,17,17,17,17,16,17,17,17,17,16,17,17,17,17,16,17,17,16,17,16,17,17,16,17,17,17,17,17,16,17,16,17,17,17,16,17,17,16,17,17,17,17,17,16,17,17]","80","600","250","false","20","20","black","1","false","1","1","1200","660","response","j","no","other",""
"","","","","","html-keyboard-response","136","7232676","0.0-5.0-1.0-0.0-3.0-0.0-0.0-1.0-0.27","null","fixation","null","<p style='font-size: 48px; color: white'>+</p >","","","","","","","","","","","","","","","","","","","","","","","","","","","","","","","","","","","","","","","","","","","","","","",""
"","","","","","rdk","137","7235082","0.0-5.0-1.0-0.0-3.0-0.0-0.0-1.0-1.27","1404","match_RDK","f","","true","[""f"",""j""]","[""f""]","3000","true","2","[80,20]","1","0","0","0","5","1","-1","3","500","500","hsla(225, 50%, 50%, 70%)","hsla(0, 50%, 50%, 70%)","[""hsla(0, 50%, 50%, 70%)"",""hsla(225, 50%, 50%, 70%)""]","10","9","circle","black","3","2","2","16.821428571428573","[10,17,17,17,17,17,17,16,17,17,17,17,17,17,17,17,17,16,17,17,17,17,17,17,17,17,17,17,17,17,17,17,17,17,17,17,17,17,17,17,17,17,17,17,17,16,16,16,17,17,16,17,17,17,17,17,17,17,16,17,17,17,17,17,17,17,17,16,17,17,17,17,17,17,17,17,17,17,17,17,17,17,17,17]","84","600","250","false","20","20","black","1","false","1","1","1200","660","response","f","yes","self",""
"","","","","","html-keyboard-response","138","7236109","0.0-5.0-1.0-0.0-3.0-0.0-0.0-1.0-0.28","null","fixation","null","<p style='font-size: 48px; color: white'>+</p >","","","","","","","","","","","","","","","","","","","","","","","","","","","","","","","","","","","","","","","","","","","","","","",""
"","","","","","rdk","139","7238507","0.0-5.0-1.0-0.0-3.0-0.0-0.0-1.0-1.28","1395","match_RDK","j","","true","[""f"",""j""]","[""j""]","3000","true","2","[20,80]","1","0","0","0","5","1","-1","3","500","500","hsla(225, 50%, 50%, 70%)","hsla(0, 50%, 50%, 70%)","[""hsla(0, 50%, 50%, 70%)"",""hsla(225, 50%, 50%, 70%)""]","10","9","circle","black","3","2","2","16.80722891566265","[10,17,17,17,17,17,17,17,17,17,16,17,17,17,17,17,17,17,17,17,17,17,17,16,17,17,17,17,17,17,16,17,16,17,17,17,17,16,17,17,17,17,17,17,17,17,16,17,17,17,17,17,17,17,16,17,17,17,17,17,17,17,16,17,17,17,16,17,17,17,17,17,17,17,17,17,17,17,17,17,17,17,17]","83","600","250","false","20","20","black","1","false","1","1","1200","660","response","j","no","self",""
"","","","","","html-keyboard-response","140","7239526","0.0-5.0-1.0-0.0-3.0-0.0-0.0-1.0-0.29","null","fixation","null","<p style='font-size: 48px; color: white'>+</p >","","","","","","","","","","","","","","","","","","","","","","","","","","","","","","","","","","","","","","","","","","","","","","",""
"","","","","","rdk","141","7243034","0.0-5.0-1.0-0.0-3.0-0.0-0.0-1.0-1.29","2506","match_RDK","j","","true","[""f"",""j""]","[""j""]","3000","true","2","[80,20]","1","0","0","0","5","1","-1","3","500","500","hsla(225, 50%, 50%, 70%)","hsla(0, 50%, 50%, 70%)","[""hsla(0, 50%, 50%, 70%)"",""hsla(225, 50%, 50%, 70%)""]","10","9","circle","black","3","2","2","16.733333333333334","[12,17,17,17,16,17,16,17,17,16,17,17,16,17,17,17,17,17,17,17,17,17,17,17,17,17,17,17,16,17,16,17,16,17,17,17,17,17,16,17,17,17,17,16,17,17,16,17,16,17,16,17,17,17,17,17,17,16,17,16,17,17,16,17,16,17,17,17,17,17,17,17,16,17,17,17,17,17,17,16,17,17,16,17,17,17,17,16,17,17,17,17,17,16,17,17,17,17,17,17,17,16,17,17,16,17,17,17,17,17,16,17,17,17,16,17,17,16,17,17,16,17,16,16,17,17,16,17,17,17,17,17,17,16,17,17,16,16,17,17,17,17,17,17,17,17,16,17,17,16]","150","600","250","false","20","20","black","1","false","1","1","1200","660","response","j","no","other",""
"","","","","","html-keyboard-response","142","7244060","0.0-5.0-1.0-0.0-3.0-0.0-0.0-1.0-0.30","null","fixation","null","<p style='font-size: 48px; color: white'>+</p >","","","","","","","","","","","","","","","","","","","","","","","","","","","","","","","","","","","","","","","","","","","","","","",""
"","","","","","rdk","143","7246298","0.0-5.0-1.0-0.0-3.0-0.0-0.0-1.0-1.30","1221","match_RDK","f","","true","[""f"",""j""]","[""f""]","3000","true","2","[80,20]","1","0","0","0","5","1","-1","3","500","500","hsla(225, 50%, 50%, 70%)","hsla(0, 50%, 50%, 70%)","[""hsla(225, 50%, 50%, 70%)"",""hsla(0, 50%, 50%, 70%)""]","10","9","circle","black","3","2","2","16.78082191780822","[11,17,17,17,17,16,17,17,16,17,16,17,16,17,16,17,17,17,17,17,17,17,17,17,17,17,16,17,17,17,17,17,17,17,16,17,17,17,17,17,17,17,17,17,16,17,17,17,17,17,17,17,17,17,17,17,17,17,17,16,17,17,17,17,17,17,17,17,16,17,17,17,17]","73","600","250","false","20","20","black","1","false","1","1","1200","660","response","f","yes","other",""
"","","","","","html-keyboard-response","144","7247326","0.0-5.0-1.0-0.0-3.0-0.0-0.0-1.0-0.31","null","fixation","null","<p style='font-size: 48px; color: white'>+</p >","","","","","","","","","","","","","","","","","","","","","","","","","","","","","","","","","","","","","","","","","","","","","","",""
"","","","","","rdk","145","7249434","0.0-5.0-1.0-0.0-3.0-0.0-0.0-1.0-1.31","1107","match_RDK","f","","true","[""f"",""j""]","[""f""]","3000","true","2","[80,20]","1","0","0","0","5","1","-1","3","500","500","hsla(225, 50%, 50%, 70%)","hsla(0, 50%, 50%, 70%)","[""hsla(0, 50%, 50%, 70%)"",""hsla(225, 50%, 50%, 70%)""]","10","9","circle","black","3","2","2","16.78787878787879","[11,17,17,17,17,17,17,17,17,17,16,17,17,17,17,17,16,17,17,17,17,17,16,17,17,17,17,17,17,17,17,16,17,17,17,17,16,17,17,17,17,17,17,17,16,17,17,16,17,17,17,17,17,17,16,17,17,17,17,17,17,17,17,17,17,17]","66","600","250","false","20","20","black","1","false","1","1","1200","660","response","f","yes","self",""
"","","","","","html-keyboard-response","146","7250459","0.0-5.0-1.0-0.0-3.0-0.0-0.0-1.0-0.32","null","fixation","null","<p style='font-size: 48px; color: white'>+</p >","","","","","","","","","","","","","","","","","","","","","","","","","","","","","","","","","","","","","","","","","","","","","","",""
"","","","","","rdk","147","7252363","0.0-5.0-1.0-0.0-3.0-0.0-0.0-1.0-1.32","886","match_RDK","f","","true","[""f"",""j""]","[""f""]","3000","true","2","[80,20]","1","0","0","0","5","1","-1","3","500","500","hsla(225, 50%, 50%, 70%)","hsla(0, 50%, 50%, 70%)","[""hsla(225, 50%, 50%, 70%)"",""hsla(0, 50%, 50%, 70%)""]","10","9","circle","black","3","2","2","16.81132075471698","[12,17,17,17,17,17,16,17,17,17,17,17,16,17,17,17,17,17,17,16,17,17,17,17,17,17,17,17,17,17,17,17,17,17,17,17,17,17,17,17,17,17,17,17,16,17,17,17,17,17,17,16,17]","53","600","250","false","20","20","black","1","false","1","1","1200","660","response","f","yes","other",""
"","","","","","html-keyboard-response","148","7253377","0.0-5.0-1.0-0.0-3.0-0.0-0.0-1.0-0.33","null","fixation","null","<p style='font-size: 48px; color: white'>+</p >","","","","","","","","","","","","","","","","","","","","","","","","","","","","","","","","","","","","","","","","","","","","","","",""
"","","","","","rdk","149","7255626","0.0-5.0-1.0-0.0-3.0-0.0-0.0-1.0-1.33","1232","match_RDK","j","","true","[""f"",""j""]","[""j""]","3000","true","2","[20,80]","1","0","0","0","5","1","-1","3","500","500","hsla(225, 50%, 50%, 70%)","hsla(0, 50%, 50%, 70%)","[""hsla(0, 50%, 50%, 70%)"",""hsla(225, 50%, 50%, 70%)""]","10","9","circle","black","3","2","2","16.783783783783782","[11,17,17,17,17,17,17,17,17,16,17,17,17,17,17,17,17,17,16,17,17,16,17,17,17,17,17,17,17,17,16,17,17,17,17,16,17,17,17,17,17,17,17,17,17,17,17,16,17,17,17,17,17,17,17,16,17,17,17,17,17,17,17,17,16,17,17,17,17,17,17,16,16,17]","74","600","250","false","20","20","black","1","false","1","1","1200","660","response","j","no","self",""
"","","","","","html-keyboard-response","150","7256643","0.0-5.0-1.0-0.0-3.0-0.0-0.0-1.0-0.34","null","fixation","null","<p style='font-size: 48px; color: white'>+</p >","","","","","","","","","","","","","","","","","","","","","","","","","","","","","","","","","","","","","","","","","","","","","","",""
"","","","","","rdk","151","7259163","0.0-5.0-1.0-0.0-3.0-0.0-0.0-1.0-1.34","1518","match_RDK","f","","true","[""f"",""j""]","[""f""]","3000","true","2","[80,20]","1","0","0","0","5","1","-1","3","500","500","hsla(225, 50%, 50%, 70%)","hsla(0, 50%, 50%, 70%)","[""hsla(0, 50%, 50%, 70%)"",""hsla(225, 50%, 50%, 70%)""]","10","9","circle","black","3","2","2","16.802197802197803","[12,17,17,17,17,17,17,17,17,16,17,17,17,17,17,17,17,17,17,17,17,17,17,17,17,17,17,17,16,17,17,17,17,17,17,17,17,17,17,16,17,17,17,16,17,16,17,17,16,17,17,17,17,17,17,17,17,17,17,17,17,16,17,17,16,17,16,17,17,17,17,17,17,17,17,16,17,17,17,16,17,17,17,16,17,17,17,16,17,17,17]","91","600","250","false","20","20","black","1","false","1","1","1200","660","response","f","yes","self",""
"","","","","","html-keyboard-response","152","7260177","0.0-5.0-1.0-0.0-3.0-0.0-0.0-1.0-0.35","null","fixation","null","<p style='font-size: 48px; color: white'>+</p >","","","","","","","","","","","","","","","","","","","","","","","","","","","","","","","","","","","","","","","","","","","","","","",""
"","","","","","rdk","153","7262539","0.0-5.0-1.0-0.0-3.0-0.0-0.0-1.0-1.35","1345","match_RDK","j","","true","[""f"",""j""]","[""j""]","3000","true","2","[80,20]","1","0","0","0","5","1","-1","3","500","500","hsla(225, 50%, 50%, 70%)","hsla(0, 50%, 50%, 70%)","[""hsla(0, 50%, 50%, 70%)"",""hsla(225, 50%, 50%, 70%)""]","10","9","circle","black","3","2","2","16.7875","[11,17,17,17,17,17,17,16,17,17,17,17,17,17,17,17,17,17,16,17,17,16,17,17,17,17,17,17,17,16,16,17,17,17,17,17,17,17,17,17,17,17,17,17,17,17,17,17,17,17,16,17,16,17,16,17,17,17,17,16,17,17,17,17,17,17,17,16,17,17,17,17,17,17,17,17,17,17,17,16]","80","600","250","false","20","20","black","1","false","1","1","1200","660","response","j","no","other",""
"","","","","","html-keyboard-response","154","7263545","0.0-5.0-1.0-0.0-3.0-0.0-0.0-1.0-0.36","null","fixation","null","<p style='font-size: 48px; color: white'>+</p >","","","","","","","","","","","","","","","","","","","","","","","","","","","","","","","","","","","","","","","","","","","","","","",""
"","","","","","rdk","155","7265802","0.0-5.0-1.0-0.0-3.0-0.0-0.0-1.0-1.36","1241","match_RDK","f","","true","[""f"",""j""]","[""f""]","3000","true","2","[80,20]","1","0","0","0","5","1","-1","3","500","500","hsla(225, 50%, 50%, 70%)","hsla(0, 50%, 50%, 70%)","[""hsla(225, 50%, 50%, 70%)"",""hsla(0, 50%, 50%, 70%)""]","10","9","circle","black","3","2","2","16.783783783783782","[11,17,17,17,17,17,17,17,17,17,16,17,16,17,17,17,17,17,17,17,17,17,17,17,17,17,17,17,17,17,16,17,17,17,17,17,16,17,17,17,17,17,17,16,17,17,16,17,17,17,16,17,16,17,17,17,17,16,17,17,17,17,17,17,17,17,17,17,17,17,17,16,17,17]","74","600","250","false","20","20","black","1","false","1","1","1200","660","response","f","yes","other",""
"","","","","","html-keyboard-response","156","7266825","0.0-5.0-1.0-0.0-3.0-0.0-0.0-1.0-0.37","null","fixation","null","<p style='font-size: 48px; color: white'>+</p >","","","","","","","","","","","","","","","","","","","","","","","","","","","","","","","","","","","","","","","","","","","","","","",""
"","","","","","rdk","157","7269099","0.0-5.0-1.0-0.0-3.0-0.0-0.0-1.0-1.37","1271","match_RDK","f","","true","[""f"",""j""]","[""f""]","3000","true","2","[80,20]","1","0","0","0","5","1","-1","3","500","500","hsla(225, 50%, 50%, 70%)","hsla(0, 50%, 50%, 70%)","[""hsla(0, 50%, 50%, 70%)"",""hsla(225, 50%, 50%, 70%)""]","10","9","circle","black","3","2","2","16.736842105263158","[11,17,16,17,17,17,18,16,17,16,17,17,17,17,17,17,16,17,17,17,17,17,17,16,17,17,16,17,16,17,17,17,16,17,17,17,16,17,17,17,17,17,17,17,17,17,16,17,17,17,16,17,17,17,17,17,17,17,17,16,17,16,17,17,17,17,16,17,17,16,17,17,17,17,17,17]","76","600","250","false","20","20","black","1","false","1","1","1200","660","response","f","yes","self",""
"","","","","","html-keyboard-response","158","7270126","0.0-5.0-1.0-0.0-3.0-0.0-0.0-1.0-0.38","null","fixation","null","<p style='font-size: 48px; color: white'>+</p >","","","","","","","","","","","","","","","","","","","","","","","","","","","","","","","","","","","","","","","","","","","","","","",""
"","","","","","rdk","159","7272267","0.0-5.0-1.0-0.0-3.0-0.0-0.0-1.0-1.38","1138","match_RDK","j","","true","[""f"",""j""]","[""j""]","3000","true","2","[20,80]","1","0","0","0","5","1","-1","3","500","500","hsla(225, 50%, 50%, 70%)","hsla(0, 50%, 50%, 70%)","[""hsla(0, 50%, 50%, 70%)"",""hsla(225, 50%, 50%, 70%)""]","10","9","circle","black","3","2","2","16.720588235294116","[10,17,17,17,17,17,16,17,17,17,17,17,17,17,17,17,17,17,17,16,17,16,17,17,17,17,17,17,16,17,17,17,16,17,17,17,17,17,16,17,17,17,17,17,16,17,17,17,17,17,17,17,16,17,16,17,17,17,17,17,16,17,16,17,16,17,17,17]","68","600","250","false","20","20","black","1","false","1","1","1200","660","response","j","no","self",""
"","","","","","html-keyboard-response","160","7273293","0.0-5.0-1.0-0.0-3.0-0.0-0.0-1.0-0.39","null","fixation","null","<p style='font-size: 48px; color: white'>+</p >","","","","","","","","","","","","","","","","","","","","","","","","","","","","","","","","","","","","","","","","","","","","","","",""
"","","","","","rdk","161","7275693","0.0-5.0-1.0-0.0-3.0-0.0-0.0-1.0-1.39","1394","match_RDK","j","","true","[""f"",""j""]","[""j""]","3000","true","2","[80,20]","1","0","0","0","5","1","-1","3","500","500","hsla(225, 50%, 50%, 70%)","hsla(0, 50%, 50%, 70%)","[""hsla(0, 50%, 50%, 70%)"",""hsla(225, 50%, 50%, 70%)""]","10","9","circle","black","3","2","2","16.654761904761905","[7,16,17,17,17,17,17,17,17,16,17,17,17,17,17,16,16,17,17,17,17,16,17,17,17,17,17,16,16,17,17,17,17,17,16,17,16,17,16,17,17,17,16,16,17,17,17,16,17,17,17,17,17,17,16,17,17,17,17,17,16,17,16,17,17,17,17,16,17,16,17,17,17,17,17,17,17,17,17,16,17,17,17,17]","84","600","250","false","20","20","black","1","false","1","1","1200","660","response","j","no","other",""
"","","","","","html-keyboard-response","162","7279210","0.0-5.0-1.0-0.0-3.0-0.0-0.0-2.0","null","","null","<p style='font-size: 35px; color: white'>这组测试中，您正确回答了： 98% 的试次。平均反应时为：1449毫秒。</p>","","","","","","","","","","","","","","","","","","","","","","","","","","","","","","","","","","","","","","","","","","","","","","",""
"","","","","","html-keyboard-response","163","7283515","0.0-5.0-1.0-0.0-3.0-0.0-0.0-3.0","3288","instruction_rest"," ","
    <div style=""text-align: center; color: white; padding: 35px; font-size: 35px"">
      <p>请休息一下，若准备好可按空格键继续</p >
    </div>
    ","","","","","","","","","","","","","","","","","","","","","","","","","","","","","","","","","","","","","","","","","","","","","","",""
"","","","","","html-keyboard-response","164","7285042","0.0-5.0-1.0-0.0-3.0-0.0-0.0-4.0-0.0","null","fixation","null","<p style='font-size: 48px; color: white'>+</p >","","","","","","","","","","","","","","","","","","","","","","","","","","","","","","","","","","","","","","","","","","","","","","",""
"","","","","","rdk","165","7287403","0.0-5.0-1.0-0.0-3.0-0.0-0.0-4.0-1.0","1358","match_RDK","j","","true","[""f"",""j""]","[""j""]","3000","true","2","[80,20]","1","0","0","0","5","1","-1","3","500","500","hsla(225, 50%, 50%, 70%)","hsla(0, 50%, 50%, 70%)","[""hsla(0, 50%, 50%, 70%)"",""hsla(225, 50%, 50%, 70%)""]","10","9","circle","black","3","2","2","16.703703703703702","[11,16,17,17,17,17,17,17,17,17,17,16,16,17,17,17,17,17,17,17,18,16,17,17,17,16,17,16,16,17,17,16,17,17,17,17,16,17,17,17,16,17,16,17,17,17,17,17,16,17,17,17,17,16,17,17,17,17,17,17,16,17,17,17,16,17,17,16,17,16,17,17,17,17,16,17,17,17,16,17,17]","81","600","250","false","20","20","black","1","false","1","1","1200","660","response","j","no","other",""
"","","","","","html-keyboard-response","166","7288426","0.0-5.0-1.0-0.0-3.0-0.0-0.0-4.0-0.1","null","fixation","null","<p style='font-size: 48px; color: white'>+</p >","","","","","","","","","","","","","","","","","","","","","","","","","","","","","","","","","","","","","","","","","","","","","","",""
"","","","","","rdk","167","7290955","0.0-5.0-1.0-0.0-3.0-0.0-0.0-4.0-1.1","1525","match_RDK","f","","true","[""f"",""j""]","[""f""]","3000","true","2","[80,20]","1","0","0","0","5","1","-1","3","500","500","hsla(225, 50%, 50%, 70%)","hsla(0, 50%, 50%, 70%)","[""hsla(225, 50%, 50%, 70%)"",""hsla(0, 50%, 50%, 70%)""]","10","9","circle","black","3","2","2","16.89010989010989","[9,17,17,17,17,17,17,17,17,17,17,17,17,17,17,17,17,17,17,17,17,16,17,17,17,17,17,17,17,17,17,17,17,17,17,17,17,17,17,17,17,17,17,17,17,17,17,17,17,17,17,17,17,17,17,17,17,17,17,17,17,17,17,17,17,17,17,17,17,17,17,17,16,17,17,17,17,17,17,17,17,17,17,17,17,17,17,17,17,17,17]","91","600","250","false","20","20","black","1","false","1","1","1200","660","response","f","yes","other",""
"","","","","","html-keyboard-response","168","7291976","0.0-5.0-1.0-0.0-3.0-0.0-0.0-4.0-0.2","null","fixation","null","<p style='font-size: 48px; color: white'>+</p >","","","","","","","","","","","","","","","","","","","","","","","","","","","","","","","","","","","","","","","","","","","","","","",""
"","","","","","rdk","169","7294171","0.0-5.0-1.0-0.0-3.0-0.0-0.0-4.0-1.2","1193","match_RDK","f","","true","[""f"",""j""]","[""f""]","3000","true","2","[80,20]","1","0","0","0","5","1","-1","3","500","500","hsla(225, 50%, 50%, 70%)","hsla(0, 50%, 50%, 70%)","[""hsla(0, 50%, 50%, 70%)"",""hsla(225, 50%, 50%, 70%)""]","10","9","circle","black","3","2","2","16.816901408450704","[12,17,16,17,17,17,17,17,17,17,17,17,17,16,17,17,17,17,17,17,17,16,17,16,17,17,17,17,17,17,17,17,17,17,16,16,17,18,16,17,17,16,17,17,17,17,17,17,17,17,17,17,17,16,17,17,17,17,17,17,17,17,17,17,17,17,17,17,17,17,17]","71","600","250","false","20","20","black","1","false","1","1","1200","660","response","f","yes","self",""
"","","","","","html-keyboard-response","170","7295194","0.0-5.0-1.0-0.0-3.0-0.0-0.0-4.0-0.3","null","fixation","null","<p style='font-size: 48px; color: white'>+</p >","","","","","","","","","","","","","","","","","","","","","","","","","","","","","","","","","","","","","","","","","","","","","","",""
"","","","","","rdk","171","7297147","0.0-5.0-1.0-0.0-3.0-0.0-0.0-4.0-1.3","936","match_RDK","j","","true","[""f"",""j""]","[""j""]","3000","true","2","[20,80]","1","0","0","0","5","1","-1","3","500","500","hsla(225, 50%, 50%, 70%)","hsla(0, 50%, 50%, 70%)","[""hsla(0, 50%, 50%, 70%)"",""hsla(225, 50%, 50%, 70%)""]","10","9","circle","black","3","2","2","16.875","[12,17,17,17,17,17,17,17,17,17,17,17,17,17,17,17,17,17,17,17,17,17,17,17,16,17,17,17,17,17,17,17,17,17,17,16,17,17,17,17,17,17,17,17,17,17,17,17,17,17,17,17,17,17,17,17]","56","600","250","false","20","20","black","1","false","1","1","1200","660","response","j","no","self",""
"","","","","","html-keyboard-response","172","7298161","0.0-5.0-1.0-0.0-3.0-0.0-0.0-4.0-0.4","null","fixation","null","<p style='font-size: 48px; color: white'>+</p >","","","","","","","","","","","","","","","","","","","","","","","","","","","","","","","","","","","","","","","","","","","","","","",""
"","","","","","rdk","173","7300235","0.0-5.0-1.0-0.0-3.0-0.0-0.0-4.0-1.4","1057","match_RDK","f","","false","[""f"",""j""]","[""j""]","3000","true","2","[80,20]","1","0","0","0","5","1","-1","3","500","500","hsla(225, 50%, 50%, 70%)","hsla(0, 50%, 50%, 70%)","[""hsla(0, 50%, 50%, 70%)"",""hsla(225, 50%, 50%, 70%)""]","10","9","circle","black","3","2","2","16.793650793650794","[11,17,17,17,17,17,17,16,16,17,17,17,17,17,17,17,17,17,17,17,17,17,17,17,17,17,17,17,17,16,17,17,17,17,17,16,17,17,17,17,16,17,17,16,17,17,17,17,17,17,17,16,17,17,17,17,17,17,17,17,17,17,17]","63","600","250","false","20","20","black","1","false","1","1","1200","660","response","j","no","other",""
"","","","","","html-keyboard-response","174","7301259","0.0-5.0-1.0-0.0-3.0-0.0-0.0-4.0-0.5","null","fixation","null","<p style='font-size: 48px; color: white'>+</p >","","","","","","","","","","","","","","","","","","","","","","","","","","","","","","","","","","","","","","","","","","","","","","",""
"","","","","","rdk","175","7303419","0.0-5.0-1.0-0.0-3.0-0.0-0.0-4.0-1.5","1157","match_RDK","j","","true","[""f"",""j""]","[""j""]","3000","true","2","[20,80]","1","0","0","0","5","1","-1","3","500","500","hsla(225, 50%, 50%, 70%)","hsla(0, 50%, 50%, 70%)","[""hsla(0, 50%, 50%, 70%)"",""hsla(225, 50%, 50%, 70%)""]","10","9","circle","black","3","2","2","16.782608695652176","[10,17,17,17,17,17,18,17,17,17,17,17,17,17,17,17,16,17,17,17,17,17,17,17,17,17,17,17,16,17,16,17,16,16,17,17,17,17,17,17,17,17,17,17,17,16,17,17,17,16,17,17,17,17,17,17,17,17,17,16,17,17,17,17,17,17,17,16,17]","69","600","250","false","20","20","black","1","false","1","1","1200","660","response","j","no","self",""
"","","","","","html-keyboard-response","176","7304443","0.0-5.0-1.0-0.0-3.0-0.0-0.0-4.0-0.6","null","fixation","null","<p style='font-size: 48px; color: white'>+</p >","","","","","","","","","","","","","","","","","","","","","","","","","","","","","","","","","","","","","","","","","","","","","","",""
"","","","","","rdk","177","7306763","0.0-5.0-1.0-0.0-3.0-0.0-0.0-4.0-1.6","1317","match_RDK","f","","true","[""f"",""j""]","[""f""]","3000","true","2","[80,20]","1","0","0","0","5","1","-1","3","500","500","hsla(225, 50%, 50%, 70%)","hsla(0, 50%, 50%, 70%)","[""hsla(225, 50%, 50%, 70%)"",""hsla(0, 50%, 50%, 70%)""]","10","9","circle","black","3","2","2","16.734177215189874","[11,16,17,17,16,17,17,17,17,16,17,16,17,17,16,17,16,17,17,17,17,17,17,17,16,17,17,16,17,17,17,16,16,17,17,17,17,17,17,17,17,17,17,17,17,16,17,16,17,17,17,17,17,16,17,17,17,17,17,17,17,17,17,17,17,17,16,17,17,17,17,17,17,17,17,16,17,17,17]","79","600","250","false","20","20","black","1","false","1","1","1200","660","response","f","yes","other",""
"","","","","","html-keyboard-response","178","7307793","0.0-5.0-1.0-0.0-3.0-0.0-0.0-4.0-0.7","null","fixation","null","<p style='font-size: 48px; color: white'>+</p >","","","","","","","","","","","","","","","","","","","","","","","","","","","","","","","","","","","","","","","","","","","","","","",""
"","","","","","rdk","179","7309883","0.0-5.0-1.0-0.0-3.0-0.0-0.0-4.0-1.7","1087","match_RDK","f","","true","[""f"",""j""]","[""f""]","3000","true","2","[80,20]","1","0","0","0","5","1","-1","3","500","500","hsla(225, 50%, 50%, 70%)","hsla(0, 50%, 50%, 70%)","[""hsla(0, 50%, 50%, 70%)"",""hsla(225, 50%, 50%, 70%)""]","10","9","circle","black","3","2","2","16.846153846153847","[11,17,17,17,17,17,17,17,17,17,17,17,17,17,17,17,17,17,17,17,17,17,17,17,17,17,17,17,17,16,17,17,17,17,17,17,17,17,17,17,17,17,17,17,17,17,17,17,17,17,16,17,17,17,17,17,17,17,16,17,17,16,17,17,17]","65","600","250","false","20","20","black","1","false","1","1","1200","660","response","f","yes","self",""
"","","","","","html-keyboard-response","180","7310894","0.0-5.0-1.0-0.0-3.0-0.0-0.0-4.0-0.8","null","fixation","null","<p style='font-size: 48px; color: white'>+</p >","","","","","","","","","","","","","","","","","","","","","","","","","","","","","","","","","","","","","","","","","","","","","","",""
"","","","","","rdk","181","7313277","0.0-5.0-1.0-0.0-3.0-0.0-0.0-4.0-1.8","1378","match_RDK","j","","true","[""f"",""j""]","[""j""]","3000","true","2","[20,80]","1","0","0","0","5","1","-1","3","500","500","hsla(225, 50%, 50%, 70%)","hsla(0, 50%, 50%, 70%)","[""hsla(0, 50%, 50%, 70%)"",""hsla(225, 50%, 50%, 70%)""]","10","9","circle","black","3","2","2","16.674698795180724","[8,17,16,17,17,17,17,15,17,17,17,17,17,16,17,17,17,17,17,17,17,17,17,17,17,17,17,16,17,17,17,17,16,17,17,17,17,17,17,16,17,17,17,17,17,17,17,16,16,17,17,17,16,17,16,16,16,17,17,17,17,17,17,17,17,16,17,17,16,16,17,17,16,17,17,17,17,17,16,17,17,17,17]","83","600","250","false","20","20","black","1","false","1","1","1200","660","response","j","no","self",""
"","","","","","html-keyboard-response","182","7314293","0.0-5.0-1.0-0.0-3.0-0.0-0.0-4.0-0.9","null","fixation","null","<p style='font-size: 48px; color: white'>+</p >","","","","","","","","","","","","","","","","","","","","","","","","","","","","","","","","","","","","","","","","","","","","","","",""
"","","","","","rdk","183","7317019","0.0-5.0-1.0-0.0-3.0-0.0-0.0-4.0-1.9","1708","match_RDK","j","","true","[""f"",""j""]","[""j""]","3000","true","2","[80,20]","1","0","0","0","5","1","-1","3","500","500","hsla(225, 50%, 50%, 70%)","hsla(0, 50%, 50%, 70%)","[""hsla(0, 50%, 50%, 70%)"",""hsla(225, 50%, 50%, 70%)""]","10","9","circle","black","3","2","2","16.84313725490196","[11,17,17,17,17,17,17,17,17,17,16,17,17,17,17,17,17,16,17,17,17,17,17,17,17,17,17,17,17,17,17,17,16,17,17,17,17,17,17,17,17,17,17,17,16,16,17,17,17,17,17,17,17,17,17,17,17,17,17,17,17,17,17,17,17,17,17,17,17,16,17,17,17,17,17,17,17,17,17,16,17,17,17,17,16,17,17,17,16,17,17,16,17,17,17,17,17,17,17,17,17,17]","102","600","250","false","20","20","black","1","false","1","1","1200","660","response","j","no","other",""
"","","","","","html-keyboard-response","184","7318027","0.0-5.0-1.0-0.0-3.0-0.0-0.0-4.0-0.10","null","fixation","null","<p style='font-size: 48px; color: white'>+</p >","","","","","","","","","","","","","","","","","","","","","","","","","","","","","","","","","","","","","","","","","","","","","","",""
"","","","","","rdk","185","7320363","0.0-5.0-1.0-0.0-3.0-0.0-0.0-4.0-1.10","1319","match_RDK","f","","true","[""f"",""j""]","[""f""]","3000","true","2","[80,20]","1","0","0","0","5","1","-1","3","500","500","hsla(225, 50%, 50%, 70%)","hsla(0, 50%, 50%, 70%)","[""hsla(0, 50%, 50%, 70%)"",""hsla(225, 50%, 50%, 70%)""]","10","9","circle","black","3","2","2","16.79746835443038","[11,17,17,17,17,17,16,17,16,17,17,17,17,17,17,17,16,17,17,17,17,17,17,16,16,17,17,16,17,17,17,17,17,17,17,17,17,17,17,17,16,17,17,17,17,17,17,16,17,17,17,17,17,17,17,17,17,17,17,17,17,17,16,17,17,17,17,17,17,17,17,17,17,17,17,17,17,17,16]","79","600","250","false","20","20","black","1","false","1","1","1200","660","response","f","yes","self",""
