"success","timeout","failed_images","failed_audio","failed_video","trial_type","trial_index","time_elapsed","internal_node_id","rt","part","response","stimulus","correct","choices","correct_choice","trial_duration","response_ends_trial","number_of_apertures","number_of_dots","number_of_sets","coherent_direction","coherence","opposite_coherence","dot_radius","dot_side_length","dot_life","move_distance","aperture_width","aperture_height","dot_color_beforeOne","dot_color_beforeTwo","dot_color_after","dot_color_delay","move_delay","dot_shape","background_color","RDK_type","aperture_type","reinsert_type","frame_rate","frame_rate_array","number_of_frames","aperture_center_x","aperture_center_y","fixation_cross","fixation_cross_width","fixation_cross_height","fixation_cross_color","fixation_cross_thickness","border","border_thickness","border_color","canvas_width","canvas_height","task","correct_responce","match","association","difficulty"
"true","false","[]","[]","[]","preload","0","8","0.0-0.0","","","","","","","","","","","","","","","","","","","","","","","","","","","","","","","","","","","","","","","","","","","","","","","","","","",""
"true","","","","","fullscreen","1","820862","0.0-1.0","818836","fullScreen","","","","","","","","","","","","","","","","","","","","","","","","","","","","","","","","","","","","","","","","","","","","","","","","",""
"","","","","","survey","2","836508","0.0-2.0","14557","survey","{""sex"":""男"",""age"":23,""hands"":""右"",""color_blindness"":""都不是""}","","","","","","","","","","","","","","","","","","","","","","","","","","","","","","","","","","","","","","","","","","","","","","","",""
"","","","","","survey-text","3","851057","0.0-3.0","13526","color_test","{""Q0"":""BE""}","","","","","","","","","","","","","","","","","","","","","","","","","","","","","","","","","","","","","","","","","","","","","","","",""
"","","","","","html-keyboard-response","4","859977","0.0-4.0","7898","instruction_beginning"," ","
      <div style=""text-align: left; color: white"">
        <h3 style=""text-align: center; font-size: 30px; margin: 0;"">欢迎参与本实验</h3>
          <p>为充分保障您的权利，请确保您已经知晓并同意《参与实验同意书》以及《数据公开知情同意书》，</p>
          <p>如果您未见过上述内容，请咨询实验员 ，</p>
          <p>如果您选择继续实验，则表示您已经清楚两份知情同意书的内容并同意 。</p>
          <p>在整个实验中，您需要完成两项任务，具体的任务要求会在后面说明 ，</p>
          <p>请按空格键进入实验</p >
      </div>","","","","","","","","","","","","","","","","","","","","","","","","","","","","","","","","","","","","","","","","","","","","","","",""
"","","","","","html-keyboard-response","5","878876","0.0-5.0-0.0-0.0-0.0","17888","instruction_match"," ","
      <div style=""text-align: left; color: white; padding: 10px""> 
        <h3 style=""text-align: center; font-size: 30px; margin: 10px"">任务一：匹配判断</h3>
        <p>接下来，屏幕上会呈现一些运动的圆点，</p>
        <p>如果图中大部分点向 <span style=""font-weight: bold"">右</span> 运动代表 <span style=""font-weight: bold"">你自己</span> ，向 <span style=""font-weight: bold"">左</span> 运动代表 <span style=""font-weight: bold"">生人（即陌生人）</span>，</p >
        <p>同时散点图的下方会出现 ""自己"" 或 ""生人"" 的文字标签。</p >
        <p>您需要在3秒内判断 <span style=""font-weight: bold"">散点图的运动方向与文字是否匹配</span> ：</p >
        <ul>
          <li><span style=""color: hsl(135, 50%, 50%)"">匹配</span>，请按键盘 <span style=""color: hsl(135, 50%, 50%)"">""F"" 键</span></li>
          <li><span style=""color: red"">不匹配</span>，请按键盘 <span style=""color: red"">""J"" 键</span> </li>
        </ul>
        <p>按下空格键后将呈现示例</p >
      </div>","","","","","","","","","","","","","","","","","","","","","","","","","","","","","","","","","","","","","","","","","","","","","","",""
"","","","","","rdk","6","895374","0.0-5.0-0.0-0.0-1.0","15443","example"," ","","true","["" ""]","["" ""]","3000000","true","2","100","1","[0,180]","0.6","0","5","1","-1","3","400","400","hsl(225, 50%, 50%)","hsl(0, 50%, 50%)","white","3000000","6","circle","black","3","1","2","16.706580366774542","[4,8,17,17,17,16,18,16,18,16,17,17,16,17,18,17,17,17,17,16,16,18,15,21,14,19,14,17,15,19,15,18,16,16,17,16,15,17,17,17,17,16,16,17,17,17,17,16,17,17,17,17,16,17,16,18,17,17,16,18,17,17,17,15,17,17,17,17,17,17,16,18,15,17,17,17,17,17,17,17,17,17,17,16,17,19,15,16,17,16,18,15,18,18,16,17,17,17,17,16,17,15,17,16,17,17,17,17,17,18,17,17,17,16,15,17,18,15,17,17,15,17,16,18,17,16,17,16,17,17,17,17,17,16,17,16,16,17,17,17,17,18,17,17,16,17,16,16,17,17,16,17,17,17,17,17,17,16,17,17,17,17,17,16,17,15,17,17,16,18,16,18,16,16,18,15,17,16,18,16,19,16,16,17,15,16,17,16,18,16,17,17,16,17,17,17,17,17,16,17,16,17,16,17,18,17,18,16,17,16,15,17,17,16,17,17,16,17,16,17,17,17,16,17,16,17,17,16,17,17,17,18,16,20,14,17,17,17,16,19,16,17,16,16,16,16,16,16,17,17,18,16,17,17,17,15,17,17,17,18,15,17,16,17,17,17,17,17,17,17,17,17,16,17,16,18,16,16,17,17,17,18,17,16,16,17,16,17,18,16,16,16,17,18,15,17,17,17,16,17,18,16,17,17,17,15,17,16,16,19,15,17,17,17,18,16,16,16,17,17,18,16,16,17,16,18,16,17,16,16,18,14,16,17,17,17,17,16,17,17,17,16,17,17,17,17,18,16,16,17,18,16,18,15,17,18,18,17,14,17,18,16,18,16,17,18,16,18,15,17,17,17,17,17,17,17,16,17,15,16,18,16,17,17,17,17,16,17,17,17,16,17,17,17,17,15,18,15,17,17,17,19,15,16,17,17,16,17,19,16,17,16,16,16,17,18,16,17,17,17,16,15,17,17,16,17,19,15,18,16,18,17,15,16,16,17,17,17,17,17,17,17,17,18,14,17,17,16,17,16,16,18,17,17,17,16,16,17,17,16,17,17,17,17,15,17,16,18,20,14,16,17,17,17,17,16,17,17,17,15,17,17,17,17,18,16,17,16,17,16,18,16,18,16,17,16,17,16,18,16,18,15,17,17,17,16,17,17,17,17,17,17,16,17,16,17,17,17,18,16,17,17,17,15,16,18,17,17,17,17,18,16,17,15,16,17,17,18,17,16,20,15,17,17,17,16,16,16,18,17,16,17,17,17,18,16,20,14,17,16,17,16,16,16,17,17,17,18,15,16,16,17,17,17,16,17,17,16,17,17,19,15,18,16,17,17,17,16,17,16,17,17,16,17,16,16,18,16,17,16,16,17,17,17,17,17,17,17,17,17,17,17,17,16,17,16,16,18,17,16,17,17,17,17,17,17,16,17,17,15,16,17,17,17,17,17,17,17,17,17,17,16,17,17,17,16,17,16,18,17,16,18,16,18,17,16,17,17,16,16,17,16,17,16,18,16,18,16,15,17,17,16,17,17,17,17,17,15,17,18,16,17,17,18,16,17,17,15,17,16,17,16,17,18,16,19,15,19,15,17,17,17,17,17,16,16,17,17,17,16,17,16,17,16,17,16,18,16,18,16,17,19,14,17,18,15,17,19,16,17,16,17,16,16,17,17,17,17,16,17,17,17,17,16,16,17,17,17,17,17,16,17,17,17,15,17,17,16,17,17,16,16,16,17,17,17,16,17,17,17,16,17,17,18,16,17,17,17,14,17,17,17,17,17,16,16,17,16,17,17,17,17,16,17,17,16,17,18,16,17,17,17,22,13,16,17,16,17,18,15,18,16,16,17,16,17,17,18,17,17,16,17,17,16,16,15,17,16,18,15,18,17,20,14,18,17,17,16,17,17,17,16,16,16,19,15,18,16,17,18,17,16,16,17,17,16,17,18,15,17,16,17,19,14,17,17,18,16,17,16,16,17,17,17,19,14,17,18,16,17,19,16,17,15,16,17,18,16,19,14,17,16,17,15,17,17,17,17,17,17,17,16,17,16,15,17,17,17,18,16,17,17,16,17,18,16,16,17,17,17,16,16,17,19,16,16,18]","927","[300,900]","[280,280]","false","20","20","black","1","false","1","1","1200","660","","","","",""
"","","","","","html-keyboard-response","7","907273","0.0-5.0-0.0-0.0-2.0-1.0-0.0-0.0","11395","instruction_match_practice"," ","
      <div style=""text-align: left; color: white; padding: 10px"">  
        <h3 style=""text-align: center; font-size: 30px; margin: 10px;"">练习阶段</h3>
        <p>大部分点向 <span style=""font-weight: bold"">右</span> 运动代表 <span style=""font-weight: bold"">你自己</span> ，向 <span style=""font-weight: bold"">左</span> 运动代表 <span style=""font-weight: bold"">生人（即陌生人）</span>，</p >
        <p>您需要在3秒内判断 <span style=""font-weight: bold"">散点图的运动方向与文字是否匹配</span>，<span style=""color: hsl(135, 50%, 50%);"">匹配</span> 按 <span style=""color: hsl(135, 50%, 50%);"">""F"" 键</span>；<span style=""color: red;"">不匹配</span> 按 <span style=""color: red;"">""J"" 键</span></p >
        <p>正确率达到 70% 及以上才能进入下一个阶段 </p >
        <p>请把左手食指放在 ""F"" 键上，右手食指放在 ""J"" 键上</p >
        <p>请按下空格键开始练习</p >
      </div>","","","","","","","","","","","","","","","","","","","","","","","","","","","","","","","","","","","","","","","","","","","","","","",""
"","","","","","html-keyboard-response","8","908784","0.0-5.0-0.0-0.0-2.0-1.0-0.0-1.0-0.0","null","fixation","null","<p style='font-size: 48px; color: white'>+</p >","","","","","","","","","","","","","","","","","","","","","","","","","","","","","","","","","","","","","","","","","","","","","","",""
"","","","","","rdk","9","912813","0.0-5.0-0.0-0.0-2.0-1.0-0.0-1.0-1.0","-1","match_RDK","","","false","[""f"",""j""]","[""f""]","3000","true","1","100","1","180","0.6","0","5","1","-1","3","500","500","hsl(225, 50%, 50%)","hsl(0, 50%, 50%)","white","3000","7","circle","black","3","2","2","16.7","[13,17,16,18,16,17,17,18,19,14,17,17,17,17,17,17,17,16,17,16,18,16,17,15,17,17,17,17,16,17,17,17,17,17,17,17,17,17,16,17,17,17,18,16,17,17,17,17,17,16,17,17,16,17,16,17,16,17,17,16,17,16,17,16,17,16,17,16,17,17,17,16,17,17,17,16,17,16,16,17,16,17,17,17,16,17,17,16,17,17,17,16,17,16,17,16,17,17,17,17,16,16,17,17,15,18,17,16,17,17,16,17,17,16,17,17,16,17,16,17,16,17,17,16,17,17,16,18,16,17,16,17,17,17,17,16,17,16,17,17,17,16,18,17,17,16,18,17,16,17,17,17,16,17,17,16,17,16,17,17,17,17,16,17,16,17,17,17,17,17,16,15,17,16,17,17,17,17,17,17]","180","600","250","false","20","20","black","1","false","1","1","1200","660","response","f","yes","other",""
"","","","","","html-keyboard-response","10","913831","0.0-5.0-0.0-0.0-2.0-1.0-0.0-1.0-2.0","null","","null","<p style='font-size: 60px; color: yellow'>太慢!</p>","","","","","","","","","","","","","","","","","","","","","","","","","","","","","","","","","","","","","","","","","","","","","","",""
"","","","","","html-keyboard-response","11","915345","0.0-5.0-0.0-0.0-2.0-1.0-0.0-1.0-0.1","null","fixation","null","<p style='font-size: 48px; color: white'>+</p >","","","","","","","","","","","","","","","","","","","","","","","","","","","","","","","","","","","","","","","","","","","","","","",""
"","","","","","rdk","12","918223","0.0-5.0-0.0-0.0-2.0-1.0-0.0-1.0-1.1","1862","match_RDK","f","","true","[""f"",""j""]","[""f""]","3000","true","1","100","1","0","0.6","0","5","1","-1","3","500","500","hsl(225, 50%, 50%)","hsl(0, 50%, 50%)","white","3000","7","circle","black","3","2","2","16.8018018018018","[17,17,17,17,17,17,17,17,16,16,17,17,17,17,17,17,16,17,17,17,16,17,17,17,17,17,17,17,17,16,16,17,18,16,16,17,16,17,17,17,17,17,16,17,16,17,16,17,18,16,17,17,17,16,18,16,17,17,17,16,18,15,17,17,15,17,17,17,17,17,17,17,17,17,16,17,17,18,16,17,16,17,17,17,17,17,17,17,17,17,17,16,17,16,19,16,17,17,17,16,18,16,17,17,18,16,17,17,16,17,16]","111","600","250","false","20","20","black","1","false","1","1","1200","660","response","f","yes","self",""
"","","","","","html-keyboard-response","13","919235","0.0-5.0-0.0-0.0-2.0-1.0-0.0-1.0-2.1","null","","null","<p style='font-size: 60px; color: green'>正确!</p>","","","","","","","","","","","","","","","","","","","","","","","","","","","","","","","","","","","","","","","","","","","","","","",""
"","","","","","html-keyboard-response","14","920760","0.0-5.0-0.0-0.0-2.0-1.0-0.0-1.0-0.2","null","fixation","null","<p style='font-size: 48px; color: white'>+</p >","","","","","","","","","","","","","","","","","","","","","","","","","","","","","","","","","","","","","","","","","","","","","","",""
"","","","","","rdk","15","923074","0.0-5.0-0.0-0.0-2.0-1.0-0.0-1.0-1.2","1307","match_RDK","j","","true","[""f"",""j""]","[""j""]","3000","true","1","100","1","0","0.6","0","5","1","-1","3","500","500","hsl(225, 50%, 50%)","hsl(0, 50%, 50%)","white","3000","7","circle","black","3","2","2","16.653846153846153","[11,17,17,17,16,17,17,17,17,16,15,17,17,16,17,17,17,17,17,17,17,17,17,16,17,17,16,17,16,17,16,18,16,16,18,16,16,17,16,17,16,17,16,17,16,16,17,16,15,17,17,18,16,17,17,17,17,17,17,18,16,17,17,17,16,17,17,18,16,17,16,17,17,16,17,17,18,17]","78","600","250","false","20","20","black","1","false","1","1","1200","660","response","j","no","other",""
"","","","","","html-keyboard-response","16","924096","0.0-5.0-0.0-0.0-2.0-1.0-0.0-1.0-2.2","null","","null","<p style='font-size: 60px; color: green'>正确!</p>","","","","","","","","","","","","","","","","","","","","","","","","","","","","","","","","","","","","","","","","","","","","","","",""
"","","","","","html-keyboard-response","17","925610","0.0-5.0-0.0-0.0-2.0-1.0-0.0-1.0-0.3","null","fixation","null","<p style='font-size: 48px; color: white'>+</p >","","","","","","","","","","","","","","","","","","","","","","","","","","","","","","","","","","","","","","","","","","","","","","",""
"","","","","","rdk","18","928341","0.0-5.0-0.0-0.0-2.0-1.0-0.0-1.0-1.3","1723","match_RDK","j","","true","[""f"",""j""]","[""j""]","3000","true","1","100","1","180","0.6","0","5","1","-1","3","500","500","hsl(225, 50%, 50%)","hsl(0, 50%, 50%)","white","3000","7","circle","black","3","2","2","16.660194174757283","[9,18,17,17,17,17,16,17,16,17,16,17,16,17,16,17,16,17,17,17,17,16,16,16,17,18,16,17,17,17,16,17,17,17,16,16,18,17,16,17,16,17,16,17,17,17,16,17,16,17,17,17,17,16,16,15,17,16,17,17,17,17,17,17,17,18,16,16,17,17,16,17,16,17,17,18,17,17,17,17,17,16,17,17,17,17,17,17,16,17,16,17,17,16,17,16,17,17,17,17,17,17,17]","103","600","250","false","20","20","black","1","false","1","1","1200","660","response","j","no","self",""
"","","","","","html-keyboard-response","19","929363","0.0-5.0-0.0-0.0-2.0-1.0-0.0-1.0-2.3","null","","null","<p style='font-size: 60px; color: green'>正确!</p>","","","","","","","","","","","","","","","","","","","","","","","","","","","","","","","","","","","","","","","","","","","","","","",""
"","","","","","html-keyboard-response","20","930893","0.0-5.0-0.0-0.0-2.0-1.0-0.0-1.0-0.4","null","fixation","null","<p style='font-size: 48px; color: white'>+</p >","","","","","","","","","","","","","","","","","","","","","","","","","","","","","","","","","","","","","","","","","","","","","","",""
"","","","","","rdk","21","933695","0.0-5.0-0.0-0.0-2.0-1.0-0.0-1.0-1.4","1798","match_RDK","f","","true","[""f"",""j""]","[""f""]","3000","true","1","100","1","0","0.6","0","5","1","-1","3","500","500","hsl(225, 50%, 50%)","hsl(0, 50%, 50%)","white","3000","7","circle","black","3","2","2","16.757009345794394","[15,17,15,18,17,17,16,15,17,17,17,17,18,17,17,17,17,16,17,17,17,17,16,17,17,17,17,16,16,17,17,17,17,16,15,17,17,17,17,16,17,17,16,17,16,17,17,16,17,17,16,16,17,17,17,17,17,17,17,16,18,16,18,17,17,17,16,15,17,17,17,15,17,18,16,17,18,17,17,17,17,17,17,17,17,17,17,17,17,17,17,17,16,17,17,16,17,17,17,17,17,17,17,17,16,17,16]","107","600","250","false","20","20","black","1","false","1","1","1200","660","response","f","yes","self",""
"","","","","","html-keyboard-response","22","934728","0.0-5.0-0.0-0.0-2.0-1.0-0.0-1.0-2.4","null","","null","<p style='font-size: 60px; color: green'>正确!</p>","","","","","","","","","","","","","","","","","","","","","","","","","","","","","","","","","","","","","","","","","","","","","","",""
"","","","","","html-keyboard-response","23","936249","0.0-5.0-0.0-0.0-2.0-1.0-0.0-1.0-0.5","null","fixation","null","<p style='font-size: 48px; color: white'>+</p >","","","","","","","","","","","","","","","","","","","","","","","","","","","","","","","","","","","","","","","","","","","","","","",""
"","","","","","rdk","24","938763","0.0-5.0-0.0-0.0-2.0-1.0-0.0-1.0-1.5","1497","match_RDK","f","","true","[""f"",""j""]","[""f""]","3000","true","1","100","1","180","0.6","0","5","1","-1","3","500","500","hsl(225, 50%, 50%)","hsl(0, 50%, 50%)","white","3000","7","circle","black","3","2","2","16.629213483146067","[10,18,17,16,17,16,17,17,16,16,15,17,17,17,17,17,16,16,17,17,17,17,16,17,17,17,17,16,18,16,17,17,17,17,17,16,17,16,17,18,17,16,17,17,16,17,17,16,17,16,18,16,17,16,19,15,16,17,16,17,17,17,16,17,17,17,17,16,17,17,16,17,17,17,16,17,17,16,17,16,16,17,16,17,17,17,16,17,17]","89","600","250","false","20","20","black","1","false","1","1","1200","660","response","f","yes","other",""
"","","","","","html-keyboard-response","25","939766","0.0-5.0-0.0-0.0-2.0-1.0-0.0-1.0-2.5","null","","null","<p style='font-size: 60px; color: green'>正确!</p>","","","","","","","","","","","","","","","","","","","","","","","","","","","","","","","","","","","","","","","","","","","","","","",""
"","","","","","html-keyboard-response","26","941279","0.0-5.0-0.0-0.0-2.0-1.0-0.0-1.0-0.6","null","fixation","null","<p style='font-size: 48px; color: white'>+</p >","","","","","","","","","","","","","","","","","","","","","","","","","","","","","","","","","","","","","","","","","","","","","","",""
"","","","","","rdk","27","943538","0.0-5.0-0.0-0.0-2.0-1.0-0.0-1.0-1.6","1240","match_RDK","j","","true","[""f"",""j""]","[""j""]","3000","true","1","100","1","0","0.6","0","5","1","-1","3","500","500","hsl(225, 50%, 50%)","hsl(0, 50%, 50%)","white","3000","7","circle","black","3","2","2","16.756756756756758","[14,17,18,15,16,17,16,15,17,17,17,17,17,18,16,17,16,17,17,17,16,18,16,16,17,17,18,17,17,17,17,16,16,18,16,17,17,17,17,17,17,16,17,17,16,17,17,17,16,17,17,17,17,17,18,16,16,18,16,17,16,17,17,17,17,17,17,17,16,18,16,17,17,17]","74","600","250","false","20","20","black","1","false","1","1","1200","660","response","j","no","other",""
"","","","","","html-keyboard-response","28","944559","0.0-5.0-0.0-0.0-2.0-1.0-0.0-1.0-2.6","null","","null","<p style='font-size: 60px; color: green'>正确!</p>","","","","","","","","","","","","","","","","","","","","","","","","","","","","","","","","","","","","","","","","","","","","","","",""
"","","","","","html-keyboard-response","29","946084","0.0-5.0-0.0-0.0-2.0-1.0-0.0-1.0-0.7","null","fixation","null","<p style='font-size: 48px; color: white'>+</p >","","","","","","","","","","","","","","","","","","","","","","","","","","","","","","","","","","","","","","","","","","","","","","",""
"","","","","","rdk","30","948634","0.0-5.0-0.0-0.0-2.0-1.0-0.0-1.0-1.7","1531","match_RDK","j","","true","[""f"",""j""]","[""j""]","3000","true","1","100","1","180","0.6","0","5","1","-1","3","500","500","hsl(225, 50%, 50%)","hsl(0, 50%, 50%)","white","3000","7","circle","black","3","2","2","16.912087912087912","[24,16,17,18,16,19,16,17,17,16,17,17,17,16,16,16,17,17,18,16,17,17,17,18,16,17,17,16,17,16,16,17,17,17,18,16,19,15,19,16,17,16,22,12,17,17,16,16,18,15,18,16,19,16,17,17,17,17,16,17,16,18,16,17,17,18,16,17,17,17,17,17,17,16,17,17,17,17,17,17,16,17,17,17,17,19,14,16,16,17,18]","91","600","250","false","20","20","black","1","false","1","1","1200","660","response","j","no","self",""
"","","","","","html-keyboard-response","31","949654","0.0-5.0-0.0-0.0-2.0-1.0-0.0-1.0-2.7","null","","null","<p style='font-size: 60px; color: green'>正确!</p>","","","","","","","","","","","","","","","","","","","","","","","","","","","","","","","","","","","","","","","","","","","","","","",""
"","","","","","html-keyboard-response","32","951178","0.0-5.0-0.0-0.0-2.0-1.0-0.0-1.0-0.8","null","fixation","null","<p style='font-size: 48px; color: white'>+</p >","","","","","","","","","","","","","","","","","","","","","","","","","","","","","","","","","","","","","","","","","","","","","","",""
"","","","","","rdk","33","953756","0.0-5.0-0.0-0.0-2.0-1.0-0.0-1.0-1.8","1560","match_RDK","j","","true","[""f"",""j""]","[""j""]","3000","true","1","100","1","180","0.6","0","5","1","-1","3","500","500","hsl(225, 50%, 50%)","hsl(0, 50%, 50%)","white","3000","7","circle","black","3","2","2","16.763440860215052","[15,17,16,17,15,17,17,16,17,16,17,17,17,16,17,16,17,16,16,17,17,17,16,18,16,17,17,17,18,17,16,15,17,17,17,17,18,16,17,17,17,18,17,16,17,17,17,17,17,18,15,17,16,17,17,17,17,17,17,17,17,16,17,17,17,16,17,16,17,17,17,17,17,17,17,16,17,17,17,17,17,17,17,17,17,17,17,17,16,17,17,16,17]","93","600","250","false","20","20","black","1","false","1","1","1200","660","response","j","no","self",""
"","","","","","html-keyboard-response","34","954777","0.0-5.0-0.0-0.0-2.0-1.0-0.0-1.0-2.8","null","","null","<p style='font-size: 60px; color: green'>正确!</p>","","","","","","","","","","","","","","","","","","","","","","","","","","","","","","","","","","","","","","","","","","","","","","",""
"","","","","","html-keyboard-response","35","956298","0.0-5.0-0.0-0.0-2.0-1.0-0.0-1.0-0.9","null","fixation","null","<p style='font-size: 48px; color: white'>+</p >","","","","","","","","","","","","","","","","","","","","","","","","","","","","","","","","","","","","","","","","","","","","","","",""
"","","","","","rdk","36","958325","0.0-5.0-0.0-0.0-2.0-1.0-0.0-1.0-1.9","1015","match_RDK","f","","true","[""f"",""j""]","[""f""]","3000","true","1","100","1","0","0.6","0","5","1","-1","3","500","500","hsl(225, 50%, 50%)","hsl(0, 50%, 50%)","white","3000","7","circle","black","3","2","2","16.557377049180328","[2,17,17,16,17,17,17,16,17,17,16,17,17,17,17,18,17,17,18,16,17,16,18,16,15,17,16,17,17,17,17,17,18,17,17,17,17,16,17,17,17,17,16,16,17,17,16,17,17,18,16,17,17,16,16,17,17,16,17,17,17]","61","600","250","false","20","20","black","1","false","1","1","1200","660","response","f","yes","self",""
"","","","","","html-keyboard-response","37","959346","0.0-5.0-0.0-0.0-2.0-1.0-0.0-1.0-2.9","null","","null","<p style='font-size: 60px; color: green'>正确!</p>","","","","","","","","","","","","","","","","","","","","","","","","","","","","","","","","","","","","","","","","","","","","","","",""
"","","","","","html-keyboard-response","38","960863","0.0-5.0-0.0-0.0-2.0-1.0-0.0-1.0-0.10","null","fixation","null","<p style='font-size: 48px; color: white'>+</p >","","","","","","","","","","","","","","","","","","","","","","","","","","","","","","","","","","","","","","","","","","","","","","",""
"","","","","","rdk","39","963124","0.0-5.0-0.0-0.0-2.0-1.0-0.0-1.0-1.10","1242","match_RDK","f","","true","[""f"",""j""]","[""f""]","3000","true","1","100","1","180","0.6","0","5","1","-1","3","500","500","hsl(225, 50%, 50%)","hsl(0, 50%, 50%)","white","3000","7","circle","black","3","2","2","16.72972972972973","[11,18,16,17,17,17,17,16,18,17,16,17,17,17,17,17,17,17,16,16,17,16,17,16,15,17,17,18,16,17,17,17,17,17,17,17,17,17,17,17,17,16,16,19,15,17,17,17,17,16,18,17,17,18,16,17,16,16,17,17,17,16,17,17,17,17,17,16,16,17,17,17,17,17]","74","600","250","false","20","20","black","1","false","1","1","1200","660","response","f","yes","other",""
"","","","","","html-keyboard-response","40","964145","0.0-5.0-0.0-0.0-2.0-1.0-0.0-1.0-2.10","null","","null","<p style='font-size: 60px; color: green'>正确!</p>","","","","","","","","","","","","","","","","","","","","","","","","","","","","","","","","","","","","","","","","","","","","","","",""
"","","","","","html-keyboard-response","41","965661","0.0-5.0-0.0-0.0-2.0-1.0-0.0-1.0-0.11","null","fixation","null","<p style='font-size: 48px; color: white'>+</p >","","","","","","","","","","","","","","","","","","","","","","","","","","","","","","","","","","","","","","","","","","","","","","",""
"","","","","","rdk","42","967978","0.0-5.0-0.0-0.0-2.0-1.0-0.0-1.0-1.11","1311","match_RDK","j","","true","[""f"",""j""]","[""j""]","3000","true","1","100","1","0","0.6","0","5","1","-1","3","500","500","hsl(225, 50%, 50%)","hsl(0, 50%, 50%)","white","3000","7","circle","black","3","2","2","16.705128205128204","[10,18,17,16,17,16,17,17,16,17,17,17,16,17,17,17,17,17,17,17,16,17,17,16,17,16,17,17,17,17,17,16,15,17,17,17,17,16,17,17,16,17,17,17,17,17,17,17,17,16,17,19,15,17,17,17,17,18,17,17,16,16,17,17,17,17,16,16,17,16,17,17,17,18,17,19,15,16]","78","600","250","false","20","20","black","1","false","1","1","1200","660","response","j","no","other",""
"","","","","","html-keyboard-response","43","968995","0.0-5.0-0.0-0.0-2.0-1.0-0.0-1.0-2.11","null","","null","<p style='font-size: 60px; color: green'>正确!</p>","","","","","","","","","","","","","","","","","","","","","","","","","","","","","","","","","","","","","","","","","","","","","","",""
"","","","","","html-keyboard-response","44","970510","0.0-5.0-0.0-0.0-2.0-1.0-0.0-1.0-0.12","null","fixation","null","<p style='font-size: 48px; color: white'>+</p >","","","","","","","","","","","","","","","","","","","","","","","","","","","","","","","","","","","","","","","","","","","","","","",""
"","","","","","rdk","45","973086","0.0-5.0-0.0-0.0-2.0-1.0-0.0-1.0-1.12","1561","match_RDK","j","","true","[""f"",""j""]","[""j""]","3000","true","1","100","1","180","0.6","0","5","1","-1","3","500","500","hsl(225, 50%, 50%)","hsl(0, 50%, 50%)","white","3000","7","circle","black","3","2","2","16.774193548387096","[21,19,13,17,17,16,17,17,17,16,17,15,17,17,16,18,16,19,15,17,17,17,16,18,16,17,16,20,14,17,17,17,17,17,17,17,17,16,17,17,16,17,17,16,17,16,15,17,17,17,17,17,17,17,16,17,17,16,17,16,17,17,16,17,18,16,18,15,17,17,19,16,16,16,19,16,17,16,17,16,17,16,17,16,17,18,16,17,18,17,17,16,16]","93","600","250","false","20","20","black","1","false","1","1","1200","660","response","j","no","self",""
"","","","","","html-keyboard-response","46","974096","0.0-5.0-0.0-0.0-2.0-1.0-0.0-1.0-2.12","null","","null","<p style='font-size: 60px; color: green'>正确!</p>","","","","","","","","","","","","","","","","","","","","","","","","","","","","","","","","","","","","","","","","","","","","","","",""
"","","","","","html-keyboard-response","47","975609","0.0-5.0-0.0-0.0-2.0-1.0-0.0-1.0-0.13","null","fixation","null","<p style='font-size: 48px; color: white'>+</p >","","","","","","","","","","","","","","","","","","","","","","","","","","","","","","","","","","","","","","","","","","","","","","",""
"","","","","","rdk","48","977989","0.0-5.0-0.0-0.0-2.0-1.0-0.0-1.0-1.13","1375","match_RDK","f","","true","[""f"",""j""]","[""f""]","3000","true","1","100","1","0","0.6","0","5","1","-1","3","500","500","hsl(225, 50%, 50%)","hsl(0, 50%, 50%)","white","3000","7","circle","black","3","2","2","16.73170731707317","[14,17,17,16,17,17,16,17,16,17,17,16,17,17,17,17,16,17,17,17,16,17,16,16,17,17,18,16,17,17,17,17,17,16,17,17,17,16,17,17,17,15,17,17,17,18,15,18,16,17,17,16,17,17,17,17,16,17,16,18,16,17,17,17,18,17,16,17,16,17,16,16,20,15,17,17,17,17,16,17,17,17]","82","600","250","false","20","20","black","1","false","1","1","1200","660","response","f","yes","self",""
"","","","","","html-keyboard-response","49","978998","0.0-5.0-0.0-0.0-2.0-1.0-0.0-1.0-2.13","null","","null","<p style='font-size: 60px; color: green'>正确!</p>","","","","","","","","","","","","","","","","","","","","","","","","","","","","","","","","","","","","","","","","","","","","","","",""
"","","","","","html-keyboard-response","50","980511","0.0-5.0-0.0-0.0-2.0-1.0-0.0-1.0-0.14","null","fixation","null","<p style='font-size: 48px; color: white'>+</p >","","","","","","","","","","","","","","","","","","","","","","","","","","","","","","","","","","","","","","","","","","","","","","",""
"","","","","","rdk","51","983084","0.0-5.0-0.0-0.0-2.0-1.0-0.0-1.0-1.14","1557","match_RDK","j","","true","[""f"",""j""]","[""j""]","3000","true","1","100","1","0","0.6","0","5","1","-1","3","500","500","hsl(225, 50%, 50%)","hsl(0, 50%, 50%)","white","3000","7","circle","black","3","2","2","16.795698924731184","[19,15,17,17,17,16,17,17,17,17,17,16,17,17,16,16,18,16,17,17,17,17,17,17,16,17,16,17,17,17,17,16,16,17,17,17,16,17,16,17,16,17,17,17,17,17,17,16,17,17,17,17,17,17,16,15,17,16,17,16,17,18,16,18,16,17,17,16,18,16,17,16,17,19,16,20,14,17,18,15,17,17,19,15,17,18,16,16,17,17,17,17,18]","93","600","250","false","20","20","black","1","false","1","1","1200","660","response","j","no","other",""
"","","","","","html-keyboard-response","52","984098","0.0-5.0-0.0-0.0-2.0-1.0-0.0-1.0-2.14","null","","null","<p style='font-size: 60px; color: green'>正确!</p>","","","","","","","","","","","","","","","","","","","","","","","","","","","","","","","","","","","","","","","","","","","","","","",""
"","","","","","html-keyboard-response","53","985604","0.0-5.0-0.0-0.0-2.0-1.0-0.0-1.0-0.15","null","fixation","null","<p style='font-size: 48px; color: white'>+</p >","","","","","","","","","","","","","","","","","","","","","","","","","","","","","","","","","","","","","","","","","","","","","","",""
"","","","","","rdk","54","988458","0.0-5.0-0.0-0.0-2.0-1.0-0.0-1.0-1.15","1844","match_RDK","f","","true","[""f"",""j""]","[""f""]","3000","true","1","100","1","180","0.6","0","5","1","-1","3","500","500","hsl(225, 50%, 50%)","hsl(0, 50%, 50%)","white","3000","7","circle","black","3","2","2","16.663636363636364","[23,6,17,17,16,18,17,17,17,17,16,17,16,17,17,17,17,17,16,17,17,17,17,16,17,17,17,17,17,17,16,17,16,17,17,16,17,17,17,17,16,16,17,16,16,17,15,17,16,17,17,17,17,17,16,17,16,17,16,17,16,17,17,16,16,18,16,18,15,17,18,16,15,19,15,17,16,17,17,17,16,17,17,17,16,17,16,16,18,16,17,17,17,17,17,16,16,17,18,16,16,17,17,19,15,17,17,16,17,17]","110","600","250","false","20","20","black","1","false","1","1","1200","660","response","f","yes","other",""
"","","","","","html-keyboard-response","55","989478","0.0-5.0-0.0-0.0-2.0-1.0-0.0-1.0-2.15","null","","null","<p style='font-size: 60px; color: green'>正确!</p>","","","","","","","","","","","","","","","","","","","","","","","","","","","","","","","","","","","","","","","","","","","","","","",""
"","","","","","html-keyboard-response","56","990995","0.0-5.0-0.0-0.0-2.0-1.0-0.0-1.0-0.16","null","fixation","null","<p style='font-size: 48px; color: white'>+</p >","","","","","","","","","","","","","","","","","","","","","","","","","","","","","","","","","","","","","","","","","","","","","","",""
"","","","","","rdk","57","993190","0.0-5.0-0.0-0.0-2.0-1.0-0.0-1.0-1.16","1180","match_RDK","j","","true","[""f"",""j""]","[""j""]","3000","true","1","100","1","0","0.6","0","5","1","-1","3","500","500","hsl(225, 50%, 50%)","hsl(0, 50%, 50%)","white","3000","7","circle","black","3","2","2","16.65714285714286","[13,17,17,16,18,16,17,17,17,16,17,17,19,14,17,16,17,16,16,17,16,16,15,17,17,17,17,17,17,17,16,17,17,17,17,17,17,17,16,16,19,16,16,17,17,16,18,16,17,17,16,17,16,17,16,17,16,16,17,17,17,17,16,18,17,16,17,17,17,17]","70","600","250","false","20","20","black","1","false","1","1","1200","660","response","j","no","other",""
"","","","","","html-keyboard-response","58","994210","0.0-5.0-0.0-0.0-2.0-1.0-0.0-1.0-2.16","null","","null","<p style='font-size: 60px; color: green'>正确!</p>","","","","","","","","","","","","","","","","","","","","","","","","","","","","","","","","","","","","","","","","","","","","","","",""
"","","","","","html-keyboard-response","59","995727","0.0-5.0-0.0-0.0-2.0-1.0-0.0-1.0-0.17","null","fixation","null","<p style='font-size: 48px; color: white'>+</p >","","","","","","","","","","","","","","","","","","","","","","","","","","","","","","","","","","","","","","","","","","","","","","",""
"","","","","","rdk","60","998371","0.0-5.0-0.0-0.0-2.0-1.0-0.0-1.0-1.17","1641","match_RDK","f","","true","[""f"",""j""]","[""f""]","3000","true","1","100","1","180","0.6","0","5","1","-1","3","500","500","hsl(225, 50%, 50%)","hsl(0, 50%, 50%)","white","3000","7","circle","black","3","2","2","16.724489795918366","[14,17,17,17,17,17,17,17,16,17,17,17,17,17,16,16,17,17,17,16,18,16,17,17,16,17,17,17,16,17,17,17,16,17,17,17,17,17,17,17,16,15,17,17,17,17,16,18,16,17,17,18,16,17,17,17,16,17,16,20,17,16,17,17,16,17,17,14,17,16,17,17,17,16,18,17,17,16,16,17,17,17,16,17,16,18,16,17,17,16,17,17,16,17,17,16,17,16]","98","600","250","false","20","20","black","1","false","1","1","1200","660","response","f","yes","other",""
"","","","","","html-keyboard-response","61","999384","0.0-5.0-0.0-0.0-2.0-1.0-0.0-1.0-2.17","null","","null","<p style='font-size: 60px; color: green'>正确!</p>","","","","","","","","","","","","","","","","","","","","","","","","","","","","","","","","","","","","","","","","","","","","","","",""
"","","","","","html-keyboard-response","62","1000895","0.0-5.0-0.0-0.0-2.0-1.0-0.0-1.0-0.18","null","fixation","null","<p style='font-size: 48px; color: white'>+</p >","","","","","","","","","","","","","","","","","","","","","","","","","","","","","","","","","","","","","","","","","","","","","","",""
"","","","","","rdk","63","1002889","0.0-5.0-0.0-0.0-2.0-1.0-0.0-1.0-1.18","990","match_RDK","j","","true","[""f"",""j""]","[""j""]","3000","true","1","100","1","180","0.6","0","5","1","-1","3","500","500","hsl(225, 50%, 50%)","hsl(0, 50%, 50%)","white","3000","7","circle","black","3","2","2","16.76271186440678","[13,16,17,17,17,17,17,17,17,17,17,17,17,16,17,16,17,17,17,17,17,16,17,17,17,16,17,16,15,17,17,17,17,17,16,17,17,16,17,17,18,16,17,17,17,16,17,18,17,17,17,17,17,16,18,17,17,17,17]","59","600","250","false","20","20","black","1","false","1","1","1200","660","response","j","no","self",""
"","","","","","html-keyboard-response","64","1003894","0.0-5.0-0.0-0.0-2.0-1.0-0.0-1.0-2.18","null","","null","<p style='font-size: 60px; color: green'>正确!</p>","","","","","","","","","","","","","","","","","","","","","","","","","","","","","","","","","","","","","","","","","","","","","","",""
"","","","","","html-keyboard-response","65","1005408","0.0-5.0-0.0-0.0-2.0-1.0-0.0-1.0-0.19","null","fixation","null","<p style='font-size: 48px; color: white'>+</p >","","","","","","","","","","","","","","","","","","","","","","","","","","","","","","","","","","","","","","","","","","","","","","",""
"","","","","","rdk","66","1007504","0.0-5.0-0.0-0.0-2.0-1.0-0.0-1.0-1.19","1077","match_RDK","j","","false","[""f"",""j""]","[""f""]","3000","true","1","100","1","0","0.6","0","5","1","-1","3","500","500","hsl(225, 50%, 50%)","hsl(0, 50%, 50%)","white","3000","7","circle","black","3","2","2","16.765625","[16,17,17,17,17,17,17,17,17,17,17,16,17,16,17,17,16,17,17,17,17,16,17,17,17,17,16,17,17,16,17,16,17,17,17,17,17,17,17,17,16,19,15,17,18,15,17,17,17,16,17,16,17,16,17,17,16,17,17,17,17,17,16,17]","64","600","250","false","20","20","black","1","false","1","1","1200","660","response","f","yes","self",""
"","","","","","html-keyboard-response","67","1008514","0.0-5.0-0.0-0.0-2.0-1.0-0.0-1.0-2.19","null","","null","<p style='font-size: 60px; color: red'>错误!</p>","","","","","","","","","","","","","","","","","","","","","","","","","","","","","","","","","","","","","","","","","","","","","","",""
"","","","","","html-keyboard-response","68","1010044","0.0-5.0-0.0-0.0-2.0-1.0-0.0-1.0-0.20","null","fixation","null","<p style='font-size: 48px; color: white'>+</p >","","","","","","","","","","","","","","","","","","","","","","","","","","","","","","","","","","","","","","","","","","","","","","",""
"","","","","","rdk","69","1012816","0.0-5.0-0.0-0.0-2.0-1.0-0.0-1.0-1.20","1760","match_RDK","j","","true","[""f"",""j""]","[""j""]","3000","true","1","100","1","0","0.6","0","5","1","-1","3","500","500","hsl(225, 50%, 50%)","hsl(0, 50%, 50%)","white","3000","7","circle","black","3","2","2","16.641509433962263","[4,19,16,17,16,16,18,16,17,17,16,17,17,17,17,17,17,17,17,17,17,17,16,16,17,17,17,18,16,16,17,17,17,17,16,17,17,17,17,17,17,17,16,17,16,17,17,17,16,17,17,16,16,17,17,17,17,17,16,17,16,17,17,17,16,17,17,17,16,17,17,16,17,17,16,18,16,17,17,17,17,17,16,16,15,17,17,17,16,17,17,17,16,17,16,17,17,17,16,17,17,16,17,18,16,18]","106","600","250","false","20","20","black","1","false","1","1","1200","660","response","j","no","other",""
"","","","","","html-keyboard-response","70","1013832","0.0-5.0-0.0-0.0-2.0-1.0-0.0-1.0-2.20","null","","null","<p style='font-size: 60px; color: green'>正确!</p>","","","","","","","","","","","","","","","","","","","","","","","","","","","","","","","","","","","","","","","","","","","","","","",""
"","","","","","html-keyboard-response","71","1015343","0.0-5.0-0.0-0.0-2.0-1.0-0.0-1.0-0.21","null","fixation","null","<p style='font-size: 48px; color: white'>+</p >","","","","","","","","","","","","","","","","","","","","","","","","","","","","","","","","","","","","","","","","","","","","","","",""
"","","","","","rdk","72","1018368","0.0-5.0-0.0-0.0-2.0-1.0-0.0-1.0-1.21","2022","match_RDK","f","","true","[""f"",""j""]","[""f""]","3000","true","1","100","1","0","0.6","0","5","1","-1","3","500","500","hsl(225, 50%, 50%)","hsl(0, 50%, 50%)","white","3000","7","circle","black","3","2","2","16.768595041322314","[15,17,17,17,15,17,17,17,17,17,17,17,16,18,16,16,17,16,17,17,16,17,17,16,18,17,15,16,17,17,17,17,17,17,17,16,17,16,18,17,17,17,16,18,16,17,17,17,17,17,17,16,17,16,17,16,17,17,16,17,17,16,17,15,17,17,17,17,17,16,17,17,17,16,17,17,17,16,17,17,17,17,18,17,17,17,17,17,17,17,17,17,18,16,17,16,17,16,17,17,17,17,17,16,17,16,17,17,16,17,16,17,17,17,16,17,17,17,17,17,18]","121","600","250","false","20","20","black","1","false","1","1","1200","660","response","f","yes","self",""
"","","","","","html-keyboard-response","73","1019395","0.0-5.0-0.0-0.0-2.0-1.0-0.0-1.0-2.21","null","","null","<p style='font-size: 60px; color: green'>正确!</p>","","","","","","","","","","","","","","","","","","","","","","","","","","","","","","","","","","","","","","","","","","","","","","",""
"","","","","","html-keyboard-response","74","1020913","0.0-5.0-0.0-0.0-2.0-1.0-0.0-1.0-0.22","null","fixation","null","<p style='font-size: 48px; color: white'>+</p >","","","","","","","","","","","","","","","","","","","","","","","","","","","","","","","","","","","","","","","","","","","","","","",""
"","","","","","rdk","75","1023205","0.0-5.0-0.0-0.0-2.0-1.0-0.0-1.0-1.22","1290","match_RDK","j","","true","[""f"",""j""]","[""j""]","3000","true","1","100","1","180","0.6","0","5","1","-1","3","500","500","hsl(225, 50%, 50%)","hsl(0, 50%, 50%)","white","3000","7","circle","black","3","2","2","16.68831168831169","[11,18,16,16,16,17,17,17,16,17,17,16,17,17,17,17,17,17,16,17,17,17,17,16,16,16,17,16,18,16,17,16,17,17,17,17,16,17,17,17,17,16,16,17,17,17,17,16,17,17,17,17,17,17,17,14,17,18,17,17,16,17,17,17,17,17,18,16,16,17,16,18,16,17,17,17,18]","77","600","250","false","20","20","black","1","false","1","1","1200","660","response","j","no","self",""
"","","","","","html-keyboard-response","76","1024228","0.0-5.0-0.0-0.0-2.0-1.0-0.0-1.0-2.22","null","","null","<p style='font-size: 60px; color: green'>正确!</p>","","","","","","","","","","","","","","","","","","","","","","","","","","","","","","","","","","","","","","","","","","","","","","",""
"","","","","","html-keyboard-response","77","1025744","0.0-5.0-0.0-0.0-2.0-1.0-0.0-1.0-0.23","null","fixation","null","<p style='font-size: 48px; color: white'>+</p >","","","","","","","","","","","","","","","","","","","","","","","","","","","","","","","","","","","","","","","","","","","","","","",""
"","","","","","rdk","78","1028355","0.0-5.0-0.0-0.0-2.0-1.0-0.0-1.0-1.23","1593","match_RDK","j","","false","[""f"",""j""]","[""f""]","3000","true","1","100","1","180","0.6","0","5","1","-1","3","500","500","hsl(225, 50%, 50%)","hsl(0, 50%, 50%)","white","3000","7","circle","black","3","2","2","16.74736842105263","[15,16,16,17,17,17,15,19,16,17,17,17,17,17,17,17,17,17,16,17,17,17,17,17,16,16,17,17,17,16,17,16,17,16,15,17,17,17,16,17,17,17,16,17,17,17,17,18,16,17,17,17,17,17,18,17,17,17,17,16,16,17,17,17,18,17,17,16,16,17,17,17,18,16,16,16,17,18,17,17,17,16,16,17,16,17,16,15,17,17,18,17,17,17,16]","95","600","250","false","20","20","black","1","false","1","1","1200","660","response","f","yes","other",""
"","","","","","html-keyboard-response","79","1029377","0.0-5.0-0.0-0.0-2.0-1.0-0.0-1.0-2.23","null","","null","<p style='font-size: 60px; color: red'>错误!</p>","","","","","","","","","","","","","","","","","","","","","","","","","","","","","","","","","","","","","","","","","","","","","","",""
"","","","","","html-keyboard-response","80","1033202","0.0-5.0-0.0-0.0-2.0-1.0-0.0-3.0-0.0","2804","instruction_practiceEnd"," ","
  <div style=""text-align: center; color: white; padding: 30px; font-size: 30px"">
    <p>恭喜您完成练习，请按空格键进入正式任务</p >
    <p> 正式任务仅在 每组 测试结束后提供反馈</p>
  </div>
  ","","","","","","","","","","","","","","","","","","","","","","","","","","","","","","","","","","","","","","","","","","","","","","",""
"","","","","","html-keyboard-response","81","1035258","0.0-5.0-0.0-0.0-3.0-1.0-0.0-0.0","1050","instruction_match_formal"," ","
  <div style=""text-align: center; color: white; padding: 35px; font-size: 35px"">
    <p>请按下空格键开始【正式任务】</p >
  </div>
  ","","","","","","","","","","","","","","","","","","","","","","","","","","","","","","","","","","","","","","","","","","","","","","",""
"","","","","","html-keyboard-response","82","1036761","0.0-5.0-0.0-0.0-3.0-1.0-0.0-1.0-0.0","null","fixation","null","<p style='font-size: 48px; color: white'>+</p >","","","","","","","","","","","","","","","","","","","","","","","","","","","","","","","","","","","","","","","","","","","","","","",""
"","","","","","rdk","83","1039085","0.0-5.0-0.0-0.0-3.0-1.0-0.0-1.0-1.0","1313","match_RDK","f","","true","[""f"",""j""]","[""f""]","3000","true","1","100","1","180","0.6","0","5","1","-1","3","500","500","hsl(225, 50%, 50%)","hsl(0, 50%, 50%)","white","3000","7","circle","black","3","2","2","16.658227848101266","[4,19,15,17,16,17,17,17,17,16,17,17,16,16,17,18,16,15,17,18,16,17,16,18,17,17,18,16,17,17,17,17,17,16,19,15,17,17,17,17,16,17,17,16,17,17,17,17,17,17,17,17,17,17,16,17,17,16,17,17,16,17,17,16,17,17,17,17,17,17,17,16,17,16,18,17,17,16,18]","79","600","250","false","20","20","black","1","false","1","1","1200","660","response","f","yes","other",""
"","","","","","html-keyboard-response","84","1040106","0.0-5.0-0.0-0.0-3.0-1.0-0.0-1.0-0.1","null","fixation","null","<p style='font-size: 48px; color: white'>+</p >","","","","","","","","","","","","","","","","","","","","","","","","","","","","","","","","","","","","","","","","","","","","","","",""
"","","","","","rdk","85","1042582","0.0-5.0-0.0-0.0-3.0-1.0-0.0-1.0-1.1","1472","match_RDK","j","","true","[""f"",""j""]","[""j""]","3000","true","1","100","1","180","0.6","0","5","1","-1","3","500","500","hsl(225, 50%, 50%)","hsl(0, 50%, 50%)","white","3000","7","circle","black","3","2","2","16.795454545454547","[15,17,17,17,17,17,17,15,17,17,17,17,17,17,17,16,17,17,17,17,16,17,17,16,17,17,17,17,16,17,16,17,17,17,17,17,17,17,17,17,17,17,16,18,17,17,17,17,17,17,17,16,17,17,17,17,16,17,17,17,17,17,16,17,16,15,17,17,17,17,17,17,16,17,17,16,17,17,17,16,17,17,17,17,18,16,17,17]","88","600","250","false","20","20","black","1","false","1","1","1200","660","response","j","no","self",""
"","","","","","html-keyboard-response","86","1043613","0.0-5.0-0.0-0.0-3.0-1.0-0.0-1.0-0.2","null","fixation","null","<p style='font-size: 48px; color: white'>+</p >","","","","","","","","","","","","","","","","","","","","","","","","","","","","","","","","","","","","","","","","","","","","","","",""
"","","","","","rdk","87","1045872","0.0-5.0-0.0-0.0-3.0-1.0-0.0-1.0-1.2","1246","match_RDK","j","","true","[""f"",""j""]","[""j""]","3000","true","1","100","1","0","0.6","0","5","1","-1","3","500","500","hsl(225, 50%, 50%)","hsl(0, 50%, 50%)","white","3000","7","circle","black","3","2","2","16.716216216216218","[20,16,15,14,17,17,18,16,17,17,16,17,16,17,17,17,16,18,16,17,16,17,18,17,15,17,17,17,17,17,19,15,18,16,17,16,17,17,16,15,17,17,16,18,16,17,17,17,17,17,16,17,16,17,17,16,17,17,17,17,16,17,16,17,16,16,18,16,17,17,16,17,17,17]","74","600","250","false","20","20","black","1","false","1","1","1200","660","response","j","no","other",""
"","","","","","html-keyboard-response","88","1046880","0.0-5.0-0.0-0.0-3.0-1.0-0.0-1.0-0.3","null","fixation","null","<p style='font-size: 48px; color: white'>+</p >","","","","","","","","","","","","","","","","","","","","","","","","","","","","","","","","","","","","","","","","","","","","","","",""
"","","","","","rdk","89","1048693","0.0-5.0-0.0-0.0-3.0-1.0-0.0-1.0-1.3","808","match_RDK","f","","true","[""f"",""j""]","[""f""]","3000","true","1","100","1","0","0.6","0","5","1","-1","3","500","500","hsl(225, 50%, 50%)","hsl(0, 50%, 50%)","white","3000","7","circle","black","3","2","2","16.416666666666668","[9,19,14,17,17,16,17,17,14,18,17,16,17,18,17,16,16,17,17,16,17,17,17,15,18,16,17,16,17,16,16,17,16,16,17,17,16,17,17,17,16,17,17,16,17,16,16,16]","48","600","250","false","20","20","black","1","false","1","1","1200","660","response","f","yes","self",""
"","","","","","html-keyboard-response","90","1049710","0.0-5.0-0.0-0.0-3.0-1.0-0.0-1.0-0.4","null","fixation","null","<p style='font-size: 48px; color: white'>+</p >","","","","","","","","","","","","","","","","","","","","","","","","","","","","","","","","","","","","","","","","","","","","","","",""
"","","","","","rdk","91","1051586","0.0-5.0-0.0-0.0-3.0-1.0-0.0-1.0-1.4","865","match_RDK","j","","true","[""f"",""j""]","[""j""]","3000","true","1","100","1","180","0.6","0","5","1","-1","3","500","500","hsl(225, 50%, 50%)","hsl(0, 50%, 50%)","white","3000","7","circle","black","3","2","2","16.557692307692307","[4,19,15,20,14,16,17,17,16,17,17,18,16,17,17,17,16,17,17,17,14,20,15,17,17,17,16,17,16,16,18,17,16,17,17,16,17,17,17,16,17,17,17,17,17,17,17,17,17,17,17,17]","52","600","250","false","20","20","black","1","false","1","1","1200","660","response","j","no","self",""
"","","","","","html-keyboard-response","92","1052605","0.0-5.0-0.0-0.0-3.0-1.0-0.0-1.0-0.5","null","fixation","null","<p style='font-size: 48px; color: white'>+</p >","","","","","","","","","","","","","","","","","","","","","","","","","","","","","","","","","","","","","","","","","","","","","","",""
"","","","","","rdk","93","1054519","0.0-5.0-0.0-0.0-3.0-1.0-0.0-1.0-1.5","910","match_RDK","f","","true","[""f"",""j""]","[""f""]","3000","true","1","100","1","0","0.6","0","5","1","-1","3","500","500","hsl(225, 50%, 50%)","hsl(0, 50%, 50%)","white","3000","7","circle","black","3","2","2","16.509090909090908","[2,16,17,17,16,17,17,16,17,17,17,17,17,17,17,17,17,17,16,16,17,16,16,17,17,17,17,17,18,15,17,17,17,17,16,17,17,17,17,17,17,17,16,17,17,17,16,17,17,17,16,17,16,17,18]","55","600","250","false","20","20","black","1","false","1","1","1200","660","response","f","yes","self",""
"","","","","","html-keyboard-response","94","1055527","0.0-5.0-0.0-0.0-3.0-1.0-0.0-1.0-0.6","null","fixation","null","<p style='font-size: 48px; color: white'>+</p >","","","","","","","","","","","","","","","","","","","","","","","","","","","","","","","","","","","","","","","","","","","","","","",""
"","","","","","rdk","95","1057888","0.0-5.0-0.0-0.0-3.0-1.0-0.0-1.0-1.6","1357","match_RDK","j","","true","[""f"",""j""]","[""j""]","3000","true","1","100","1","0","0.6","0","5","1","-1","3","500","500","hsl(225, 50%, 50%)","hsl(0, 50%, 50%)","white","3000","7","circle","black","3","2","2","16.691358024691358","[10,18,16,17,17,17,17,17,17,17,17,16,17,16,17,16,17,17,16,17,17,16,17,17,17,17,17,17,17,16,16,17,15,17,17,17,17,17,17,17,17,16,17,17,16,17,17,16,17,16,17,18,16,17,17,16,17,17,16,17,17,16,17,17,17,17,17,17,17,16,17,16,17,17,16,17,17,17,17,17,18]","81","600","250","false","20","20","black","1","false","1","1","1200","660","response","j","no","other",""
"","","","","","html-keyboard-response","96","1058910","0.0-5.0-0.0-0.0-3.0-1.0-0.0-1.0-0.7","null","fixation","null","<p style='font-size: 48px; color: white'>+</p >","","","","","","","","","","","","","","","","","","","","","","","","","","","","","","","","","","","","","","","","","","","","","","",""
"","","","","","rdk","97","1060728","0.0-5.0-0.0-0.0-3.0-1.0-0.0-1.0-1.7","806","match_RDK","f","","true","[""f"",""j""]","[""f""]","3000","true","1","100","1","180","0.6","0","5","1","-1","3","500","500","hsl(225, 50%, 50%)","hsl(0, 50%, 50%)","white","3000","7","circle","black","3","2","2","16.520833333333332","[4,17,17,17,16,17,16,17,17,17,17,16,17,17,17,16,18,16,17,17,16,17,18,16,16,16,17,17,17,16,18,16,17,17,17,17,18,16,16,17,17,17,17,17,17,16,17,17]","48","600","250","false","20","20","black","1","false","1","1","1200","660","response","f","yes","other",""
"","","","","","html-keyboard-response","98","1061745","0.0-5.0-0.0-0.0-3.0-1.0-0.0-1.0-0.8","null","fixation","null","<p style='font-size: 48px; color: white'>+</p >","","","","","","","","","","","","","","","","","","","","","","","","","","","","","","","","","","","","","","","","","","","","","","",""
"","","","","","rdk","99","1063683","0.0-5.0-0.0-0.0-3.0-1.0-0.0-1.0-1.8","926","match_RDK","j","","true","[""f"",""j""]","[""j""]","3000","true","1","100","1","180","0.6","0","5","1","-1","3","500","500","hsl(225, 50%, 50%)","hsl(0, 50%, 50%)","white","3000","7","circle","black","3","2","2","16.745454545454546","[19,16,17,17,17,17,17,17,17,17,17,18,16,16,19,14,18,15,17,17,17,16,19,14,17,17,17,16,17,17,16,16,17,16,18,16,17,16,17,17,17,17,16,17,17,16,17,17,16,17,17,17,16,16,17]","55","600","250","false","20","20","black","1","false","1","1","1200","660","response","j","no","self",""
"","","","","","html-keyboard-response","100","1064703","0.0-5.0-0.0-0.0-3.0-1.0-0.0-1.0-0.9","null","fixation","null","<p style='font-size: 48px; color: white'>+</p >","","","","","","","","","","","","","","","","","","","","","","","","","","","","","","","","","","","","","","","","","","","","","","",""
"","","","","","rdk","101","1066672","0.0-5.0-0.0-0.0-3.0-1.0-0.0-1.0-1.9","961","match_RDK","f","","true","[""f"",""j""]","[""f""]","3000","true","1","100","1","180","0.6","0","5","1","-1","3","500","500","hsl(225, 50%, 50%)","hsl(0, 50%, 50%)","white","3000","7","circle","black","3","2","2","16.68421052631579","[12,18,17,17,17,17,17,16,17,16,17,17,17,16,17,17,17,17,17,17,16,17,16,17,17,16,17,17,18,16,17,17,17,16,17,17,17,17,17,17,16,17,16,17,16,17,16,17,17,16,17,17,17,16,17,17,16]","57","600","250","false","20","20","black","1","false","1","1","1200","660","response","f","yes","other",""
"","","","","","html-keyboard-response","102","1067677","0.0-5.0-0.0-0.0-3.0-1.0-0.0-1.0-0.10","null","fixation","null","<p style='font-size: 48px; color: white'>+</p >","","","","","","","","","","","","","","","","","","","","","","","","","","","","","","","","","","","","","","","","","","","","","","",""
"","","","","","rdk","103","1069421","0.0-5.0-0.0-0.0-3.0-1.0-0.0-1.0-1.10","727","match_RDK","f","","false","[""f"",""j""]","[""j""]","3000","true","1","100","1","0","0.6","0","5","1","-1","3","500","500","hsl(225, 50%, 50%)","hsl(0, 50%, 50%)","white","3000","7","circle","black","3","2","2","16.813953488372093","[16,17,17,17,16,17,17,16,16,17,17,17,17,17,16,17,17,17,17,17,17,17,17,17,17,17,17,17,17,17,17,17,17,17,16,17,17,16,17,17,17,16,17]","43","600","250","false","20","20","black","1","false","1","1","1200","660","response","j","no","other",""
"","","","","","html-keyboard-response","104","1070428","0.0-5.0-0.0-0.0-3.0-1.0-0.0-1.0-0.11","null","fixation","null","<p style='font-size: 48px; color: white'>+</p >","","","","","","","","","","","","","","","","","","","","","","","","","","","","","","","","","","","","","","","","","","","","","","",""
"","","","","","rdk","105","1073005","0.0-5.0-0.0-0.0-3.0-1.0-0.0-1.0-1.11","1560","match_RDK","f","","true","[""f"",""j""]","[""f""]","3000","true","1","100","1","0","0.6","0","5","1","-1","3","500","500","hsl(225, 50%, 50%)","hsl(0, 50%, 50%)","white","3000","7","circle","black","3","2","2","16.688172043010752","[12,18,17,17,16,17,17,16,16,17,17,17,16,17,16,17,16,18,16,16,17,17,16,17,17,18,16,17,17,16,15,17,16,17,17,17,17,16,17,16,16,17,17,16,17,16,18,16,17,18,16,16,17,17,17,17,17,17,16,17,17,17,17,17,17,16,16,17,17,17,17,17,17,17,17,17,17,16,17,17,17,16,17,17,16,17,17,16,17,17,17,16,18]","93","600","250","false","20","20","black","1","false","1","1","1200","660","response","f","yes","self",""
"","","","","","html-keyboard-response","106","1074028","0.0-5.0-0.0-0.0-3.0-1.0-0.0-1.0-0.12","null","fixation","null","<p style='font-size: 48px; color: white'>+</p >","","","","","","","","","","","","","","","","","","","","","","","","","","","","","","","","","","","","","","","","","","","","","","",""
"","","","","","rdk","107","1075972","0.0-5.0-0.0-0.0-3.0-1.0-0.0-1.0-1.12","935","match_RDK","j","","true","[""f"",""j""]","[""j""]","3000","true","1","100","1","0","0.6","0","5","1","-1","3","500","500","hsl(225, 50%, 50%)","hsl(0, 50%, 50%)","white","3000","7","circle","black","3","2","2","16.607142857142858","[4,19,14,17,19,15,17,17,16,16,18,16,18,16,17,20,14,17,17,16,17,17,17,16,17,17,17,17,17,17,17,17,17,17,16,17,16,17,17,17,16,17,17,16,17,17,17,16,18,16,17,17,17,17,17,18]","56","600","250","false","20","20","black","1","false","1","1","1200","660","response","j","no","other",""
"","","","","","html-keyboard-response","108","1076993","0.0-5.0-0.0-0.0-3.0-1.0-0.0-1.0-0.13","null","fixation","null","<p style='font-size: 48px; color: white'>+</p >","","","","","","","","","","","","","","","","","","","","","","","","","","","","","","","","","","","","","","","","","","","","","","",""
"","","","","","rdk","109","1078853","0.0-5.0-0.0-0.0-3.0-1.0-0.0-1.0-1.13","847","match_RDK","j","","true","[""f"",""j""]","[""j""]","3000","true","1","100","1","180","0.6","0","5","1","-1","3","500","500","hsl(225, 50%, 50%)","hsl(0, 50%, 50%)","white","3000","7","circle","black","3","2","2","16.88","[19,16,17,17,17,17,17,16,17,17,15,18,15,17,18,16,17,16,17,17,17,17,17,17,17,17,16,17,17,17,16,17,17,17,17,17,17,17,17,17,17,17,17,17,17,17,17,17,17,17]","50","600","250","false","20","20","black","1","false","1","1","1200","660","response","j","no","self",""
"","","","","","html-keyboard-response","110","1079872","0.0-5.0-0.0-0.0-3.0-1.0-0.0-1.0-0.14","null","fixation","null","<p style='font-size: 48px; color: white'>+</p >","","","","","","","","","","","","","","","","","","","","","","","","","","","","","","","","","","","","","","","","","","","","","","",""
"","","","","","rdk","111","1081776","0.0-5.0-0.0-0.0-3.0-1.0-0.0-1.0-1.14","885","match_RDK","f","","true","[""f"",""j""]","[""f""]","3000","true","1","100","1","180","0.6","0","5","1","-1","3","500","500","hsl(225, 50%, 50%)","hsl(0, 50%, 50%)","white","3000","7","circle","black","3","2","2","16.846153846153847","[20,18,15,17,17,17,17,17,17,16,17,16,17,17,17,17,17,17,17,17,16,17,17,17,16,17,17,17,17,16,17,17,17,16,17,17,17,17,17,17,17,16,17,17,16,17,17,17,17,16,17,16]","52","600","250","false","20","20","black","1","false","1","1","1200","660","response","f","yes","other",""
"","","","","","html-keyboard-response","112","1082793","0.0-5.0-0.0-0.0-3.0-1.0-0.0-1.0-0.15","null","fixation","null","<p style='font-size: 48px; color: white'>+</p >","","","","","","","","","","","","","","","","","","","","","","","","","","","","","","","","","","","","","","","","","","","","","","",""
"","","","","","rdk","113","1084630","0.0-5.0-0.0-0.0-3.0-1.0-0.0-1.0-1.15","832","match_RDK","f","","true","[""f"",""j""]","[""f""]","3000","true","1","100","1","0","0.6","0","5","1","-1","3","500","500","hsl(225, 50%, 50%)","hsl(0, 50%, 50%)","white","3000","7","circle","black","3","2","2","16.62","[11,17,17,17,17,19,15,17,17,17,18,17,17,16,17,17,16,17,17,16,17,17,17,17,16,15,17,17,17,17,17,17,17,17,16,17,16,17,17,16,17,16,17,17,16,17,15,17,16,17]","50","600","250","false","20","20","black","1","false","1","1","1200","660","response","f","yes","self",""
"","","","","","html-keyboard-response","114","1085645","0.0-5.0-0.0-0.0-3.0-1.0-0.0-1.0-0.16","null","fixation","null","<p style='font-size: 48px; color: white'>+</p >","","","","","","","","","","","","","","","","","","","","","","","","","","","","","","","","","","","","","","","","","","","","","","",""
"","","","","","rdk","115","1087755","0.0-5.0-0.0-0.0-3.0-1.0-0.0-1.0-1.16","1094","match_RDK","f","","true","[""f"",""j""]","[""f""]","3000","true","1","100","1","0","0.6","0","5","1","-1","3","500","500","hsl(225, 50%, 50%)","hsl(0, 50%, 50%)","white","3000","7","circle","black","3","2","2","16.815384615384616","[15,17,16,16,17,17,17,17,17,16,17,17,17,17,17,16,17,17,17,17,17,16,15,17,17,17,18,16,17,16,18,16,17,17,16,17,16,17,16,17,17,19,16,17,16,17,18,16,18,17,17,17,17,17,17,17,17,16,17,17,17,17,17,16,19]","65","600","250","false","20","20","black","1","false","1","1","1200","660","response","f","yes","self",""
"","","","","","html-keyboard-response","116","1088776","0.0-5.0-0.0-0.0-3.0-1.0-0.0-1.0-0.17","null","fixation","null","<p style='font-size: 48px; color: white'>+</p >","","","","","","","","","","","","","","","","","","","","","","","","","","","","","","","","","","","","","","","","","","","","","","",""
"","","","","","rdk","117","1090747","0.0-5.0-0.0-0.0-3.0-1.0-0.0-1.0-1.17","962","match_RDK","f","","true","[""f"",""j""]","[""f""]","3000","true","1","100","1","180","0.6","0","5","1","-1","3","500","500","hsl(225, 50%, 50%)","hsl(0, 50%, 50%)","white","3000","7","circle","black","3","2","2","16.603448275862068","[8,18,16,17,17,17,17,17,15,17,17,16,17,17,17,17,17,17,17,17,16,17,17,17,17,15,16,16,17,16,17,17,16,17,17,17,17,16,18,16,20,15,16,18,16,17,17,16,17,16,17,17,17,17,16,17,18,16]","58","600","250","false","20","20","black","1","false","1","1","1200","660","response","f","yes","other",""
"","","","","","html-keyboard-response","118","1091775","0.0-5.0-0.0-0.0-3.0-1.0-0.0-1.0-0.18","null","fixation","null","<p style='font-size: 48px; color: white'>+</p >","","","","","","","","","","","","","","","","","","","","","","","","","","","","","","","","","","","","","","","","","","","","","","",""
"","","","","","rdk","119","1093885","0.0-5.0-0.0-0.0-3.0-1.0-0.0-1.0-1.18","1100","match_RDK","j","","true","[""f"",""j""]","[""j""]","3000","true","1","100","1","0","0.6","0","5","1","-1","3","500","500","hsl(225, 50%, 50%)","hsl(0, 50%, 50%)","white","3000","7","circle","black","3","2","2","16.575757575757574","[7,16,16,17,17,16,17,16,17,17,16,17,16,17,17,17,17,16,17,17,17,17,16,17,17,17,17,17,16,17,17,17,17,17,17,16,17,17,16,18,17,16,17,16,17,17,16,17,17,16,17,16,17,16,17,17,17,17,17,17,17,16,17,17,16,17]","66","600","250","false","20","20","black","1","false","1","1","1200","660","response","j","no","other",""
"","","","","","html-keyboard-response","120","1094903","0.0-5.0-0.0-0.0-3.0-1.0-0.0-1.0-0.19","null","fixation","null","<p style='font-size: 48px; color: white'>+</p >","","","","","","","","","","","","","","","","","","","","","","","","","","","","","","","","","","","","","","","","","","","","","","",""
"","","","","","rdk","121","1097170","0.0-5.0-0.0-0.0-3.0-1.0-0.0-1.0-1.19","1259","match_RDK","j","","true","[""f"",""j""]","[""j""]","3000","true","1","100","1","180","0.6","0","5","1","-1","3","500","500","hsl(225, 50%, 50%)","hsl(0, 50%, 50%)","white","3000","7","circle","black","3","2","2","16.72","[13,17,17,16,16,16,17,17,17,17,17,17,17,17,17,17,17,17,17,17,17,16,16,17,17,17,17,17,17,17,17,14,19,15,17,17,17,18,17,17,16,17,17,16,17,17,17,16,17,17,17,17,16,17,17,17,17,16,16,15,17,17,18,16,17,17,17,17,17,16,17,17,17,16,17]","75","600","250","false","20","20","black","1","false","1","1","1200","660","response","j","no","self",""
"","","","","","html-keyboard-response","122","1098178","0.0-5.0-0.0-0.0-3.0-1.0-0.0-1.0-0.20","null","fixation","null","<p style='font-size: 48px; color: white'>+</p >","","","","","","","","","","","","","","","","","","","","","","","","","","","","","","","","","","","","","","","","","","","","","","",""
"","","","","","rdk","123","1100007","0.0-5.0-0.0-0.0-3.0-1.0-0.0-1.0-1.20","821","match_RDK","j","","false","[""f"",""j""]","[""f""]","3000","true","1","100","1","180","0.6","0","5","1","-1","3","500","500","hsl(225, 50%, 50%)","hsl(0, 50%, 50%)","white","3000","7","circle","black","3","2","2","16.551020408163264","[5,17,17,17,17,17,17,17,17,17,16,17,14,17,17,17,17,17,17,17,17,17,17,16,17,17,17,17,17,16,17,17,17,17,17,17,17,16,17,16,18,16,17,17,17,16,17,17,16]","49","600","250","false","20","20","black","1","false","1","1","1200","660","response","f","yes","other",""
"","","","","","html-keyboard-response","124","1101027","0.0-5.0-0.0-0.0-3.0-1.0-0.0-1.0-0.21","null","fixation","null","<p style='font-size: 48px; color: white'>+</p >","","","","","","","","","","","","","","","","","","","","","","","","","","","","","","","","","","","","","","","","","","","","","","",""
"","","","","","rdk","125","1103073","0.0-5.0-0.0-0.0-3.0-1.0-0.0-1.0-1.21","1032","match_RDK","f","","true","[""f"",""j""]","[""f""]","3000","true","1","100","1","0","0.6","0","5","1","-1","3","500","500","hsl(225, 50%, 50%)","hsl(0, 50%, 50%)","white","3000","7","circle","black","3","2","2","16.580645161290324","[2,17,17,16,17,17,17,17,17,17,17,18,17,17,16,17,15,18,17,16,17,17,17,17,16,17,16,17,17,17,17,17,17,16,17,17,17,17,17,17,16,17,17,17,17,16,17,17,17,17,17,17,16,17,16,17,17,16,17,17,17,17]","62","600","250","false","20","20","black","1","false","1","1","1200","660","response","f","yes","self",""
"","","","","","html-keyboard-response","126","1104096","0.0-5.0-0.0-0.0-3.0-1.0-0.0-1.0-0.22","null","fixation","null","<p style='font-size: 48px; color: white'>+</p >","","","","","","","","","","","","","","","","","","","","","","","","","","","","","","","","","","","","","","","","","","","","","","",""
"","","","","","rdk","127","1106075","0.0-5.0-0.0-0.0-3.0-1.0-0.0-1.0-1.22","972","match_RDK","j","","true","[""f"",""j""]","[""j""]","3000","true","1","100","1","180","0.6","0","5","1","-1","3","500","500","hsl(225, 50%, 50%)","hsl(0, 50%, 50%)","white","3000","7","circle","black","3","2","2","16.620689655172413","[2,17,18,16,17,17,16,18,16,17,16,17,17,17,17,17,17,16,17,16,17,16,17,17,17,16,17,17,17,17,17,17,17,17,17,17,17,17,17,17,17,17,17,17,17,17,16,19,15,17,18,16,17,17,17,18,16,17]","58","600","250","false","20","20","black","1","false","1","1","1200","660","response","j","no","self",""
"","","","","","html-keyboard-response","128","1107090","0.0-5.0-0.0-0.0-3.0-1.0-0.0-1.0-0.23","null","fixation","null","<p style='font-size: 48px; color: white'>+</p >","","","","","","","","","","","","","","","","","","","","","","","","","","","","","","","","","","","","","","","","","","","","","","",""
"","","","","","rdk","129","1109253","0.0-5.0-0.0-0.0-3.0-1.0-0.0-1.0-1.23","1154","match_RDK","j","","true","[""f"",""j""]","[""j""]","3000","true","1","100","1","0","0.6","0","5","1","-1","3","500","500","hsl(225, 50%, 50%)","hsl(0, 50%, 50%)","white","3000","7","circle","black","3","2","2","16.666666666666668","[7,17,14,16,17,17,17,18,18,16,17,17,17,16,16,17,17,17,18,17,17,16,17,17,16,17,17,17,17,17,17,17,17,16,17,17,17,16,17,17,17,17,17,17,17,17,16,17,17,17,17,16,17,17,17,17,17,16,17,17,17,16,17,16,17,17,17,17,17]","69","600","250","false","20","20","black","1","false","1","1","1200","660","response","j","no","other",""
"","","","","","html-keyboard-response","130","1110260","0.0-5.0-0.0-0.0-3.0-1.0-0.0-1.0-0.24","null","fixation","null","<p style='font-size: 48px; color: white'>+</p >","","","","","","","","","","","","","","","","","","","","","","","","","","","","","","","","","","","","","","","","","","","","","","",""
"","","","","","rdk","131","1112230","0.0-5.0-0.0-0.0-3.0-1.0-0.0-1.0-1.24","952","match_RDK","f","","true","[""f"",""j""]","[""f""]","3000","true","1","100","1","0","0.6","0","5","1","-1","3","500","500","hsl(225, 50%, 50%)","hsl(0, 50%, 50%)","white","3000","7","circle","black","3","2","2","16.68421052631579","[10,18,16,17,17,17,16,17,16,17,17,17,17,16,17,17,16,17,17,17,17,17,16,17,17,16,17,17,17,17,16,17,16,15,17,17,17,17,17,16,17,17,17,16,17,17,17,17,17,17,16,19,16,17,17,17,18]","57","600","250","false","20","20","black","1","false","1","1","1200","660","response","f","yes","self",""
"","","","","","html-keyboard-response","132","1113246","0.0-5.0-0.0-0.0-3.0-1.0-0.0-1.0-0.25","null","fixation","null","<p style='font-size: 48px; color: white'>+</p >","","","","","","","","","","","","","","","","","","","","","","","","","","","","","","","","","","","","","","","","","","","","","","",""
"","","","","","rdk","133","1115064","0.0-5.0-0.0-0.0-3.0-1.0-0.0-1.0-1.25","806","match_RDK","j","","true","[""f"",""j""]","[""j""]","3000","true","1","100","1","180","0.6","0","5","1","-1","3","500","500","hsl(225, 50%, 50%)","hsl(0, 50%, 50%)","white","3000","7","circle","black","3","2","2","16.510204081632654","[3,14,15,17,17,17,17,16,17,17,17,17,17,18,16,17,17,17,16,16,17,19,15,18,16,17,17,18,16,17,15,17,17,17,18,17,17,17,17,17,17,17,18,15,16,18,15,18,18]","49","600","250","false","20","20","black","1","false","1","1","1200","660","response","j","no","self",""
"","","","","","html-keyboard-response","134","1116077","0.0-5.0-0.0-0.0-3.0-1.0-0.0-1.0-0.26","null","fixation","null","<p style='font-size: 48px; color: white'>+</p >","","","","","","","","","","","","","","","","","","","","","","","","","","","","","","","","","","","","","","","","","","","","","","",""
"","","","","","rdk","135","1118796","0.0-5.0-0.0-0.0-3.0-1.0-0.0-1.0-1.26","1708","match_RDK","j","","true","[""f"",""j""]","[""j""]","3000","true","1","100","1","0","0.6","0","5","1","-1","3","500","500","hsl(225, 50%, 50%)","hsl(0, 50%, 50%)","white","3000","7","circle","black","3","2","2","16.601941747572816","[3,18,16,17,16,17,17,17,17,17,17,18,16,17,17,17,16,17,17,17,17,16,17,16,17,17,16,17,17,16,17,17,17,17,16,17,17,16,17,16,17,17,16,16,17,16,17,16,17,17,17,17,17,17,17,17,16,16,17,17,16,17,17,17,17,17,17,17,17,16,17,17,16,17,17,17,17,16,16,17,17,16,17,17,16,16,17,17,17,17,16,17,17,17,16,17,17,16,18,16,17,17,16]","103","600","250","false","20","20","black","1","false","1","1","1200","660","response","j","no","other",""
"","","","","","html-keyboard-response","136","1119822","0.0-5.0-0.0-0.0-3.0-1.0-0.0-1.0-0.27","null","fixation","null","<p style='font-size: 48px; color: white'>+</p >","","","","","","","","","","","","","","","","","","","","","","","","","","","","","","","","","","","","","","","","","","","","","","",""
"","","","","","rdk","137","1121767","0.0-5.0-0.0-0.0-3.0-1.0-0.0-1.0-1.27","942","match_RDK","f","","true","[""f"",""j""]","[""f""]","3000","true","1","100","1","180","0.6","0","5","1","-1","3","500","500","hsl(225, 50%, 50%)","hsl(0, 50%, 50%)","white","3000","7","circle","black","3","2","2","16.875","[16,17,18,16,17,17,17,17,17,16,17,17,17,17,17,17,17,16,17,17,17,17,17,17,17,17,17,17,17,17,17,17,17,17,16,17,17,17,17,17,17,16,17,17,17,16,17,17,17,17,17,16,17,17,17,17]","56","600","250","false","20","20","black","1","false","1","1","1200","660","response","f","yes","other",""
"","","","","","html-keyboard-response","138","1122774","0.0-5.0-0.0-0.0-3.0-1.0-0.0-1.0-0.28","null","fixation","null","<p style='font-size: 48px; color: white'>+</p >","","","","","","","","","","","","","","","","","","","","","","","","","","","","","","","","","","","","","","","","","","","","","","",""
"","","","","","rdk","139","1124620","0.0-5.0-0.0-0.0-3.0-1.0-0.0-1.0-1.28","830","match_RDK","f","","true","[""f"",""j""]","[""f""]","3000","true","1","100","1","180","0.6","0","5","1","-1","3","500","500","hsl(225, 50%, 50%)","hsl(0, 50%, 50%)","white","3000","7","circle","black","3","2","2","16.46","[2,16,16,17,16,18,14,19,15,17,17,19,16,17,17,17,17,17,17,16,17,17,16,17,17,17,16,17,16,17,14,17,17,17,16,17,17,17,16,17,16,18,16,17,17,16,16,16,17,22]","50","600","250","false","20","20","black","1","false","1","1","1200","660","response","f","yes","other",""
"","","","","","html-keyboard-response","140","1125630","0.0-5.0-0.0-0.0-3.0-1.0-0.0-1.0-0.29","null","fixation","null","<p style='font-size: 48px; color: white'>+</p >","","","","","","","","","","","","","","","","","","","","","","","","","","","","","","","","","","","","","","","","","","","","","","",""
"","","","","","rdk","141","1127521","0.0-5.0-0.0-0.0-3.0-1.0-0.0-1.0-1.29","878","match_RDK","j","","true","[""f"",""j""]","[""j""]","3000","true","1","100","1","180","0.6","0","5","1","-1","3","500","500","hsl(225, 50%, 50%)","hsl(0, 50%, 50%)","white","3000","7","circle","black","3","2","2","16.75","[14,17,16,17,16,16,15,17,17,18,16,17,17,18,16,18,16,17,16,16,17,16,17,17,17,19,16,17,17,17,17,16,16,17,17,17,20,14,17,17,17,17,17,17,17,17,17,17,16,17,17,17]","52","600","250","false","20","20","black","1","false","1","1","1200","660","response","j","no","self",""
"","","","","","html-keyboard-response","142","1128544","0.0-5.0-0.0-0.0-3.0-1.0-0.0-1.0-0.30","null","fixation","null","<p style='font-size: 48px; color: white'>+</p >","","","","","","","","","","","","","","","","","","","","","","","","","","","","","","","","","","","","","","","","","","","","","","",""
"","","","","","rdk","143","1130897","0.0-5.0-0.0-0.0-3.0-1.0-0.0-1.0-1.30","1346","match_RDK","j","","true","[""f"",""j""]","[""j""]","3000","true","1","100","1","0","0.6","0","5","1","-1","3","500","500","hsl(225, 50%, 50%)","hsl(0, 50%, 50%)","white","3000","7","circle","black","3","2","2","16.691358024691358","[6,20,16,17,17,17,16,16,17,16,17,17,17,17,17,17,17,17,16,17,17,17,16,17,17,17,16,17,17,17,17,16,17,17,17,16,17,17,16,18,17,16,17,17,16,17,16,18,16,17,17,17,16,17,17,17,17,17,17,17,17,16,17,17,16,18,16,16,16,17,17,17,17,17,17,17,17,17,16,17,18]","81","600","250","false","20","20","black","1","false","1","1","1200","660","response","j","no","other",""
"","","","","","html-keyboard-response","144","1131922","0.0-5.0-0.0-0.0-3.0-1.0-0.0-1.0-0.31","null","fixation","null","<p style='font-size: 48px; color: white'>+</p >","","","","","","","","","","","","","","","","","","","","","","","","","","","","","","","","","","","","","","","","","","","","","","",""
"","","","","","rdk","145","1134220","0.0-5.0-0.0-0.0-3.0-1.0-0.0-1.0-1.31","1283","match_RDK","f","","true","[""f"",""j""]","[""f""]","3000","true","1","100","1","0","0.6","0","5","1","-1","3","500","500","hsl(225, 50%, 50%)","hsl(0, 50%, 50%)","white","3000","7","circle","black","3","2","2","16.558441558441558","[4,14,17,15,17,17,19,15,19,15,17,17,17,17,17,16,16,17,17,17,17,17,16,17,17,17,17,17,17,17,17,17,17,17,16,17,19,14,17,17,17,17,17,16,17,17,14,19,15,17,18,17,17,17,16,17,17,17,16,17,17,17,17,17,17,17,17,17,16,17,16,17,16,15,17,16,17]","77","600","250","false","20","20","black","1","false","1","1","1200","660","response","f","yes","self",""
"","","","","","html-keyboard-response","146","1135229","0.0-5.0-0.0-0.0-3.0-1.0-0.0-1.0-0.32","null","fixation","null","<p style='font-size: 48px; color: white'>+</p >","","","","","","","","","","","","","","","","","","","","","","","","","","","","","","","","","","","","","","","","","","","","","","",""
"","","","","","rdk","147","1136999","0.0-5.0-0.0-0.0-3.0-1.0-0.0-1.0-1.32","758","match_RDK","j","","true","[""f"",""j""]","[""j""]","3000","true","1","100","1","180","0.6","0","5","1","-1","3","500","500","hsl(225, 50%, 50%)","hsl(0, 50%, 50%)","white","3000","7","circle","black","3","2","2","16.68888888888889","[14,17,17,17,17,17,17,17,16,17,16,16,16,17,17,17,16,17,17,18,17,17,14,17,17,17,17,16,17,17,17,17,17,16,17,17,16,17,16,17,16,17,18,17,17]","45","600","250","false","20","20","black","1","false","1","1","1200","660","response","j","no","self",""
"","","","","","html-keyboard-response","148","1138013","0.0-5.0-0.0-0.0-3.0-1.0-0.0-1.0-0.33","null","fixation","null","<p style='font-size: 48px; color: white'>+</p >","","","","","","","","","","","","","","","","","","","","","","","","","","","","","","","","","","","","","","","","","","","","","","",""
"","","","","","rdk","149","1139866","0.0-5.0-0.0-0.0-3.0-1.0-0.0-1.0-1.33","842","match_RDK","j","","true","[""f"",""j""]","[""j""]","3000","true","1","100","1","0","0.6","0","5","1","-1","3","500","500","hsl(225, 50%, 50%)","hsl(0, 50%, 50%)","white","3000","7","circle","black","3","2","2","16.7","[16,17,15,16,17,17,16,17,17,17,17,17,17,16,17,17,17,17,17,16,17,17,17,16,17,19,14,17,16,17,17,17,16,17,17,17,17,17,17,16,17,17,17,17,16,17,18,15,17,16]","50","600","250","false","20","20","black","1","false","1","1","1200","660","response","j","no","other",""
"","","","","","html-keyboard-response","150","1140890","0.0-5.0-0.0-0.0-3.0-1.0-0.0-1.0-0.34","null","fixation","null","<p style='font-size: 48px; color: white'>+</p >","","","","","","","","","","","","","","","","","","","","","","","","","","","","","","","","","","","","","","","","","","","","","","",""
"","","","","","rdk","151","1143072","0.0-5.0-0.0-0.0-3.0-1.0-0.0-1.0-1.34","1172","match_RDK","f","","true","[""f"",""j""]","[""f""]","3000","true","1","100","1","0","0.6","0","5","1","-1","3","500","500","hsl(225, 50%, 50%)","hsl(0, 50%, 50%)","white","3000","7","circle","black","3","2","2","16.685714285714287","[6,17,17,16,18,18,16,17,16,17,17,17,17,17,16,17,17,17,18,16,17,17,17,17,17,16,17,17,17,17,17,17,17,17,16,17,16,17,18,16,17,17,17,17,16,17,17,16,17,17,16,17,17,15,19,16,17,17,17,17,17,17,17,17,17,16,17,16,17,17]","70","600","250","false","20","20","black","1","false","1","1","1200","660","response","f","yes","self",""
"","","","","","html-keyboard-response","152","1144076","0.0-5.0-0.0-0.0-3.0-1.0-0.0-1.0-0.35","null","fixation","null","<p style='font-size: 48px; color: white'>+</p >","","","","","","","","","","","","","","","","","","","","","","","","","","","","","","","","","","","","","","","","","","","","","","",""
"","","","","","rdk","153","1146374","0.0-5.0-0.0-0.0-3.0-1.0-0.0-1.0-1.35","1286","match_RDK","f","","true","[""f"",""j""]","[""f""]","3000","true","1","100","1","180","0.6","0","5","1","-1","3","500","500","hsl(225, 50%, 50%)","hsl(0, 50%, 50%)","white","3000","7","circle","black","3","2","2","16.649350649350648","[3,18,16,17,16,17,16,17,17,17,17,17,17,18,16,17,17,16,17,17,17,17,17,16,17,17,19,14,18,16,17,17,16,20,14,17,17,17,17,17,17,17,17,17,16,17,17,16,17,17,17,17,17,17,16,17,16,17,17,17,16,17,17,17,16,17,17,17,17,17,17,17,17,16,17,17,17]","77","600","250","false","20","20","black","1","false","1","1","1200","660","response","f","yes","other",""
"","","","","","html-keyboard-response","154","1147392","0.0-5.0-0.0-0.0-3.0-1.0-0.0-1.0-0.36","null","fixation","null","<p style='font-size: 48px; color: white'>+</p >","","","","","","","","","","","","","","","","","","","","","","","","","","","","","","","","","","","","","","","","","","","","","","",""
"","","","","","rdk","155","1150705","0.0-5.0-0.0-0.0-3.0-1.0-0.0-1.0-1.36","2296","match_RDK","j","","true","[""f"",""j""]","[""j""]","3000","true","1","100","1","180","0.6","0","5","1","-1","3","500","500","hsl(225, 50%, 50%)","hsl(0, 50%, 50%)","white","3000","7","circle","black","3","2","2","16.773722627737225","[16,17,17,17,17,16,15,17,16,17,17,17,17,17,17,17,17,17,17,17,16,16,18,17,17,15,17,17,17,17,18,16,17,16,16,17,17,17,17,17,17,17,17,17,15,16,17,18,16,17,16,17,17,16,17,17,16,17,17,17,16,17,17,17,17,17,17,17,17,16,16,17,17,17,17,17,18,17,17,17,17,17,17,17,17,17,16,17,17,17,16,17,17,17,17,17,16,17,17,17,16,17,17,17,17,17,17,17,17,17,17,17,16,17,16,17,16,18,16,17,17,17,16,17,16,16,17,17,16,17,17,17,18,15,17,17,16]","137","600","250","false","20","20","black","1","false","1","1","1200","660","response","j","no","self",""
"","","","","","html-keyboard-response","156","1151708","0.0-5.0-0.0-0.0-3.0-1.0-0.0-1.0-0.37","null","fixation","null","<p style='font-size: 48px; color: white'>+</p >","","","","","","","","","","","","","","","","","","","","","","","","","","","","","","","","","","","","","","","","","","","","","","",""
"","","","","","rdk","157","1154018","0.0-5.0-0.0-0.0-3.0-1.0-0.0-1.0-1.37","1297","match_RDK","f","","true","[""f"",""j""]","[""f""]","3000","true","1","100","1","0","0.6","0","5","1","-1","3","500","500","hsl(225, 50%, 50%)","hsl(0, 50%, 50%)","white","3000","7","circle","black","3","2","2","16.92207792207792","[19,15,18,17,17,16,15,18,16,17,16,17,20,15,17,17,17,15,18,16,19,16,16,17,17,17,17,17,17,16,17,17,17,16,17,17,17,17,17,17,17,17,16,17,17,17,16,17,17,17,17,17,17,16,17,17,17,17,16,17,17,17,17,17,17,17,17,17,17,17,17,17,17,17,17,17,21]","77","600","250","false","20","20","black","1","false","1","1","1200","660","response","f","yes","self",""
"","","","","","html-keyboard-response","158","1155025","0.0-5.0-0.0-0.0-3.0-1.0-0.0-1.0-0.38","null","fixation","null","<p style='font-size: 48px; color: white'>+</p >","","","","","","","","","","","","","","","","","","","","","","","","","","","","","","","","","","","","","","","","","","","","","","",""
"","","","","","rdk","159","1156831","0.0-5.0-0.0-0.0-3.0-1.0-0.0-1.0-1.38","794","match_RDK","f","","true","[""f"",""j""]","[""f""]","3000","true","1","100","1","180","0.6","0","5","1","-1","3","500","500","hsl(225, 50%, 50%)","hsl(0, 50%, 50%)","white","3000","7","circle","black","3","2","2","16.80851063829787","[22,15,16,16,17,17,16,17,18,16,17,17,17,17,17,16,17,17,17,17,17,17,17,16,17,17,17,16,17,17,16,17,16,15,17,17,17,18,16,17,17,17,16,17,17,16,17]","47","600","250","false","20","20","black","1","false","1","1","1200","660","response","f","yes","other",""
"","","","","","html-keyboard-response","160","1157846","0.0-5.0-0.0-0.0-3.0-1.0-0.0-1.0-0.39","null","fixation","null","<p style='font-size: 48px; color: white'>+</p >","","","","","","","","","","","","","","","","","","","","","","","","","","","","","","","","","","","","","","","","","","","","","","",""
"","","","","","rdk","161","1159795","0.0-5.0-0.0-0.0-3.0-1.0-0.0-1.0-1.39","935","match_RDK","j","","true","[""f"",""j""]","[""j""]","3000","true","1","100","1","0","0.6","0","5","1","-1","3","500","500","hsl(225, 50%, 50%)","hsl(0, 50%, 50%)","white","3000","7","circle","black","3","2","2","16.571428571428573","[8,17,16,16,17,17,17,17,17,17,16,16,17,17,17,16,17,16,17,17,16,17,17,17,15,17,17,17,17,17,17,16,18,15,17,17,16,17,16,17,16,17,17,18,16,16,17,17,17,17,17,18,16,17,16,18]","56","600","250","false","20","20","black","1","false","1","1","1200","660","response","j","no","other",""
"","","","","","html-keyboard-response","162","1163321","0.0-5.0-0.0-0.0-3.0-1.0-0.0-2.0","null","","null","<p style='font-size: 35px; color: white'>这组测试中，您正确回答了： 95% 的试次。平均反应时为：1074毫秒。</p>","","","","","","","","","","","","","","","","","","","","","","","","","","","","","","","","","","","","","","","","","","","","","","",""
"","","","","","html-keyboard-response","163","1166069","0.0-5.0-0.0-0.0-3.0-1.0-0.0-3.0","1732","instruction_rest"," ","
  <div style=""text-align: center; color: white; padding: 35px; font-size: 35px"">
    <p>请休息一下，若准备好可按空格键继续</p >
  </div>
  ","","","","","","","","","","","","","","","","","","","","","","","","","","","","","","","","","","","","","","","","","","","","","","",""
"","","","","","html-keyboard-response","164","1167593","0.0-5.0-0.0-0.0-3.0-1.0-0.0-4.0-0.0","null","fixation","null","<p style='font-size: 48px; color: white'>+</p >","","","","","","","","","","","","","","","","","","","","","","","","","","","","","","","","","","","","","","","","","","","","","","",""
"","","","","","rdk","165","1169427","0.0-5.0-0.0-0.0-3.0-1.0-0.0-4.0-1.0","830","match_RDK","f","","true","[""f"",""j""]","[""f""]","3000","true","1","100","1","180","0.6","0","5","1","-1","3","500","500","hsl(225, 50%, 50%)","hsl(0, 50%, 50%)","white","3000","7","circle","black","3","2","2","16.54","[10,17,18,16,17,17,16,17,17,17,16,17,16,17,17,17,17,16,17,17,16,16,17,17,17,16,16,17,17,17,16,17,17,15,17,17,17,16,16,16,18,16,17,17,17,16,17,17,17,16]","50","600","250","false","20","20","black","1","false","1","1","1200","660","response","f","yes","other",""
"","","","","","html-keyboard-response","166","1170445","0.0-5.0-0.0-0.0-3.0-1.0-0.0-4.0-0.1","null","fixation","null","<p style='font-size: 48px; color: white'>+</p >","","","","","","","","","","","","","","","","","","","","","","","","","","","","","","","","","","","","","","","","","","","","","","",""
"","","","","","rdk","167","1172264","0.0-5.0-0.0-0.0-3.0-1.0-0.0-4.0-1.1","809","match_RDK","f","","false","[""f"",""j""]","[""j""]","3000","true","1","100","1","0","0.6","0","5","1","-1","3","500","500","hsl(225, 50%, 50%)","hsl(0, 50%, 50%)","white","3000","7","circle","black","3","2","2","16.8125","[20,18,14,19,13,19,16,17,17,16,17,14,17,17,18,16,16,17,17,17,16,18,16,17,16,17,16,17,16,17,19,15,18,16,16,19,15,18,16,21,14,17,17,16,16,17,17,19]","48","600","250","false","20","20","black","1","false","1","1","1200","660","response","j","no","other",""
"","","","","","html-keyboard-response","168","1173288","0.0-5.0-0.0-0.0-3.0-1.0-0.0-4.0-0.2","null","fixation","null","<p style='font-size: 48px; color: white'>+</p >","","","","","","","","","","","","","","","","","","","","","","","","","","","","","","","","","","","","","","","","","","","","","","",""
"","","","","","rdk","169","1175207","0.0-5.0-0.0-0.0-3.0-1.0-0.0-4.0-1.2","905","match_RDK","j","","true","[""f"",""j""]","[""j""]","3000","true","1","100","1","180","0.6","0","5","1","-1","3","500","500","hsl(225, 50%, 50%)","hsl(0, 50%, 50%)","white","3000","7","circle","black","3","2","2","16.59259259259259","[5,17,16,17,17,17,16,18,16,17,17,18,16,17,16,16,17,17,17,17,16,17,17,18,16,17,17,17,17,17,16,17,17,17,16,17,17,16,17,17,17,16,17,16,16,18,16,18,17,17,18,17,17,16]","54","600","250","false","20","20","black","1","false","1","1","1200","660","response","j","no","self",""
"","","","","","html-keyboard-response","170","1176225","0.0-5.0-0.0-0.0-3.0-1.0-0.0-4.0-0.3","null","fixation","null","<p style='font-size: 48px; color: white'>+</p >","","","","","","","","","","","","","","","","","","","","","","","","","","","","","","","","","","","","","","","","","","","","","","",""
"","","","","","rdk","171","1178104","0.0-5.0-0.0-0.0-3.0-1.0-0.0-4.0-1.3","869","match_RDK","f","","true","[""f"",""j""]","[""f""]","3000","true","1","100","1","0","0.6","0","5","1","-1","3","500","500","hsl(225, 50%, 50%)","hsl(0, 50%, 50%)","white","3000","7","circle","black","3","2","2","16.88235294117647","[20,17,16,17,17,17,16,17,17,17,17,17,17,17,17,17,17,17,16,17,17,17,17,17,17,16,18,16,17,17,17,17,16,17,16,17,17,17,17,17,17,16,17,16,17,17,17,17,17,17,16]","51","600","250","false","20","20","black","1","false","1","1","1200","660","response","f","yes","self",""
"","","","","","html-keyboard-response","172","1179110","0.0-5.0-0.0-0.0-3.0-1.0-0.0-4.0-0.4","null","fixation","null","<p style='font-size: 48px; color: white'>+</p >","","","","","","","","","","","","","","","","","","","","","","","","","","","","","","","","","","","","","","","","","","","","","","",""
"","","","","","rdk","173","1180872","0.0-5.0-0.0-0.0-3.0-1.0-0.0-4.0-1.4","750","match_RDK","f","","true","[""f"",""j""]","[""f""]","3000","true","1","100","1","0","0.6","0","5","1","-1","3","500","500","hsl(225, 50%, 50%)","hsl(0, 50%, 50%)","white","3000","7","circle","black","3","2","2","16.704545454545453","[16,17,16,17,17,16,17,17,16,17,16,17,17,17,17,16,17,17,16,17,17,16,17,17,16,17,17,17,17,16,16,17,17,17,17,17,17,17,16,17,17,17,16,17]","44","600","250","false","20","20","black","1","false","1","1","1200","660","response","f","yes","self",""
"","","","","","html-keyboard-response","174","1181888","0.0-5.0-0.0-0.0-3.0-1.0-0.0-4.0-0.5","null","fixation","null","<p style='font-size: 48px; color: white'>+</p >","","","","","","","","","","","","","","","","","","","","","","","","","","","","","","","","","","","","","","","","","","","","","","",""
"","","","","","rdk","175","1183550","0.0-5.0-0.0-0.0-3.0-1.0-0.0-4.0-1.5","659","match_RDK","j","","false","[""f"",""j""]","[""f""]","3000","true","1","100","1","180","0.6","0","5","1","-1","3","500","500","hsl(225, 50%, 50%)","hsl(0, 50%, 50%)","white","3000","7","circle","black","3","2","2","16.666666666666668","[12,18,16,17,17,16,17,17,17,16,16,17,17,16,17,17,17,17,17,16,17,17,17,17,16,17,18,17,17,16,18,17,17,17,16,16,16,17,17]","39","600","250","false","20","20","black","1","false","1","1","1200","660","response","f","yes","other",""
"","","","","","html-keyboard-response","176","1184567","0.0-5.0-0.0-0.0-3.0-1.0-0.0-4.0-0.6","null","fixation","null","<p style='font-size: 48px; color: white'>+</p >","","","","","","","","","","","","","","","","","","","","","","","","","","","","","","","","","","","","","","","","","","","","","","",""
"","","","","","rdk","177","1186368","0.0-5.0-0.0-0.0-3.0-1.0-0.0-4.0-1.6","794","match_RDK","j","","true","[""f"",""j""]","[""j""]","3000","true","1","100","1","180","0.6","0","5","1","-1","3","500","500","hsl(225, 50%, 50%)","hsl(0, 50%, 50%)","white","3000","7","circle","black","3","2","2","16.72340425531915","[15,17,16,18,17,17,17,16,17,16,18,16,16,17,17,17,16,17,17,17,17,16,17,17,17,17,17,15,17,17,17,17,17,17,16,18,16,17,17,17,16,16,17,17,16,17,17]","47","600","250","false","20","20","black","1","false","1","1","1200","660","response","j","no","self",""
"","","","","","html-keyboard-response","178","1187391","0.0-5.0-0.0-0.0-3.0-1.0-0.0-4.0-0.7","null","fixation","null","<p style='font-size: 48px; color: white'>+</p >","","","","","","","","","","","","","","","","","","","","","","","","","","","","","","","","","","","","","","","","","","","","","","",""
"","","","","","rdk","179","1189584","0.0-5.0-0.0-0.0-3.0-1.0-0.0-4.0-1.7","1176","match_RDK","j","","true","[""f"",""j""]","[""j""]","3000","true","1","100","1","0","0.6","0","5","1","-1","3","500","500","hsl(225, 50%, 50%)","hsl(0, 50%, 50%)","white","3000","7","circle","black","3","2","2","16.771428571428572","[14,16,17,17,18,18,16,17,17,16,18,16,17,17,17,16,17,17,17,17,17,17,16,17,16,17,17,17,16,17,17,17,17,16,16,17,16,15,17,17,18,16,17,17,17,17,17,16,17,17,16,17,17,16,17,17,17,17,17,17,18,17,16,16,17,17,18,16,17,18]","70","600","250","false","20","20","black","1","false","1","1","1200","660","response","j","no","other",""
"","","","","","html-keyboard-response","180","1190595","0.0-5.0-0.0-0.0-3.0-1.0-0.0-4.0-0.8","null","fixation","null","<p style='font-size: 48px; color: white'>+</p >","","","","","","","","","","","","","","","","","","","","","","","","","","","","","","","","","","","","","","","","","","","","","","",""
"","","","","","rdk","181","1192405","0.0-5.0-0.0-0.0-3.0-1.0-0.0-4.0-1.8","799","match_RDK","j","","true","[""f"",""j""]","[""j""]","3000","true","1","100","1","180","0.6","0","5","1","-1","3","500","500","hsl(225, 50%, 50%)","hsl(0, 50%, 50%)","white","3000","7","circle","black","3","2","2","16.80851063829787","[16,17,17,17,17,18,16,17,16,17,16,18,18,15,17,17,17,17,16,16,17,17,16,18,16,17,17,17,17,17,17,17,16,17,17,16,17,17,17,17,17,16,17,17,17,17,17]","47","600","250","false","20","20","black","1","false","1","1","1200","660","response","j","no","self",""
"","","","","","html-keyboard-response","182","1193409","0.0-5.0-0.0-0.0-3.0-1.0-0.0-4.0-0.9","null","fixation","null","<p style='font-size: 48px; color: white'>+</p >","","","","","","","","","","","","","","","","","","","","","","","","","","","","","","","","","","","","","","","","","","","","","","",""
"","","","","","rdk","183","1195200","0.0-5.0-0.0-0.0-3.0-1.0-0.0-4.0-1.9","783","match_RDK","f","","true","[""f"",""j""]","[""f""]","3000","true","1","100","1","180","0.6","0","5","1","-1","3","500","500","hsl(225, 50%, 50%)","hsl(0, 50%, 50%)","white","3000","7","circle","black","3","2","2","16.5531914893617","[4,17,16,17,17,18,15,17,17,18,15,19,15,17,16,18,15,19,15,17,18,16,17,17,17,17,17,16,17,17,17,17,17,17,17,17,16,16,18,18,15,17,17,17,17,17,17]","47","600","250","false","20","20","black","1","false","1","1","1200","660","response","f","yes","other",""
"","","","","","html-keyboard-response","184","1196224","0.0-5.0-0.0-0.0-3.0-1.0-0.0-4.0-0.10","null","fixation","null","<p style='font-size: 48px; color: white'>+</p >","","","","","","","","","","","","","","","","","","","","","","","","","","","","","","","","","","","","","","","","","","","","","","",""
"","","","","","rdk","185","1197868","0.0-5.0-0.0-0.0-3.0-1.0-0.0-4.0-1.10","634","match_RDK","j","","true","[""f"",""j""]","[""j""]","3000","true","1","100","1","0","0.6","0","5","1","-1","3","500","500","hsl(225, 50%, 50%)","hsl(0, 50%, 50%)","white","3000","7","circle","black","3","2","2","16.526315789473685","[5,18,17,16,17,16,18,17,17,16,16,17,17,17,18,16,17,17,16,17,17,17,16,17,17,17,16,17,17,17,17,17,16,17,17,17,17,17]","38","600","250","false","20","20","black","1","false","1","1","1200","660","response","j","no","other",""
"","","","","","html-keyboard-response","186","1198878","0.0-5.0-0.0-0.0-3.0-1.0-0.0-4.0-0.11","null","fixation","null","<p style='font-size: 48px; color: white'>+</p >","","","","","","","","","","","","","","","","","","","","","","","","","","","","","","","","","","","","","","","","","","","","","","",""
"","","","","","rdk","187","1200607","0.0-5.0-0.0-0.0-3.0-1.0-0.0-4.0-1.11","722","match_RDK","f","","true","[""f"",""j""]","[""f""]","3000","true","1","100","1","0","0.6","0","5","1","-1","3","500","500","hsl(225, 50%, 50%)","hsl(0, 50%, 50%)","white","3000","7","circle","black","3","2","2","16.46511627906977","[3,18,16,17,17,17,17,17,17,17,16,17,15,17,17,16,17,16,16,17,17,17,17,16,19,15,17,17,17,17,17,17,17,17,16,17,17,17,17,17,17,17,16]","43","600","250","false","20","20","black","1","false","1","1","1200","660","response","f","yes","self",""
"","","","","","html-keyboard-response","188","1201639","0.0-5.0-0.0-0.0-3.0-1.0-0.0-4.0-0.12","null","fixation","null","<p style='font-size: 48px; color: white'>+</p >","","","","","","","","","","","","","","","","","","","","","","","","","","","","","","","","","","","","","","","","","","","","","","",""
"","","","","","rdk","189","1203277","0.0-5.0-0.0-0.0-3.0-1.0-0.0-4.0-1.12","621","match_RDK","f","","true","[""f"",""j""]","[""f""]","3000","true","1","100","1","0","0.6","0","5","1","-1","3","500","500","hsl(225, 50%, 50%)","hsl(0, 50%, 50%)","white","3000","7","circle","black","3","2","2","16.756756756756758","[15,17,17,17,16,16,16,18,17,17,17,17,17,16,17,17,17,17,17,17,16,17,17,17,16,16,16,17,16,18,17,17,17,17,17,17,17]","37","600","250","false","20","20","black","1","false","1","1","1200","660","response","f","yes","self",""
"","","","","","html-keyboard-response","190","1204303","0.0-5.0-0.0-0.0-3.0-1.0-0.0-4.0-0.13","null","fixation","null","<p style='font-size: 48px; color: white'>+</p >","","","","","","","","","","","","","","","","","","","","","","","","","","","","","","","","","","","","","","","","","","","","","","",""
"","","","","","rdk","191","1206136","0.0-5.0-0.0-0.0-3.0-1.0-0.0-4.0-1.13","828","match_RDK","f","","true","[""f"",""j""]","[""f""]","3000","true","1","100","1","180","0.6","0","5","1","-1","3","500","500","hsl(225, 50%, 50%)","hsl(0, 50%, 50%)","white","3000","7","circle","black","3","2","2","16.79591836734694","[15,17,17,17,17,17,17,17,17,17,17,16,16,16,17,18,17,16,17,17,17,17,17,17,17,17,17,17,17,17,16,17,17,16,17,17,16,17,17,17,16,17,17,17,17,17,16,17,17]","49","600","250","false","20","20","black","1","false","1","1","1200","660","response","f","yes","other",""
"","","","","","html-keyboard-response","192","1207156","0.0-5.0-0.0-0.0-3.0-1.0-0.0-4.0-0.14","null","fixation","null","<p style='font-size: 48px; color: white'>+</p >","","","","","","","","","","","","","","","","","","","","","","","","","","","","","","","","","","","","","","","","","","","","","","",""
"","","","","","rdk","193","1208920","0.0-5.0-0.0-0.0-3.0-1.0-0.0-4.0-1.14","756","match_RDK","j","","true","[""f"",""j""]","[""j""]","3000","true","1","100","1","180","0.6","0","5","1","-1","3","500","500","hsl(225, 50%, 50%)","hsl(0, 50%, 50%)","white","3000","7","circle","black","3","2","2","16.533333333333335","[8,18,17,17,17,17,17,17,16,17,16,16,17,17,17,17,17,17,17,17,16,17,16,18,17,17,16,17,16,17,17,16,17,17,16,17,16,16,17,17,16,17,16,16,17]","45","600","250","false","20","20","black","1","false","1","1","1200","660","response","j","no","self",""
"","","","","","html-keyboard-response","194","1209944","0.0-5.0-0.0-0.0-3.0-1.0-0.0-4.0-0.15","null","fixation","null","<p style='font-size: 48px; color: white'>+</p >","","","","","","","","","","","","","","","","","","","","","","","","","","","","","","","","","","","","","","","","","","","","","","",""
"","","","","","rdk","195","1211619","0.0-5.0-0.0-0.0-3.0-1.0-0.0-4.0-1.15","659","match_RDK","j","","true","[""f"",""j""]","[""j""]","3000","true","1","100","1","0","0.6","0","5","1","-1","3","500","500","hsl(225, 50%, 50%)","hsl(0, 50%, 50%)","white","3000","7","circle","black","3","2","2","16.564102564102566","[10,16,17,17,16,17,17,17,17,18,17,16,16,17,17,16,17,17,16,17,16,17,17,16,17,17,16,17,17,15,17,17,17,17,17,17,17,17,17]","39","600","250","false","20","20","black","1","false","1","1","1200","660","response","j","no","other",""
"","","","","","html-keyboard-response","196","1212627","0.0-5.0-0.0-0.0-3.0-1.0-0.0-4.0-0.16","null","fixation","null","<p style='font-size: 48px; color: white'>+</p >","","","","","","","","","","","","","","","","","","","","","","","","","","","","","","","","","","","","","","","","","","","","","","",""
"","","","","","rdk","197","1214489","0.0-5.0-0.0-0.0-3.0-1.0-0.0-4.0-1.16","847","match_RDK","j","","true","[""f"",""j""]","[""j""]","3000","true","1","100","1","0","0.6","0","5","1","-1","3","500","500","hsl(225, 50%, 50%)","hsl(0, 50%, 50%)","white","3000","7","circle","black","3","2","2","16.64","[13,17,17,16,17,17,16,17,17,17,17,16,17,17,16,17,17,16,15,17,17,17,17,17,17,17,17,16,17,17,16,17,17,16,17,16,17,17,17,17,17,17,17,17,16,16,17,16,17,17]","50","600","250","false","20","20","black","1","false","1","1","1200","660","response","j","no","other",""
"","","","","","html-keyboard-response","198","1215508","0.0-5.0-0.0-0.0-3.0-1.0-0.0-4.0-0.17","null","fixation","null","<p style='font-size: 48px; color: white'>+</p >","","","","","","","","","","","","","","","","","","","","","","","","","","","","","","","","","","","","","","","","","","","","","","",""
"","","","","","rdk","199","1217382","0.0-5.0-0.0-0.0-3.0-1.0-0.0-4.0-1.17","862","match_RDK","j","","true","[""f"",""j""]","[""j""]","3000","true","1","100","1","180","0.6","0","5","1","-1","3","500","500","hsl(225, 50%, 50%)","hsl(0, 50%, 50%)","white","3000","7","circle","black","3","2","2","16.5","[2,17,17,17,17,17,17,17,17,16,17,16,17,19,15,17,17,16,17,15,17,17,17,16,16,17,17,17,17,17,17,17,16,16,17,17,17,17,17,16,17,17,16,17,16,17,17,17,17,17,17,18]","52","600","250","false","20","20","black","1","false","1","1","1200","660","response","j","no","self",""
"","","","","","html-keyboard-response","200","1218407","0.0-5.0-0.0-0.0-3.0-1.0-0.0-4.0-0.18","null","fixation","null","<p style='font-size: 48px; color: white'>+</p >","","","","","","","","","","","","","","","","","","","","","","","","","","","","","","","","","","","","","","","","","","","","","","",""
"","","","","","rdk","201","1220021","0.0-5.0-0.0-0.0-3.0-1.0-0.0-4.0-1.18","603","match_RDK","f","","true","[""f"",""j""]","[""f""]","3000","true","1","100","1","0","0.6","0","5","1","-1","3","500","500","hsl(225, 50%, 50%)","hsl(0, 50%, 50%)","white","3000","7","circle","black","3","2","2","16.47222222222222","[8,15,16,17,17,17,17,17,17,17,17,17,16,17,17,17,17,17,16,17,15,17,17,17,17,16,17,16,17,16,17,17,17,17,16,18]","36","600","250","false","20","20","black","1","false","1","1","1200","660","response","f","yes","self",""
"","","","","","html-keyboard-response","202","1221039","0.0-5.0-0.0-0.0-3.0-1.0-0.0-4.0-0.19","null","fixation","null","<p style='font-size: 48px; color: white'>+</p >","","","","","","","","","","","","","","","","","","","","","","","","","","","","","","","","","","","","","","","","","","","","","","",""
"","","","","","rdk","203","1223351","0.0-5.0-0.0-0.0-3.0-1.0-0.0-4.0-1.19","1296","match_RDK","f","","true","[""f"",""j""]","[""f""]","3000","true","1","100","1","180","0.6","0","5","1","-1","3","500","500","hsl(225, 50%, 50%)","hsl(0, 50%, 50%)","white","3000","7","circle","black","3","2","2","16.792207792207794","[17,17,17,17,17,17,16,17,16,17,17,17,17,17,17,17,17,17,17,16,17,16,17,17,17,16,17,16,17,18,15,17,17,17,17,17,17,17,17,17,18,16,17,17,17,16,16,17,16,17,17,17,17,17,16,17,17,17,17,16,17,16,17,16,17,17,17,17,16,17,17,16,17,17,17,17,17]","77","600","250","false","20","20","black","1","false","1","1","1200","660","response","f","yes","other",""
"","","","","","html-keyboard-response","204","1224371","0.0-5.0-0.0-0.0-3.0-1.0-0.0-4.0-0.20","null","fixation","null","<p style='font-size: 48px; color: white'>+</p >","","","","","","","","","","","","","","","","","","","","","","","","","","","","","","","","","","","","","","","","","","","","","","",""
"","","","","","rdk","205","1225998","0.0-5.0-0.0-0.0-3.0-1.0-0.0-4.0-1.20","609","match_RDK","j","","true","[""f"",""j""]","[""j""]","3000","true","1","100","1","0","0.6","0","5","1","-1","3","500","500","hsl(225, 50%, 50%)","hsl(0, 50%, 50%)","white","3000","7","circle","black","3","2","2","16.75","[18,19,14,16,17,17,16,19,14,17,15,18,16,17,18,15,17,17,17,17,17,17,17,17,17,17,15,17,16,17,17,17,17,17,17,17]","36","600","250","false","20","20","black","1","false","1","1","1200","660","response","j","no","other",""
"","","","","","html-keyboard-response","206","1227005","0.0-5.0-0.0-0.0-3.0-1.0-0.0-4.0-0.21","null","fixation","null","<p style='font-size: 48px; color: white'>+</p >","","","","","","","","","","","","","","","","","","","","","","","","","","","","","","","","","","","","","","","","","","","","","","",""
"","","","","","rdk","207","1229400","0.0-5.0-0.0-0.0-3.0-1.0-0.0-4.0-1.21","1378","match_RDK","f","","true","[""f"",""j""]","[""f""]","3000","true","1","100","1","0","0.6","0","5","1","-1","3","500","500","hsl(225, 50%, 50%)","hsl(0, 50%, 50%)","white","3000","7","circle","black","3","2","2","16.76829268292683","[14,17,17,17,17,16,15,17,17,17,16,18,17,17,17,17,17,17,16,17,17,17,16,17,17,17,17,17,17,14,18,16,17,18,17,17,17,17,17,17,17,17,17,17,16,17,16,17,17,17,16,17,17,17,17,17,15,16,16,17,17,17,17,17,17,17,17,18,16,17,16,17,17,17,16,17,17,17,17,17,17,17]","82","600","250","false","20","20","black","1","false","1","1","1200","660","response","f","yes","self",""
"","","","","","html-keyboard-response","208","1230409","0.0-5.0-0.0-0.0-3.0-1.0-0.0-4.0-0.22","null","fixation","null","<p style='font-size: 48px; color: white'>+</p >","","","","","","","","","","","","","","","","","","","","","","","","","","","","","","","","","","","","","","","","","","","","","","",""
"","","","","","rdk","209","1232023","0.0-5.0-0.0-0.0-3.0-1.0-0.0-4.0-1.22","599","match_RDK","j","","true","[""f"",""j""]","[""j""]","3000","true","1","100","1","180","0.6","0","5","1","-1","3","500","500","hsl(225, 50%, 50%)","hsl(0, 50%, 50%)","white","3000","7","circle","black","3","2","2","16.714285714285715","[14,15,17,17,17,18,15,17,17,17,16,17,17,17,17,16,17,17,16,17,18,16,17,17,16,17,17,17,17,17,16,17,17,18,17]","35","600","250","false","20","20","black","1","false","1","1","1200","660","response","j","no","self",""
"","","","","","html-keyboard-response","210","1233041","0.0-5.0-0.0-0.0-3.0-1.0-0.0-4.0-0.23","null","fixation","null","<p style='font-size: 48px; color: white'>+</p >","","","","","","","","","","","","","","","","","","","","","","","","","","","","","","","","","","","","","","","","","","","","","","",""
"","","","","","rdk","211","1234966","0.0-5.0-0.0-0.0-3.0-1.0-0.0-4.0-1.23","910","match_RDK","f","","true","[""f"",""j""]","[""f""]","3000","true","1","100","1","180","0.6","0","5","1","-1","3","500","500","hsl(225, 50%, 50%)","hsl(0, 50%, 50%)","white","3000","7","circle","black","3","2","2","16.833333333333332","[16,17,17,16,17,18,16,16,16,17,17,18,16,17,17,17,17,16,18,17,17,16,17,17,17,17,17,16,17,16,16,16,17,17,17,17,18,17,17,17,16,17,17,17,17,17,17,17,16,17,17,17,17,18]","54","600","250","false","20","20","black","1","false","1","1","1200","660","response","f","yes","other",""
"","","","","","html-keyboard-response","212","1235974","0.0-5.0-0.0-0.0-3.0-1.0-0.0-4.0-0.24","null","fixation","null","<p style='font-size: 48px; color: white'>+</p >","","","","","","","","","","","","","","","","","","","","","","","","","","","","","","","","","","","","","","","","","","","","","","",""
"","","","","","rdk","213","1237852","0.0-5.0-0.0-0.0-3.0-1.0-0.0-4.0-1.24","864","match_RDK","j","","true","[""f"",""j""]","[""j""]","3000","true","1","100","1","180","0.6","0","5","1","-1","3","500","500","hsl(225, 50%, 50%)","hsl(0, 50%, 50%)","white","3000","7","circle","black","3","2","2","16.53846153846154","[3,16,17,17,17,17,16,19,14,17,17,16,17,16,17,17,17,17,17,17,17,17,17,17,16,17,17,17,17,17,17,16,17,17,17,17,16,18,15,17,17,20,14,18,15,17,17,16,17,17,17,18]","52","600","250","false","20","20","black","1","false","1","1","1200","660","response","j","no","self",""
