"success","rt","trial_type","trial_index","plugin_version","time_elapsed","subj_id","stimulus","response","trail_tag","task","ismatch","target","correct_key","correct","response_key"
"true","17833","fullscreen","0","2.0.0","18842","12","","","","","","","","",""
"","14358","html-keynbutton-response","1","2.0.0","33203","12","
        <div class=""jp px-2 xxs:px-5 mx-auto"">
        <p class=""text-center text-red-600 text-[1.2em] pb-5"">欢迎您参加知觉
          <strong>匹配实验。</strong>
        </p>
        <p>接下来的任务中您将看到一排图形。</p>
        <p>(圆形●或方形■)</p><p>您需要专注于中间的图形，判断中间的图形和两侧的图形<strong>是否匹配</strong>。</p>
        <p>如果图形匹配，请按“q”；</p>
        <p>如果图形不匹配，请按“p”。</p>
        <p>请尽量又快又准地做出反应。</p>
      <p>请按空格键开始练习。</p>
      </div>"," ","","","","","","",""
"","null","html-keynbutton-response","2","2.0.0","36419","12","<count-down title=""""></count-down>","null","countDown_trial","","","","","",""
"","null","html-keynbutton-response","3","2.0.0","36927","12","<div class=""pb-14 text-7xl"">+</div>","null","fixation","","","","","",""
"","702","html-keynbutton-response","4","2.0.0","37632","12","<div class=""flex flex-row stim-length pb-8 md:pd-20 justify-evenly items-center""><div class=""square""></div><div class=""square""></div><div class=""square""></div></div>","q","","matchness_practice","match","方","q","true","match"
"","null","html-keynbutton-response","5","2.0.0","38140","12","<span class='text-green-400 text-4xl md:text-5xl lg:text-6xl'>正确!</span>","null","trial_feedback","","","","","",""
"","null","html-keynbutton-response","6","2.0.0","38655","12","<div class=""pb-14 text-7xl"">+</div>","null","fixation","","","","","",""
"","575","html-keynbutton-response","7","2.0.0","39232","12","<div class=""flex flex-row stim-length pb-8 md:pd-20 justify-evenly items-center""><div class=""square""></div><div class=""circle""></div><div class=""square""></div></div>","p","","matchness_practice","mismatch","圆","p","true","mismatch"
"","null","html-keynbutton-response","8","2.0.0","39734","12","<span class='text-green-400 text-4xl md:text-5xl lg:text-6xl'>正确!</span>","null","trial_feedback","","","","","",""
"","null","html-keynbutton-response","9","2.0.0","40250","12","<div class=""pb-14 text-7xl"">+</div>","null","fixation","","","","","",""
"","523","html-keynbutton-response","10","2.0.0","40774","12","<div class=""flex flex-row stim-length pb-8 md:pd-20 justify-evenly items-center""><div class=""circle""></div><div class=""square""></div><div class=""circle""></div></div>","p","","matchness_practice","mismatch","方","p","true","mismatch"
"","null","html-keynbutton-response","11","2.0.0","41281","12","<span class='text-green-400 text-4xl md:text-5xl lg:text-6xl'>正确!</span>","null","trial_feedback","","","","","",""
"","null","html-keynbutton-response","12","2.0.0","41795","12","<div class=""pb-14 text-7xl"">+</div>","null","fixation","","","","","",""
"","483","html-keynbutton-response","13","2.0.0","42278","12","<div class=""flex flex-row stim-length pb-8 md:pd-20 justify-evenly items-center""><div class=""circle""></div><div class=""circle""></div><div class=""circle""></div></div>","q","","matchness_practice","match","圆","q","true","match"
"","null","html-keynbutton-response","14","2.0.0","42794","12","<span class='text-green-400 text-4xl md:text-5xl lg:text-6xl'>正确!</span>","null","trial_feedback","","","","","",""
"","null","html-keynbutton-response","15","2.0.0","43296","12","<div class=""pb-14 text-7xl"">+</div>","null","fixation","","","","","",""
"","517","html-keynbutton-response","16","2.0.0","43814","12","<div class=""flex flex-row stim-length pb-8 md:pd-20 justify-evenly items-center""><div class=""square""></div><div class=""circle""></div><div class=""square""></div></div>","p","","matchness_practice","mismatch","圆","p","true","mismatch"
"","null","html-keynbutton-response","17","2.0.0","44320","12","<span class='text-green-400 text-4xl md:text-5xl lg:text-6xl'>正确!</span>","null","trial_feedback","","","","","",""
"","null","html-keynbutton-response","18","2.0.0","44828","12","<div class=""pb-14 text-7xl"">+</div>","null","fixation","","","","","",""
"","457","html-keynbutton-response","19","2.0.0","45286","12","<div class=""flex flex-row stim-length pb-8 md:pd-20 justify-evenly items-center""><div class=""circle""></div><div class=""circle""></div><div class=""circle""></div></div>","q","","matchness_practice","match","圆","q","true","match"
"","null","html-keynbutton-response","20","2.0.0","45795","12","<span class='text-green-400 text-4xl md:text-5xl lg:text-6xl'>正确!</span>","null","trial_feedback","","","","","",""
"","null","html-keynbutton-response","21","2.0.0","46303","12","<div class=""pb-14 text-7xl"">+</div>","null","fixation","","","","","",""
"","598","html-keynbutton-response","22","2.0.0","46902","12","<div class=""flex flex-row stim-length pb-8 md:pd-20 justify-evenly items-center""><div class=""square""></div><div class=""square""></div><div class=""square""></div></div>","q","","matchness_practice","match","方","q","true","match"
"","null","html-keynbutton-response","23","2.0.0","47412","12","<span class='text-green-400 text-4xl md:text-5xl lg:text-6xl'>正确!</span>","null","trial_feedback","","","","","",""
"","null","html-keynbutton-response","24","2.0.0","47916","12","<div class=""pb-14 text-7xl"">+</div>","null","fixation","","","","","",""
"","584","html-keynbutton-response","25","2.0.0","48501","12","<div class=""flex flex-row stim-length pb-8 md:pd-20 justify-evenly items-center""><div class=""circle""></div><div class=""square""></div><div class=""circle""></div></div>","p","","matchness_practice","mismatch","方","p","true","mismatch"
"","null","html-keynbutton-response","26","2.0.0","49013","12","<span class='text-green-400 text-4xl md:text-5xl lg:text-6xl'>正确!</span>","null","trial_feedback","","","","","",""
"","null","html-keynbutton-response","27","2.0.0","49528","12","<div class=""pb-14 text-7xl"">+</div>","null","fixation","","","","","",""
"","574","html-keynbutton-response","28","2.0.0","50102","12","<div class=""flex flex-row stim-length pb-8 md:pd-20 justify-evenly items-center""><div class=""circle""></div><div class=""square""></div><div class=""circle""></div></div>","p","","matchness_practice","mismatch","方","p","true","mismatch"
"","null","html-keynbutton-response","29","2.0.0","50608","12","<span class='text-green-400 text-4xl md:text-5xl lg:text-6xl'>正确!</span>","null","trial_feedback","","","","","",""
"","null","html-keynbutton-response","30","2.0.0","51112","12","<div class=""pb-14 text-7xl"">+</div>","null","fixation","","","","","",""
"","412","html-keynbutton-response","31","2.0.0","51525","12","<div class=""flex flex-row stim-length pb-8 md:pd-20 justify-evenly items-center""><div class=""circle""></div><div class=""circle""></div><div class=""circle""></div></div>","q","","matchness_practice","match","圆","q","true","match"
"","null","html-keynbutton-response","32","2.0.0","52029","12","<span class='text-green-400 text-4xl md:text-5xl lg:text-6xl'>正确!</span>","null","trial_feedback","","","","","",""
"","null","html-keynbutton-response","33","2.0.0","52545","12","<div class=""pb-14 text-7xl"">+</div>","null","fixation","","","","","",""
"","516","html-keynbutton-response","34","2.0.0","53062","12","<div class=""flex flex-row stim-length pb-8 md:pd-20 justify-evenly items-center""><div class=""square""></div><div class=""square""></div><div class=""square""></div></div>","q","","matchness_practice","match","方","q","true","match"
"","null","html-keynbutton-response","35","2.0.0","53578","12","<span class='text-green-400 text-4xl md:text-5xl lg:text-6xl'>正确!</span>","null","trial_feedback","","","","","",""
"","null","html-keynbutton-response","36","2.0.0","54079","12","<div class=""pb-14 text-7xl"">+</div>","null","fixation","","","","","",""
"","566","html-keynbutton-response","37","2.0.0","54646","12","<div class=""flex flex-row stim-length pb-8 md:pd-20 justify-evenly items-center""><div class=""square""></div><div class=""circle""></div><div class=""square""></div></div>","p","","matchness_practice","mismatch","圆","p","true","mismatch"
"","null","html-keynbutton-response","38","2.0.0","55161","12","<span class='text-green-400 text-4xl md:text-5xl lg:text-6xl'>正确!</span>","null","trial_feedback","","","","","",""
"","null","html-keynbutton-response","39","2.0.0","55678","12","<div class=""pb-14 text-7xl"">+</div>","null","fixation","","","","","",""
"","439","html-keynbutton-response","40","2.0.0","56118","12","<div class=""flex flex-row stim-length pb-8 md:pd-20 justify-evenly items-center""><div class=""square""></div><div class=""square""></div><div class=""square""></div></div>","q","","matchness_practice","match","方","q","true","match"
"","null","html-keynbutton-response","41","2.0.0","56628","12","<span class='text-green-400 text-4xl md:text-5xl lg:text-6xl'>正确!</span>","null","trial_feedback","","","","","",""
"","null","html-keynbutton-response","42","2.0.0","57129","12","<div class=""pb-14 text-7xl"">+</div>","null","fixation","","","","","",""
"","491","html-keynbutton-response","43","2.0.0","57621","12","<div class=""flex flex-row stim-length pb-8 md:pd-20 justify-evenly items-center""><div class=""circle""></div><div class=""circle""></div><div class=""circle""></div></div>","q","","matchness_practice","match","圆","q","true","match"
"","null","html-keynbutton-response","44","2.0.0","58136","12","<span class='text-green-400 text-4xl md:text-5xl lg:text-6xl'>正确!</span>","null","trial_feedback","","","","","",""
"","null","html-keynbutton-response","45","2.0.0","58644","12","<div class=""pb-14 text-7xl"">+</div>","null","fixation","","","","","",""
"","609","html-keynbutton-response","46","2.0.0","59254","12","<div class=""flex flex-row stim-length pb-8 md:pd-20 justify-evenly items-center""><div class=""square""></div><div class=""circle""></div><div class=""square""></div></div>","p","","matchness_practice","mismatch","圆","p","true","mismatch"
"","null","html-keynbutton-response","47","2.0.0","59763","12","<span class='text-green-400 text-4xl md:text-5xl lg:text-6xl'>正确!</span>","null","trial_feedback","","","","","",""
"","null","html-keynbutton-response","48","2.0.0","60278","12","<div class=""pb-14 text-7xl"">+</div>","null","fixation","","","","","",""
"","606","html-keynbutton-response","49","2.0.0","60886","12","<div class=""flex flex-row stim-length pb-8 md:pd-20 justify-evenly items-center""><div class=""circle""></div><div class=""square""></div><div class=""circle""></div></div>","p","","matchness_practice","mismatch","方","p","true","mismatch"
"","null","html-keynbutton-response","50","2.0.0","61397","12","<span class='text-green-400 text-4xl md:text-5xl lg:text-6xl'>正确!</span>","null","trial_feedback","","","","","",""
"","null","html-keynbutton-response","51","2.0.0","61911","12","<div class=""pb-14 text-7xl"">+</div>","null","fixation","","","","","",""
"","445","html-keynbutton-response","52","2.0.0","62358","12","<div class=""flex flex-row stim-length pb-8 md:pd-20 justify-evenly items-center""><div class=""square""></div><div class=""circle""></div><div class=""square""></div></div>","p","","matchness_practice","mismatch","圆","p","true","mismatch"
"","null","html-keynbutton-response","53","2.0.0","62862","12","<span class='text-green-400 text-4xl md:text-5xl lg:text-6xl'>正确!</span>","null","trial_feedback","","","","","",""
"","null","html-keynbutton-response","54","2.0.0","63372","12","<div class=""pb-14 text-7xl"">+</div>","null","fixation","","","","","",""
"","457","html-keynbutton-response","55","2.0.0","63830","12","<div class=""flex flex-row stim-length pb-8 md:pd-20 justify-evenly items-center""><div class=""circle""></div><div class=""square""></div><div class=""circle""></div></div>","p","","matchness_practice","mismatch","方","p","true","mismatch"
"","null","html-keynbutton-response","56","2.0.0","64345","12","<span class='text-green-400 text-4xl md:text-5xl lg:text-6xl'>正确!</span>","null","trial_feedback","","","","","",""
"","null","html-keynbutton-response","57","2.0.0","64862","12","<div class=""pb-14 text-7xl"">+</div>","null","fixation","","","","","",""
"","535","html-keynbutton-response","58","2.0.0","65398","12","<div class=""flex flex-row stim-length pb-8 md:pd-20 justify-evenly items-center""><div class=""square""></div><div class=""square""></div><div class=""square""></div></div>","q","","matchness_practice","match","方","q","true","match"
"","null","html-keynbutton-response","59","2.0.0","65899","12","<span class='text-green-400 text-4xl md:text-5xl lg:text-6xl'>正确!</span>","null","trial_feedback","","","","","",""
"","null","html-keynbutton-response","60","2.0.0","66415","12","<div class=""pb-14 text-7xl"">+</div>","null","fixation","","","","","",""
"","485","html-keynbutton-response","61","2.0.0","66901","12","<div class=""flex flex-row stim-length pb-8 md:pd-20 justify-evenly items-center""><div class=""circle""></div><div class=""circle""></div><div class=""circle""></div></div>","q","","matchness_practice","match","圆","q","true","match"
"","null","html-keynbutton-response","62","2.0.0","67415","12","<span class='text-green-400 text-4xl md:text-5xl lg:text-6xl'>正确!</span>","null","trial_feedback","","","","","",""
"","2586","html-keynbutton-response","64","2.0.0","70006","12","<div class=""jp"">
    <p>您的正确率是：100%</p>
    <p>您的平均反应时间是：529毫秒</p></div>"," ","block_feedback","","","","","",""
"","2781","html-keynbutton-response","65","2.0.0","72790","12","
        <div class=""jp px-2 xxs:px-5 mx-auto"">
        <p class=""text-center text-red-600 text-[1.2em] pb-5"">练习结束，现在开始正式实验</p>
        <p>请注意：正式实验中将不再会呈现反馈。</p>
        </div>
        "," ","","","","","","",""
"","null","html-keynbutton-response","66","2.0.0","75993","12","<count-down title=""""></count-down>","null","countDown_trial","","","","","",""
"","null","html-keynbutton-response","67","2.0.0","76496","12","<div class=""pb-14 text-7xl"">+</div>","null","fixation","","","","","",""
"","437","html-keynbutton-response","68","2.0.0","76934","12","<div class=""flex flex-row stim-length pb-8 md:pd-20 justify-evenly items-center""><div class=""circle""></div><div class=""circle""></div><div class=""circle""></div></div>","q","","matchness_test","match","圆","q","true","match"
"","null","html-keynbutton-response","69","2.0.0","77444","12","<div class=""pb-14 text-7xl"">+</div>","null","fixation","","","","","",""
"","400","html-keynbutton-response","70","2.0.0","77846","12","<div class=""flex flex-row stim-length pb-8 md:pd-20 justify-evenly items-center""><div class=""square""></div><div class=""square""></div><div class=""square""></div></div>","q","","matchness_test","match","方","q","true","match"
"","null","html-keynbutton-response","71","2.0.0","78361","12","<div class=""pb-14 text-7xl"">+</div>","null","fixation","","","","","",""
"","445","html-keynbutton-response","72","2.0.0","78806","12","<div class=""flex flex-row stim-length pb-8 md:pd-20 justify-evenly items-center""><div class=""square""></div><div class=""circle""></div><div class=""square""></div></div>","p","","matchness_test","mismatch","圆","p","true","mismatch"
"","null","html-keynbutton-response","73","2.0.0","79312","12","<div class=""pb-14 text-7xl"">+</div>","null","fixation","","","","","",""
"","468","html-keynbutton-response","74","2.0.0","79781","12","<div class=""flex flex-row stim-length pb-8 md:pd-20 justify-evenly items-center""><div class=""circle""></div><div class=""square""></div><div class=""circle""></div></div>","p","","matchness_test","mismatch","方","p","true","mismatch"
"","null","html-keynbutton-response","75","2.0.0","80282","12","<div class=""pb-14 text-7xl"">+</div>","null","fixation","","","","","",""
"","379","html-keynbutton-response","76","2.0.0","80662","12","<div class=""flex flex-row stim-length pb-8 md:pd-20 justify-evenly items-center""><div class=""square""></div><div class=""circle""></div><div class=""square""></div></div>","p","","matchness_test","mismatch","圆","p","true","mismatch"
"","null","html-keynbutton-response","77","2.0.0","81178","12","<div class=""pb-14 text-7xl"">+</div>","null","fixation","","","","","",""
"","347","html-keynbutton-response","78","2.0.0","81526","12","<div class=""flex flex-row stim-length pb-8 md:pd-20 justify-evenly items-center""><div class=""circle""></div><div class=""circle""></div><div class=""circle""></div></div>","p","","matchness_test","match","圆","q","false","mismatch"
"","null","html-keynbutton-response","79","2.0.0","82029","12","<div class=""pb-14 text-7xl"">+</div>","null","fixation","","","","","",""
"","456","html-keynbutton-response","80","2.0.0","82486","12","<div class=""flex flex-row stim-length pb-8 md:pd-20 justify-evenly items-center""><div class=""square""></div><div class=""square""></div><div class=""square""></div></div>","q","","matchness_test","match","方","q","true","match"
"","null","html-keynbutton-response","81","2.0.0","82994","12","<div class=""pb-14 text-7xl"">+</div>","null","fixation","","","","","",""
"","563","html-keynbutton-response","82","2.0.0","83558","12","<div class=""flex flex-row stim-length pb-8 md:pd-20 justify-evenly items-center""><div class=""circle""></div><div class=""square""></div><div class=""circle""></div></div>","p","","matchness_test","mismatch","方","p","true","mismatch"
"","null","html-keynbutton-response","83","2.0.0","84064","12","<div class=""pb-14 text-7xl"">+</div>","null","fixation","","","","","",""
"","422","html-keynbutton-response","84","2.0.0","84486","12","<div class=""flex flex-row stim-length pb-8 md:pd-20 justify-evenly items-center""><div class=""square""></div><div class=""circle""></div><div class=""square""></div></div>","p","","matchness_test","mismatch","圆","p","true","mismatch"
"","null","html-keynbutton-response","85","2.0.0","84994","12","<div class=""pb-14 text-7xl"">+</div>","null","fixation","","","","","",""
"","435","html-keynbutton-response","86","2.0.0","85430","12","<div class=""flex flex-row stim-length pb-8 md:pd-20 justify-evenly items-center""><div class=""circle""></div><div class=""circle""></div><div class=""circle""></div></div>","q","","matchness_test","match","圆","q","true","match"
"","null","html-keynbutton-response","87","2.0.0","85945","12","<div class=""pb-14 text-7xl"">+</div>","null","fixation","","","","","",""
"","636","html-keynbutton-response","88","2.0.0","86582","12","<div class=""flex flex-row stim-length pb-8 md:pd-20 justify-evenly items-center""><div class=""circle""></div><div class=""square""></div><div class=""circle""></div></div>","p","","matchness_test","mismatch","方","p","true","mismatch"
"","null","html-keynbutton-response","89","2.0.0","87095","12","<div class=""pb-14 text-7xl"">+</div>","null","fixation","","","","","",""
"","446","html-keynbutton-response","90","2.0.0","87542","12","<div class=""flex flex-row stim-length pb-8 md:pd-20 justify-evenly items-center""><div class=""square""></div><div class=""square""></div><div class=""square""></div></div>","q","","matchness_test","match","方","q","true","match"
"","null","html-keynbutton-response","91","2.0.0","88049","12","<div class=""pb-14 text-7xl"">+</div>","null","fixation","","","","","",""
"","547","html-keynbutton-response","92","2.0.0","88598","12","<div class=""flex flex-row stim-length pb-8 md:pd-20 justify-evenly items-center""><div class=""circle""></div><div class=""square""></div><div class=""circle""></div></div>","p","","matchness_test","mismatch","方","p","true","mismatch"
"","null","html-keynbutton-response","93","2.0.0","89113","12","<div class=""pb-14 text-7xl"">+</div>","null","fixation","","","","","",""
"","476","html-keynbutton-response","94","2.0.0","89590","12","<div class=""flex flex-row stim-length pb-8 md:pd-20 justify-evenly items-center""><div class=""square""></div><div class=""circle""></div><div class=""square""></div></div>","p","","matchness_test","mismatch","圆","p","true","mismatch"
"","null","html-keynbutton-response","95","2.0.0","90096","12","<div class=""pb-14 text-7xl"">+</div>","null","fixation","","","","","",""
"","501","html-keynbutton-response","96","2.0.0","90598","12","<div class=""flex flex-row stim-length pb-8 md:pd-20 justify-evenly items-center""><div class=""circle""></div><div class=""circle""></div><div class=""circle""></div></div>","q","","matchness_test","match","圆","q","true","match"
"","null","html-keynbutton-response","97","2.0.0","91111","12","<div class=""pb-14 text-7xl"">+</div>","null","fixation","","","","","",""
"","381","html-keynbutton-response","98","2.0.0","91494","12","<div class=""flex flex-row stim-length pb-8 md:pd-20 justify-evenly items-center""><div class=""square""></div><div class=""square""></div><div class=""square""></div></div>","q","","matchness_test","match","方","q","true","match"
"","null","html-keynbutton-response","99","2.0.0","91998","12","<div class=""pb-14 text-7xl"">+</div>","null","fixation","","","","","",""
"","534","html-keynbutton-response","100","2.0.0","92534","12","<div class=""flex flex-row stim-length pb-8 md:pd-20 justify-evenly items-center""><div class=""circle""></div><div class=""square""></div><div class=""circle""></div></div>","p","","matchness_test","mismatch","方","p","true","mismatch"
"","null","html-keynbutton-response","101","2.0.0","93044","12","<div class=""pb-14 text-7xl"">+</div>","null","fixation","","","","","",""
"","481","html-keynbutton-response","102","2.0.0","93526","12","<div class=""flex flex-row stim-length pb-8 md:pd-20 justify-evenly items-center""><div class=""square""></div><div class=""circle""></div><div class=""square""></div></div>","p","","matchness_test","mismatch","圆","p","true","mismatch"
"","null","html-keynbutton-response","103","2.0.0","94029","12","<div class=""pb-14 text-7xl"">+</div>","null","fixation","","","","","",""
"","504","html-keynbutton-response","104","2.0.0","94534","12","<div class=""flex flex-row stim-length pb-8 md:pd-20 justify-evenly items-center""><div class=""circle""></div><div class=""circle""></div><div class=""circle""></div></div>","q","","matchness_test","match","圆","q","true","match"
"","null","html-keynbutton-response","105","2.0.0","95049","12","<div class=""pb-14 text-7xl"">+</div>","null","fixation","","","","","",""
"","540","html-keynbutton-response","106","2.0.0","95590","12","<div class=""flex flex-row stim-length pb-8 md:pd-20 justify-evenly items-center""><div class=""square""></div><div class=""square""></div><div class=""square""></div></div>","q","","matchness_test","match","方","q","true","match"
"","null","html-keynbutton-response","107","2.0.0","96096","12","<div class=""pb-14 text-7xl"">+</div>","null","fixation","","","","","",""
"","469","html-keynbutton-response","108","2.0.0","96566","12","<div class=""flex flex-row stim-length pb-8 md:pd-20 justify-evenly items-center""><div class=""square""></div><div class=""square""></div><div class=""square""></div></div>","q","","matchness_test","match","方","q","true","match"
"","null","html-keynbutton-response","109","2.0.0","97078","12","<div class=""pb-14 text-7xl"">+</div>","null","fixation","","","","","",""
"","479","html-keynbutton-response","110","2.0.0","97558","12","<div class=""flex flex-row stim-length pb-8 md:pd-20 justify-evenly items-center""><div class=""circle""></div><div class=""square""></div><div class=""circle""></div></div>","p","","matchness_test","mismatch","方","p","true","mismatch"
"","null","html-keynbutton-response","111","2.0.0","98062","12","<div class=""pb-14 text-7xl"">+</div>","null","fixation","","","","","",""
"","534","html-keynbutton-response","112","2.0.0","98598","12","<div class=""flex flex-row stim-length pb-8 md:pd-20 justify-evenly items-center""><div class=""square""></div><div class=""circle""></div><div class=""square""></div></div>","p","","matchness_test","mismatch","圆","p","true","mismatch"
"","null","html-keynbutton-response","113","2.0.0","99111","12","<div class=""pb-14 text-7xl"">+</div>","null","fixation","","","","","",""
"","510","html-keynbutton-response","114","2.0.0","99622","12","<div class=""flex flex-row stim-length pb-8 md:pd-20 justify-evenly items-center""><div class=""circle""></div><div class=""circle""></div><div class=""circle""></div></div>","q","","matchness_test","match","圆","q","true","match"
"","null","html-keynbutton-response","115","2.0.0","100129","12","<div class=""pb-14 text-7xl"">+</div>","null","fixation","","","","","",""
"","483","html-keynbutton-response","116","2.0.0","100613","12","<div class=""flex flex-row stim-length pb-8 md:pd-20 justify-evenly items-center""><div class=""square""></div><div class=""square""></div><div class=""square""></div></div>","q","","matchness_test","match","方","q","true","match"
"","null","html-keynbutton-response","117","2.0.0","101130","12","<div class=""pb-14 text-7xl"">+</div>","null","fixation","","","","","",""
"","475","html-keynbutton-response","118","2.0.0","101606","12","<div class=""flex flex-row stim-length pb-8 md:pd-20 justify-evenly items-center""><div class=""square""></div><div class=""circle""></div><div class=""square""></div></div>","p","","matchness_test","mismatch","圆","p","true","mismatch"
"","null","html-keynbutton-response","119","2.0.0","102111","12","<div class=""pb-14 text-7xl"">+</div>","null","fixation","","","","","",""
"","486","html-keynbutton-response","120","2.0.0","102597","12","<div class=""flex flex-row stim-length pb-8 md:pd-20 justify-evenly items-center""><div class=""circle""></div><div class=""circle""></div><div class=""circle""></div></div>","q","","matchness_test","match","圆","q","true","match"
"","null","html-keynbutton-response","121","2.0.0","103108","12","<div class=""pb-14 text-7xl"">+</div>","null","fixation","","","","","",""
"","496","html-keynbutton-response","122","2.0.0","103606","12","<div class=""flex flex-row stim-length pb-8 md:pd-20 justify-evenly items-center""><div class=""circle""></div><div class=""square""></div><div class=""circle""></div></div>","p","","matchness_test","mismatch","方","p","true","mismatch"
"","null","html-keynbutton-response","123","2.0.0","104119","12","<div class=""pb-14 text-7xl"">+</div>","null","fixation","","","","","",""
"","446","html-keynbutton-response","124","2.0.0","104565","12","<div class=""flex flex-row stim-length pb-8 md:pd-20 justify-evenly items-center""><div class=""square""></div><div class=""square""></div><div class=""square""></div></div>","q","","matchness_test","match","方","q","true","match"
"","null","html-keynbutton-response","125","2.0.0","105069","12","<div class=""pb-14 text-7xl"">+</div>","null","fixation","","","","","",""
"","504","html-keynbutton-response","126","2.0.0","105574","12","<div class=""flex flex-row stim-length pb-8 md:pd-20 justify-evenly items-center""><div class=""circle""></div><div class=""circle""></div><div class=""circle""></div></div>","q","","matchness_test","match","圆","q","true","match"
"","null","html-keynbutton-response","127","2.0.0","106083","12","<div class=""pb-14 text-7xl"">+</div>","null","fixation","","","","","",""
"","513","html-keynbutton-response","128","2.0.0","106597","12","<div class=""flex flex-row stim-length pb-8 md:pd-20 justify-evenly items-center""><div class=""square""></div><div class=""circle""></div><div class=""square""></div></div>","p","","matchness_test","mismatch","圆","p","true","mismatch"
"","null","html-keynbutton-response","129","2.0.0","107100","12","<div class=""pb-14 text-7xl"">+</div>","null","fixation","","","","","",""
"","585","html-keynbutton-response","130","2.0.0","107686","12","<div class=""flex flex-row stim-length pb-8 md:pd-20 justify-evenly items-center""><div class=""circle""></div><div class=""square""></div><div class=""circle""></div></div>","p","","matchness_test","mismatch","方","p","true","mismatch"
"","null","html-keynbutton-response","131","2.0.0","108194","12","<div class=""pb-14 text-7xl"">+</div>","null","fixation","","","","","",""
"","593","html-keynbutton-response","132","2.0.0","108789","12","<div class=""flex flex-row stim-length pb-8 md:pd-20 justify-evenly items-center""><div class=""square""></div><div class=""circle""></div><div class=""square""></div></div>","p","","matchness_test","mismatch","圆","p","true","mismatch"
"","null","html-keynbutton-response","133","2.0.0","109295","12","<div class=""pb-14 text-7xl"">+</div>","null","fixation","","","","","",""
"","486","html-keynbutton-response","134","2.0.0","109782","12","<div class=""flex flex-row stim-length pb-8 md:pd-20 justify-evenly items-center""><div class=""square""></div><div class=""square""></div><div class=""square""></div></div>","q","","matchness_test","match","方","q","true","match"
"","null","html-keynbutton-response","135","2.0.0","110296","12","<div class=""pb-14 text-7xl"">+</div>","null","fixation","","","","","",""
"","541","html-keynbutton-response","136","2.0.0","110838","12","<div class=""flex flex-row stim-length pb-8 md:pd-20 justify-evenly items-center""><div class=""circle""></div><div class=""square""></div><div class=""circle""></div></div>","p","","matchness_test","mismatch","方","p","true","mismatch"
"","null","html-keynbutton-response","137","2.0.0","111352","12","<div class=""pb-14 text-7xl"">+</div>","null","fixation","","","","","",""
"","509","html-keynbutton-response","138","2.0.0","111862","12","<div class=""flex flex-row stim-length pb-8 md:pd-20 justify-evenly items-center""><div class=""circle""></div><div class=""circle""></div><div class=""circle""></div></div>","q","","matchness_test","match","圆","q","true","match"
"","null","html-keynbutton-response","139","2.0.0","112378","12","<div class=""pb-14 text-7xl"">+</div>","null","fixation","","","","","",""
"","491","html-keynbutton-response","140","2.0.0","112869","12","<div class=""flex flex-row stim-length pb-8 md:pd-20 justify-evenly items-center""><div class=""circle""></div><div class=""square""></div><div class=""circle""></div></div>","p","","matchness_test","mismatch","方","p","true","mismatch"
"","null","html-keynbutton-response","141","2.0.0","113376","12","<div class=""pb-14 text-7xl"">+</div>","null","fixation","","","","","",""
"","533","html-keynbutton-response","142","2.0.0","113909","12","<div class=""flex flex-row stim-length pb-8 md:pd-20 justify-evenly items-center""><div class=""circle""></div><div class=""circle""></div><div class=""circle""></div></div>","q","","matchness_test","match","圆","q","true","match"
"","null","html-keynbutton-response","143","2.0.0","114412","12","<div class=""pb-14 text-7xl"">+</div>","null","fixation","","","","","",""
"","505","html-keynbutton-response","144","2.0.0","114918","12","<div class=""flex flex-row stim-length pb-8 md:pd-20 justify-evenly items-center""><div class=""square""></div><div class=""circle""></div><div class=""square""></div></div>","p","","matchness_test","mismatch","圆","p","true","mismatch"
"","null","html-keynbutton-response","145","2.0.0","115431","12","<div class=""pb-14 text-7xl"">+</div>","null","fixation","","","","","",""
"","509","html-keynbutton-response","146","2.0.0","115941","12","<div class=""flex flex-row stim-length pb-8 md:pd-20 justify-evenly items-center""><div class=""square""></div><div class=""square""></div><div class=""square""></div></div>","q","","matchness_test","match","方","q","true","match"
"","7374","html-keynbutton-response","147","2.0.0","123318","12","<div class=""jp""><p>您已完成1/10部分</p><p>请休息一会儿</p>
    <p>您的正确率是：98%</p>
    <p>您的平均反应时间是：489毫秒</p></div>"," ","block_feedback","","","","","",""
"","null","html-keynbutton-response","148","2.0.0","126525","12","<count-down title=""""></count-down>","null","countDown_trial","","","","","",""
"","null","html-keynbutton-response","149","2.0.0","127029","12","<div class=""pb-14 text-7xl"">+</div>","null","fixation","","","","","",""
"","544","html-keynbutton-response","150","2.0.0","127574","12","<div class=""flex flex-row stim-length pb-8 md:pd-20 justify-evenly items-center""><div class=""square""></div><div class=""circle""></div><div class=""square""></div></div>","p","","matchness_test_1","mismatch","圆","p","true","mismatch"
"","null","html-keynbutton-response","151","2.0.0","128080","12","<div class=""pb-14 text-7xl"">+</div>","null","fixation","","","","","",""
"","549","html-keynbutton-response","152","2.0.0","128630","12","<div class=""flex flex-row stim-length pb-8 md:pd-20 justify-evenly items-center""><div class=""circle""></div><div class=""square""></div><div class=""circle""></div></div>","p","","matchness_test_1","mismatch","方","p","true","mismatch"
"","null","html-keynbutton-response","153","2.0.0","129144","12","<div class=""pb-14 text-7xl"">+</div>","null","fixation","","","","","",""
"","525","html-keynbutton-response","154","2.0.0","129669","12","<div class=""flex flex-row stim-length pb-8 md:pd-20 justify-evenly items-center""><div class=""square""></div><div class=""square""></div><div class=""square""></div></div>","q","","matchness_test_1","match","方","q","true","match"
"","null","html-keynbutton-response","155","2.0.0","130176","12","<div class=""pb-14 text-7xl"">+</div>","null","fixation","","","","","",""
"","533","html-keynbutton-response","156","2.0.0","130710","12","<div class=""flex flex-row stim-length pb-8 md:pd-20 justify-evenly items-center""><div class=""circle""></div><div class=""circle""></div><div class=""circle""></div></div>","q","","matchness_test_1","match","圆","q","true","match"
"","null","html-keynbutton-response","157","2.0.0","131212","12","<div class=""pb-14 text-7xl"">+</div>","null","fixation","","","","","",""
"","568","html-keynbutton-response","158","2.0.0","131782","12","<div class=""flex flex-row stim-length pb-8 md:pd-20 justify-evenly items-center""><div class=""square""></div><div class=""circle""></div><div class=""square""></div></div>","p","","matchness_test_1","mismatch","圆","p","true","mismatch"
"","null","html-keynbutton-response","159","2.0.0","132294","12","<div class=""pb-14 text-7xl"">+</div>","null","fixation","","","","","",""
"","574","html-keynbutton-response","160","2.0.0","132869","12","<div class=""flex flex-row stim-length pb-8 md:pd-20 justify-evenly items-center""><div class=""circle""></div><div class=""circle""></div><div class=""circle""></div></div>","q","","matchness_test_1","match","圆","q","true","match"
"","null","html-keynbutton-response","161","2.0.0","133376","12","<div class=""pb-14 text-7xl"">+</div>","null","fixation","","","","","",""
"","485","html-keynbutton-response","162","2.0.0","133862","12","<div class=""flex flex-row stim-length pb-8 md:pd-20 justify-evenly items-center""><div class=""square""></div><div class=""square""></div><div class=""square""></div></div>","q","","matchness_test_1","match","方","q","true","match"
"","null","html-keynbutton-response","163","2.0.0","134370","12","<div class=""pb-14 text-7xl"">+</div>","null","fixation","","","","","",""
"","595","html-keynbutton-response","164","2.0.0","134966","12","<div class=""flex flex-row stim-length pb-8 md:pd-20 justify-evenly items-center""><div class=""circle""></div><div class=""square""></div><div class=""circle""></div></div>","p","","matchness_test_1","mismatch","方","p","true","mismatch"
"","null","html-keynbutton-response","165","2.0.0","135478","12","<div class=""pb-14 text-7xl"">+</div>","null","fixation","","","","","",""
"","559","html-keynbutton-response","166","2.0.0","136037","12","<div class=""flex flex-row stim-length pb-8 md:pd-20 justify-evenly items-center""><div class=""square""></div><div class=""square""></div><div class=""square""></div></div>","q","","matchness_test_1","match","方","q","true","match"
"","null","html-keynbutton-response","167","2.0.0","136553","12","<div class=""pb-14 text-7xl"">+</div>","null","fixation","","","","","",""
"","556","html-keynbutton-response","168","2.0.0","137110","12","<div class=""flex flex-row stim-length pb-8 md:pd-20 justify-evenly items-center""><div class=""circle""></div><div class=""circle""></div><div class=""circle""></div></div>","q","","matchness_test_1","match","圆","q","true","match"
"","null","html-keynbutton-response","169","2.0.0","137612","12","<div class=""pb-14 text-7xl"">+</div>","null","fixation","","","","","",""
"","697","html-keynbutton-response","170","2.0.0","138310","12","<div class=""flex flex-row stim-length pb-8 md:pd-20 justify-evenly items-center""><div class=""circle""></div><div class=""square""></div><div class=""circle""></div></div>","p","","matchness_test_1","mismatch","方","p","true","mismatch"
"","null","html-keynbutton-response","171","2.0.0","138812","12","<div class=""pb-14 text-7xl"">+</div>","null","fixation","","","","","",""
"","424","html-keynbutton-response","172","2.0.0","139237","12","<div class=""flex flex-row stim-length pb-8 md:pd-20 justify-evenly items-center""><div class=""square""></div><div class=""circle""></div><div class=""square""></div></div>","p","","matchness_test_1","mismatch","圆","p","true","mismatch"
"","null","html-keynbutton-response","173","2.0.0","139744","12","<div class=""pb-14 text-7xl"">+</div>","null","fixation","","","","","",""
"","484","html-keynbutton-response","174","2.0.0","140228","12","<div class=""flex flex-row stim-length pb-8 md:pd-20 justify-evenly items-center""><div class=""square""></div><div class=""circle""></div><div class=""square""></div></div>","p","","matchness_test_1","mismatch","圆","p","true","mismatch"
"","null","html-keynbutton-response","175","2.0.0","140729","12","<div class=""pb-14 text-7xl"">+</div>","null","fixation","","","","","",""
"","475","html-keynbutton-response","176","2.0.0","141206","12","<div class=""flex flex-row stim-length pb-8 md:pd-20 justify-evenly items-center""><div class=""circle""></div><div class=""circle""></div><div class=""circle""></div></div>","q","","matchness_test_1","match","圆","q","true","match"
"","null","html-keynbutton-response","177","2.0.0","141712","12","<div class=""pb-14 text-7xl"">+</div>","null","fixation","","","","","",""
"","532","html-keynbutton-response","178","2.0.0","142245","12","<div class=""flex flex-row stim-length pb-8 md:pd-20 justify-evenly items-center""><div class=""square""></div><div class=""square""></div><div class=""square""></div></div>","q","","matchness_test_1","match","方","q","true","match"
"","null","html-keynbutton-response","179","2.0.0","142761","12","<div class=""pb-14 text-7xl"">+</div>","null","fixation","","","","","",""
"","490","html-keynbutton-response","180","2.0.0","143253","12","<div class=""flex flex-row stim-length pb-8 md:pd-20 justify-evenly items-center""><div class=""circle""></div><div class=""square""></div><div class=""circle""></div></div>","p","","matchness_test_1","mismatch","方","p","true","mismatch"
"","null","html-keynbutton-response","181","2.0.0","143762","12","<div class=""pb-14 text-7xl"">+</div>","null","fixation","","","","","",""
"","547","html-keynbutton-response","182","2.0.0","144309","12","<div class=""flex flex-row stim-length pb-8 md:pd-20 justify-evenly items-center""><div class=""circle""></div><div class=""square""></div><div class=""circle""></div></div>","p","","matchness_test_1","mismatch","方","p","true","mismatch"
"","null","html-keynbutton-response","183","2.0.0","144812","12","<div class=""pb-14 text-7xl"">+</div>","null","fixation","","","","","",""
"","424","html-keynbutton-response","184","2.0.0","145237","12","<div class=""flex flex-row stim-length pb-8 md:pd-20 justify-evenly items-center""><div class=""square""></div><div class=""circle""></div><div class=""square""></div></div>","p","","matchness_test_1","mismatch","圆","p","true","mismatch"
"","null","html-keynbutton-response","185","2.0.0","145745","12","<div class=""pb-14 text-7xl"">+</div>","null","fixation","","","","","",""
"","531","html-keynbutton-response","186","2.0.0","146277","12","<div class=""flex flex-row stim-length pb-8 md:pd-20 justify-evenly items-center""><div class=""circle""></div><div class=""circle""></div><div class=""circle""></div></div>","q","","matchness_test_1","match","圆","q","true","match"
"","null","html-keynbutton-response","187","2.0.0","146779","12","<div class=""pb-14 text-7xl"">+</div>","null","fixation","","","","","",""
"","537","html-keynbutton-response","188","2.0.0","147317","12","<div class=""flex flex-row stim-length pb-8 md:pd-20 justify-evenly items-center""><div class=""square""></div><div class=""square""></div><div class=""square""></div></div>","q","","matchness_test_1","match","方","q","true","match"
"","null","html-keynbutton-response","189","2.0.0","147827","12","<div class=""pb-14 text-7xl"">+</div>","null","fixation","","","","","",""
"","401","html-keynbutton-response","190","2.0.0","148230","12","<div class=""flex flex-row stim-length pb-8 md:pd-20 justify-evenly items-center""><div class=""square""></div><div class=""square""></div><div class=""square""></div></div>","q","","matchness_test_1","match","方","q","true","match"
"","null","html-keynbutton-response","191","2.0.0","148745","12","<div class=""pb-14 text-7xl"">+</div>","null","fixation","","","","","",""
"","444","html-keynbutton-response","192","2.0.0","149189","12","<div class=""flex flex-row stim-length pb-8 md:pd-20 justify-evenly items-center""><div class=""circle""></div><div class=""circle""></div><div class=""circle""></div></div>","q","","matchness_test_1","match","圆","q","true","match"
"","null","html-keynbutton-response","193","2.0.0","149695","12","<div class=""pb-14 text-7xl"">+</div>","null","fixation","","","","","",""
"","485","html-keynbutton-response","194","2.0.0","150182","12","<div class=""flex flex-row stim-length pb-8 md:pd-20 justify-evenly items-center""><div class=""circle""></div><div class=""square""></div><div class=""circle""></div></div>","p","","matchness_test_1","mismatch","方","p","true","mismatch"
"","null","html-keynbutton-response","195","2.0.0","150694","12","<div class=""pb-14 text-7xl"">+</div>","null","fixation","","","","","",""
"","622","html-keynbutton-response","196","2.0.0","151317","12","<div class=""flex flex-row stim-length pb-8 md:pd-20 justify-evenly items-center""><div class=""square""></div><div class=""circle""></div><div class=""square""></div></div>","p","","matchness_test_1","mismatch","圆","p","true","mismatch"
"","null","html-keynbutton-response","197","2.0.0","151828","12","<div class=""pb-14 text-7xl"">+</div>","null","fixation","","","","","",""
"","432","html-keynbutton-response","198","2.0.0","152262","12","<div class=""flex flex-row stim-length pb-8 md:pd-20 justify-evenly items-center""><div class=""circle""></div><div class=""square""></div><div class=""circle""></div></div>","p","","matchness_test_1","mismatch","方","p","true","mismatch"
"","null","html-keynbutton-response","199","2.0.0","152778","12","<div class=""pb-14 text-7xl"">+</div>","null","fixation","","","","","",""
"","426","html-keynbutton-response","200","2.0.0","153205","12","<div class=""flex flex-row stim-length pb-8 md:pd-20 justify-evenly items-center""><div class=""square""></div><div class=""circle""></div><div class=""square""></div></div>","p","","matchness_test_1","mismatch","圆","p","true","mismatch"
"","null","html-keynbutton-response","201","2.0.0","153715","12","<div class=""pb-14 text-7xl"">+</div>","null","fixation","","","","","",""
"","561","html-keynbutton-response","202","2.0.0","154277","12","<div class=""flex flex-row stim-length pb-8 md:pd-20 justify-evenly items-center""><div class=""circle""></div><div class=""circle""></div><div class=""circle""></div></div>","q","","matchness_test_1","match","圆","q","true","match"
"","null","html-keynbutton-response","203","2.0.0","154784","12","<div class=""pb-14 text-7xl"">+</div>","null","fixation","","","","","",""
"","516","html-keynbutton-response","204","2.0.0","155301","12","<div class=""flex flex-row stim-length pb-8 md:pd-20 justify-evenly items-center""><div class=""square""></div><div class=""square""></div><div class=""square""></div></div>","q","","matchness_test_1","match","方","q","true","match"
"","null","html-keynbutton-response","205","2.0.0","155815","12","<div class=""pb-14 text-7xl"">+</div>","null","fixation","","","","","",""
"","734","html-keynbutton-response","206","2.0.0","156549","12","<div class=""flex flex-row stim-length pb-8 md:pd-20 justify-evenly items-center""><div class=""circle""></div><div class=""square""></div><div class=""circle""></div></div>","p","","matchness_test_1","mismatch","方","p","true","mismatch"
"","null","html-keynbutton-response","207","2.0.0","157061","12","<div class=""pb-14 text-7xl"">+</div>","null","fixation","","","","","",""
"","752","html-keynbutton-response","208","2.0.0","157814","12","<div class=""flex flex-row stim-length pb-8 md:pd-20 justify-evenly items-center""><div class=""square""></div><div class=""square""></div><div class=""square""></div></div>","q","","matchness_test_1","match","方","q","true","match"
"","null","html-keynbutton-response","209","2.0.0","158328","12","<div class=""pb-14 text-7xl"">+</div>","null","fixation","","","","","",""
"","445","html-keynbutton-response","210","2.0.0","158774","12","<div class=""flex flex-row stim-length pb-8 md:pd-20 justify-evenly items-center""><div class=""circle""></div><div class=""circle""></div><div class=""circle""></div></div>","q","","matchness_test_1","match","圆","q","true","match"
"","null","html-keynbutton-response","211","2.0.0","159280","12","<div class=""pb-14 text-7xl"">+</div>","null","fixation","","","","","",""
"","501","html-keynbutton-response","212","2.0.0","159781","12","<div class=""flex flex-row stim-length pb-8 md:pd-20 justify-evenly items-center""><div class=""square""></div><div class=""circle""></div><div class=""square""></div></div>","p","","matchness_test_1","mismatch","圆","p","true","mismatch"
"","null","html-keynbutton-response","213","2.0.0","160284","12","<div class=""pb-14 text-7xl"">+</div>","null","fixation","","","","","",""
"","504","html-keynbutton-response","214","2.0.0","160780","12","<div class=""flex flex-row stim-length pb-8 md:pd-20 justify-evenly items-center""><div class=""circle""></div><div class=""square""></div><div class=""circle""></div></div>","p","","matchness_test_1","mismatch","方","p","true","mismatch"
"","null","html-keynbutton-response","215","2.0.0","161289","12","<div class=""pb-14 text-7xl"">+</div>","null","fixation","","","","","",""
"","498","html-keynbutton-response","216","2.0.0","161788","12","<div class=""flex flex-row stim-length pb-8 md:pd-20 justify-evenly items-center""><div class=""square""></div><div class=""circle""></div><div class=""square""></div></div>","p","","matchness_test_1","mismatch","圆","p","true","mismatch"
"","null","html-keynbutton-response","217","2.0.0","162301","12","<div class=""pb-14 text-7xl"">+</div>","null","fixation","","","","","",""
"","510","html-keynbutton-response","218","2.0.0","162812","12","<div class=""flex flex-row stim-length pb-8 md:pd-20 justify-evenly items-center""><div class=""square""></div><div class=""square""></div><div class=""square""></div></div>","q","","matchness_test_1","match","方","q","true","match"
"","null","html-keynbutton-response","219","2.0.0","163319","12","<div class=""pb-14 text-7xl"">+</div>","null","fixation","","","","","",""
"","484","html-keynbutton-response","220","2.0.0","163804","12","<div class=""flex flex-row stim-length pb-8 md:pd-20 justify-evenly items-center""><div class=""circle""></div><div class=""circle""></div><div class=""circle""></div></div>","q","","matchness_test_1","match","圆","q","true","match"
"","null","html-keynbutton-response","221","2.0.0","164318","12","<div class=""pb-14 text-7xl"">+</div>","null","fixation","","","","","",""
"","573","html-keynbutton-response","222","2.0.0","164892","12","<div class=""flex flex-row stim-length pb-8 md:pd-20 justify-evenly items-center""><div class=""circle""></div><div class=""square""></div><div class=""circle""></div></div>","p","","matchness_test_1","mismatch","方","p","true","mismatch"
"","null","html-keynbutton-response","223","2.0.0","165402","12","<div class=""pb-14 text-7xl"">+</div>","null","fixation","","","","","",""
"","545","html-keynbutton-response","224","2.0.0","165948","12","<div class=""flex flex-row stim-length pb-8 md:pd-20 justify-evenly items-center""><div class=""circle""></div><div class=""circle""></div><div class=""circle""></div></div>","q","","matchness_test_1","match","圆","q","true","match"
"","null","html-keynbutton-response","225","2.0.0","166452","12","<div class=""pb-14 text-7xl"">+</div>","null","fixation","","","","","",""
"","551","html-keynbutton-response","226","2.0.0","167004","12","<div class=""flex flex-row stim-length pb-8 md:pd-20 justify-evenly items-center""><div class=""square""></div><div class=""circle""></div><div class=""square""></div></div>","p","","matchness_test_1","mismatch","圆","p","true","mismatch"
"","null","html-keynbutton-response","227","2.0.0","167518","12","<div class=""pb-14 text-7xl"">+</div>","null","fixation","","","","","",""
"","493","html-keynbutton-response","228","2.0.0","168012","12","<div class=""flex flex-row stim-length pb-8 md:pd-20 justify-evenly items-center""><div class=""square""></div><div class=""square""></div><div class=""square""></div></div>","q","","matchness_test_1","match","方","q","true","match"
"","5981","html-keynbutton-response","229","2.0.0","173995","12","<div class=""jp""><p>您已完成2/10部分</p><p>请休息一会儿</p>
    <p>您的正确率是：100%</p>
    <p>您的平均反应时间是：528毫秒</p></div>"," ","block_feedback","","","","","",""
"","null","html-keynbutton-response","230","2.0.0","177199","12","<count-down title=""""></count-down>","null","countDown_trial","","","","","",""
"","null","html-keynbutton-response","231","2.0.0","177702","12","<div class=""pb-14 text-7xl"">+</div>","null","fixation","","","","","",""
"","452","html-keynbutton-response","232","2.0.0","178156","12","<div class=""flex flex-row stim-length pb-8 md:pd-20 justify-evenly items-center""><div class=""square""></div><div class=""square""></div><div class=""square""></div></div>","q","","matchness_test_2","match","方","q","true","match"
"","null","html-keynbutton-response","233","2.0.0","178668","12","<div class=""pb-14 text-7xl"">+</div>","null","fixation","","","","","",""
"","495","html-keynbutton-response","234","2.0.0","179164","12","<div class=""flex flex-row stim-length pb-8 md:pd-20 justify-evenly items-center""><div class=""circle""></div><div class=""circle""></div><div class=""circle""></div></div>","q","","matchness_test_2","match","圆","q","true","match"
"","null","html-keynbutton-response","235","2.0.0","179670","12","<div class=""pb-14 text-7xl"">+</div>","null","fixation","","","","","",""
"","468","html-keynbutton-response","236","2.0.0","180139","12","<div class=""flex flex-row stim-length pb-8 md:pd-20 justify-evenly items-center""><div class=""square""></div><div class=""circle""></div><div class=""square""></div></div>","p","","matchness_test_2","mismatch","圆","p","true","mismatch"
"","null","html-keynbutton-response","237","2.0.0","180642","12","<div class=""pb-14 text-7xl"">+</div>","null","fixation","","","","","",""
"","521","html-keynbutton-response","238","2.0.0","181163","12","<div class=""flex flex-row stim-length pb-8 md:pd-20 justify-evenly items-center""><div class=""circle""></div><div class=""square""></div><div class=""circle""></div></div>","p","","matchness_test_2","mismatch","方","p","true","mismatch"
"","null","html-keynbutton-response","239","2.0.0","181670","12","<div class=""pb-14 text-7xl"">+</div>","null","fixation","","","","","",""
"","533","html-keynbutton-response","240","2.0.0","182204","12","<div class=""flex flex-row stim-length pb-8 md:pd-20 justify-evenly items-center""><div class=""square""></div><div class=""circle""></div><div class=""square""></div></div>","p","","matchness_test_2","mismatch","圆","p","true","mismatch"
"","null","html-keynbutton-response","241","2.0.0","182718","12","<div class=""pb-14 text-7xl"">+</div>","null","fixation","","","","","",""
"","508","html-keynbutton-response","242","2.0.0","183228","12","<div class=""flex flex-row stim-length pb-8 md:pd-20 justify-evenly items-center""><div class=""circle""></div><div class=""circle""></div><div class=""circle""></div></div>","q","","matchness_test_2","match","圆","q","true","match"
"","null","html-keynbutton-response","243","2.0.0","183735","12","<div class=""pb-14 text-7xl"">+</div>","null","fixation","","","","","",""
"","610","html-keynbutton-response","244","2.0.0","184346","12","<div class=""flex flex-row stim-length pb-8 md:pd-20 justify-evenly items-center""><div class=""circle""></div><div class=""square""></div><div class=""circle""></div></div>","p","","matchness_test_2","mismatch","方","p","true","mismatch"
"","null","html-keynbutton-response","245","2.0.0","184853","12","<div class=""pb-14 text-7xl"">+</div>","null","fixation","","","","","",""
"","486","html-keynbutton-response","246","2.0.0","185340","12","<div class=""flex flex-row stim-length pb-8 md:pd-20 justify-evenly items-center""><div class=""square""></div><div class=""square""></div><div class=""square""></div></div>","q","","matchness_test_2","match","方","q","true","match"
"","null","html-keynbutton-response","247","2.0.0","185851","12","<div class=""pb-14 text-7xl"">+</div>","null","fixation","","","","","",""
"","528","html-keynbutton-response","248","2.0.0","186380","12","<div class=""flex flex-row stim-length pb-8 md:pd-20 justify-evenly items-center""><div class=""square""></div><div class=""square""></div><div class=""square""></div></div>","q","","matchness_test_2","match","方","q","true","match"
"","null","html-keynbutton-response","249","2.0.0","186885","12","<div class=""pb-14 text-7xl"">+</div>","null","fixation","","","","","",""
"","501","html-keynbutton-response","250","2.0.0","187387","12","<div class=""flex flex-row stim-length pb-8 md:pd-20 justify-evenly items-center""><div class=""circle""></div><div class=""square""></div><div class=""circle""></div></div>","p","","matchness_test_2","mismatch","方","p","true","mismatch"
"","null","html-keynbutton-response","251","2.0.0","187902","12","<div class=""pb-14 text-7xl"">+</div>","null","fixation","","","","","",""
"","493","html-keynbutton-response","252","2.0.0","188396","12","<div class=""flex flex-row stim-length pb-8 md:pd-20 justify-evenly items-center""><div class=""circle""></div><div class=""circle""></div><div class=""circle""></div></div>","q","","matchness_test_2","match","圆","q","true","match"
"","null","html-keynbutton-response","253","2.0.0","188902","12","<div class=""pb-14 text-7xl"">+</div>","null","fixation","","","","","",""
"","516","html-keynbutton-response","254","2.0.0","189419","12","<div class=""flex flex-row stim-length pb-8 md:pd-20 justify-evenly items-center""><div class=""square""></div><div class=""circle""></div><div class=""square""></div></div>","p","","matchness_test_2","mismatch","圆","p","true","mismatch"
"","null","html-keynbutton-response","255","2.0.0","189934","12","<div class=""pb-14 text-7xl"">+</div>","null","fixation","","","","","",""
"","477","html-keynbutton-response","256","2.0.0","190412","12","<div class=""flex flex-row stim-length pb-8 md:pd-20 justify-evenly items-center""><div class=""circle""></div><div class=""circle""></div><div class=""circle""></div></div>","q","","matchness_test_2","match","圆","q","true","match"
"","null","html-keynbutton-response","257","2.0.0","190919","12","<div class=""pb-14 text-7xl"">+</div>","null","fixation","","","","","",""
"","419","html-keynbutton-response","258","2.0.0","191340","12","<div class=""flex flex-row stim-length pb-8 md:pd-20 justify-evenly items-center""><div class=""square""></div><div class=""square""></div><div class=""square""></div></div>","q","","matchness_test_2","match","方","q","true","match"
"","null","html-keynbutton-response","259","2.0.0","191851","12","<div class=""pb-14 text-7xl"">+</div>","null","fixation","","","","","",""
"","528","html-keynbutton-response","260","2.0.0","192380","12","<div class=""flex flex-row stim-length pb-8 md:pd-20 justify-evenly items-center""><div class=""square""></div><div class=""circle""></div><div class=""square""></div></div>","p","","matchness_test_2","mismatch","圆","p","true","mismatch"
"","null","html-keynbutton-response","261","2.0.0","192885","12","<div class=""pb-14 text-7xl"">+</div>","null","fixation","","","","","",""
"","533","html-keynbutton-response","262","2.0.0","193420","12","<div class=""flex flex-row stim-length pb-8 md:pd-20 justify-evenly items-center""><div class=""circle""></div><div class=""square""></div><div class=""circle""></div></div>","p","","matchness_test_2","mismatch","方","p","true","mismatch"
"","null","html-keynbutton-response","263","2.0.0","193935","12","<div class=""pb-14 text-7xl"">+</div>","null","fixation","","","","","",""
"","491","html-keynbutton-response","264","2.0.0","194428","12","<div class=""flex flex-row stim-length pb-8 md:pd-20 justify-evenly items-center""><div class=""square""></div><div class=""square""></div><div class=""square""></div></div>","q","","matchness_test_2","match","方","q","true","match"
"","null","html-keynbutton-response","265","2.0.0","194933","12","<div class=""pb-14 text-7xl"">+</div>","null","fixation","","","","","",""
"","469","html-keynbutton-response","266","2.0.0","195403","12","<div class=""flex flex-row stim-length pb-8 md:pd-20 justify-evenly items-center""><div class=""circle""></div><div class=""circle""></div><div class=""circle""></div></div>","q","","matchness_test_2","match","圆","q","true","match"
"","null","html-keynbutton-response","267","2.0.0","195918","12","<div class=""pb-14 text-7xl"">+</div>","null","fixation","","","","","",""
"","493","html-keynbutton-response","268","2.0.0","196412","12","<div class=""flex flex-row stim-length pb-8 md:pd-20 justify-evenly items-center""><div class=""square""></div><div class=""circle""></div><div class=""square""></div></div>","p","","matchness_test_2","mismatch","圆","p","true","mismatch"
"","null","html-keynbutton-response","269","2.0.0","196923","12","<div class=""pb-14 text-7xl"">+</div>","null","fixation","","","","","",""
"","480","html-keynbutton-response","270","2.0.0","197404","12","<div class=""flex flex-row stim-length pb-8 md:pd-20 justify-evenly items-center""><div class=""circle""></div><div class=""square""></div><div class=""circle""></div></div>","p","","matchness_test_2","mismatch","方","p","true","mismatch"
"","null","html-keynbutton-response","271","2.0.0","197918","12","<div class=""pb-14 text-7xl"">+</div>","null","fixation","","","","","",""
"","461","html-keynbutton-response","272","2.0.0","198379","12","<div class=""flex flex-row stim-length pb-8 md:pd-20 justify-evenly items-center""><div class=""square""></div><div class=""square""></div><div class=""square""></div></div>","q","","matchness_test_2","match","方","q","true","match"
"","null","html-keynbutton-response","273","2.0.0","198886","12","<div class=""pb-14 text-7xl"">+</div>","null","fixation","","","","","",""
"","436","html-keynbutton-response","274","2.0.0","199323","12","<div class=""flex flex-row stim-length pb-8 md:pd-20 justify-evenly items-center""><div class=""circle""></div><div class=""circle""></div><div class=""circle""></div></div>","q","","matchness_test_2","match","圆","q","true","match"
"","null","html-keynbutton-response","275","2.0.0","199835","12","<div class=""pb-14 text-7xl"">+</div>","null","fixation","","","","","",""
"","544","html-keynbutton-response","276","2.0.0","200380","12","<div class=""flex flex-row stim-length pb-8 md:pd-20 justify-evenly items-center""><div class=""circle""></div><div class=""square""></div><div class=""circle""></div></div>","p","","matchness_test_2","mismatch","方","p","true","mismatch"
"","null","html-keynbutton-response","277","2.0.0","200886","12","<div class=""pb-14 text-7xl"">+</div>","null","fixation","","","","","",""
"","517","html-keynbutton-response","278","2.0.0","201404","12","<div class=""flex flex-row stim-length pb-8 md:pd-20 justify-evenly items-center""><div class=""square""></div><div class=""circle""></div><div class=""square""></div></div>","p","","matchness_test_2","mismatch","圆","p","true","mismatch"
"","null","html-keynbutton-response","279","2.0.0","201918","12","<div class=""pb-14 text-7xl"">+</div>","null","fixation","","","","","",""
"","524","html-keynbutton-response","280","2.0.0","202444","12","<div class=""flex flex-row stim-length pb-8 md:pd-20 justify-evenly items-center""><div class=""square""></div><div class=""circle""></div><div class=""square""></div></div>","p","","matchness_test_2","mismatch","圆","p","true","mismatch"
"","null","html-keynbutton-response","281","2.0.0","202951","12","<div class=""pb-14 text-7xl"">+</div>","null","fixation","","","","","",""
"","435","html-keynbutton-response","282","2.0.0","203387","12","<div class=""flex flex-row stim-length pb-8 md:pd-20 justify-evenly items-center""><div class=""circle""></div><div class=""square""></div><div class=""circle""></div></div>","p","","matchness_test_2","mismatch","方","p","true","mismatch"
"","null","html-keynbutton-response","283","2.0.0","203901","12","<div class=""pb-14 text-7xl"">+</div>","null","fixation","","","","","",""
"","589","html-keynbutton-response","284","2.0.0","204492","12","<div class=""flex flex-row stim-length pb-8 md:pd-20 justify-evenly items-center""><div class=""circle""></div><div class=""circle""></div><div class=""circle""></div></div>","q","","matchness_test_2","match","圆","q","true","match"
"","null","html-keynbutton-response","285","2.0.0","205001","12","<div class=""pb-14 text-7xl"">+</div>","null","fixation","","","","","",""
"","609","html-keynbutton-response","286","2.0.0","205612","12","<div class=""flex flex-row stim-length pb-8 md:pd-20 justify-evenly items-center""><div class=""square""></div><div class=""square""></div><div class=""square""></div></div>","q","","matchness_test_2","match","方","q","true","match"
"","null","html-keynbutton-response","287","2.0.0","206117","12","<div class=""pb-14 text-7xl"">+</div>","null","fixation","","","","","",""
"","518","html-keynbutton-response","288","2.0.0","206636","12","<div class=""flex flex-row stim-length pb-8 md:pd-20 justify-evenly items-center""><div class=""circle""></div><div class=""circle""></div><div class=""circle""></div></div>","q","","matchness_test_2","match","圆","q","true","match"
"","null","html-keynbutton-response","289","2.0.0","207152","12","<div class=""pb-14 text-7xl"">+</div>","null","fixation","","","","","",""
"","539","html-keynbutton-response","290","2.0.0","207691","12","<div class=""flex flex-row stim-length pb-8 md:pd-20 justify-evenly items-center""><div class=""circle""></div><div class=""square""></div><div class=""circle""></div></div>","p","","matchness_test_2","mismatch","方","p","true","mismatch"
"","null","html-keynbutton-response","291","2.0.0","208201","12","<div class=""pb-14 text-7xl"">+</div>","null","fixation","","","","","",""
"","513","html-keynbutton-response","292","2.0.0","208715","12","<div class=""flex flex-row stim-length pb-8 md:pd-20 justify-evenly items-center""><div class=""square""></div><div class=""circle""></div><div class=""square""></div></div>","p","","matchness_test_2","mismatch","圆","p","true","mismatch"
"","null","html-keynbutton-response","293","2.0.0","209220","12","<div class=""pb-14 text-7xl"">+</div>","null","fixation","","","","","",""
"","567","html-keynbutton-response","294","2.0.0","209788","12","<div class=""flex flex-row stim-length pb-8 md:pd-20 justify-evenly items-center""><div class=""square""></div><div class=""square""></div><div class=""square""></div></div>","q","","matchness_test_2","match","方","q","true","match"
"","null","html-keynbutton-response","295","2.0.0","210302","12","<div class=""pb-14 text-7xl"">+</div>","null","fixation","","","","","",""
"","893","html-keynbutton-response","296","2.0.0","211196","12","<div class=""flex flex-row stim-length pb-8 md:pd-20 justify-evenly items-center""><div class=""circle""></div><div class=""circle""></div><div class=""circle""></div></div>","q","","matchness_test_2","match","圆","q","true","match"
"","null","html-keynbutton-response","297","2.0.0","211702","12","<div class=""pb-14 text-7xl"">+</div>","null","fixation","","","","","",""
"","453","html-keynbutton-response","298","2.0.0","212156","12","<div class=""flex flex-row stim-length pb-8 md:pd-20 justify-evenly items-center""><div class=""square""></div><div class=""square""></div><div class=""square""></div></div>","q","","matchness_test_2","match","方","q","true","match"
"","null","html-keynbutton-response","299","2.0.0","212667","12","<div class=""pb-14 text-7xl"">+</div>","null","fixation","","","","","",""
"","544","html-keynbutton-response","300","2.0.0","213212","12","<div class=""flex flex-row stim-length pb-8 md:pd-20 justify-evenly items-center""><div class=""circle""></div><div class=""square""></div><div class=""circle""></div></div>","p","","matchness_test_2","mismatch","方","p","true","mismatch"
"","null","html-keynbutton-response","301","2.0.0","213720","12","<div class=""pb-14 text-7xl"">+</div>","null","fixation","","","","","",""
"","835","html-keynbutton-response","302","2.0.0","214556","12","<div class=""flex flex-row stim-length pb-8 md:pd-20 justify-evenly items-center""><div class=""square""></div><div class=""circle""></div><div class=""square""></div></div>","p","","matchness_test_2","mismatch","圆","p","true","mismatch"
"","null","html-keynbutton-response","303","2.0.0","215068","12","<div class=""pb-14 text-7xl"">+</div>","null","fixation","","","","","",""
"","495","html-keynbutton-response","304","2.0.0","215564","12","<div class=""flex flex-row stim-length pb-8 md:pd-20 justify-evenly items-center""><div class=""square""></div><div class=""square""></div><div class=""square""></div></div>","q","","matchness_test_2","match","方","q","true","match"
"","null","html-keynbutton-response","305","2.0.0","216070","12","<div class=""pb-14 text-7xl"">+</div>","null","fixation","","","","","",""
"","469","html-keynbutton-response","306","2.0.0","216540","12","<div class=""flex flex-row stim-length pb-8 md:pd-20 justify-evenly items-center""><div class=""circle""></div><div class=""circle""></div><div class=""circle""></div></div>","q","","matchness_test_2","match","圆","q","true","match"
"","null","html-keynbutton-response","307","2.0.0","217051","12","<div class=""pb-14 text-7xl"">+</div>","null","fixation","","","","","",""
"","528","html-keynbutton-response","308","2.0.0","217580","12","<div class=""flex flex-row stim-length pb-8 md:pd-20 justify-evenly items-center""><div class=""circle""></div><div class=""square""></div><div class=""circle""></div></div>","p","","matchness_test_2","mismatch","方","p","true","mismatch"
"","null","html-keynbutton-response","309","2.0.0","218085","12","<div class=""pb-14 text-7xl"">+</div>","null","fixation","","","","","",""
"","533","html-keynbutton-response","310","2.0.0","218619","12","<div class=""flex flex-row stim-length pb-8 md:pd-20 justify-evenly items-center""><div class=""square""></div><div class=""circle""></div><div class=""square""></div></div>","p","","matchness_test_2","mismatch","圆","p","true","mismatch"
"","4734","html-keynbutton-response","311","2.0.0","223354","12","<div class=""jp""><p>您已完成3/10部分</p><p>请休息一会儿</p>
    <p>您的正确率是：100%</p>
    <p>您的平均反应时间是：525毫秒</p></div>"," ","block_feedback","","","","","",""
"","null","html-keynbutton-response","312","2.0.0","226563","12","<count-down title=""""></count-down>","null","countDown_trial","","","","","",""
"","null","html-keynbutton-response","313","2.0.0","227067","12","<div class=""pb-14 text-7xl"">+</div>","null","fixation","","","","","",""
"","398","html-keynbutton-response","314","2.0.0","227466","12","<div class=""flex flex-row stim-length pb-8 md:pd-20 justify-evenly items-center""><div class=""circle""></div><div class=""circle""></div><div class=""circle""></div></div>","q","","matchness_test_3","match","圆","q","true","match"
"","null","html-keynbutton-response","315","2.0.0","227967","12","<div class=""pb-14 text-7xl"">+</div>","null","fixation","","","","","",""
"","489","html-keynbutton-response","316","2.0.0","228458","12","<div class=""flex flex-row stim-length pb-8 md:pd-20 justify-evenly items-center""><div class=""square""></div><div class=""circle""></div><div class=""square""></div></div>","p","","matchness_test_3","mismatch","圆","p","true","mismatch"
"","null","html-keynbutton-response","317","2.0.0","228965","12","<div class=""pb-14 text-7xl"">+</div>","null","fixation","","","","","",""
"","467","html-keynbutton-response","318","2.0.0","229434","12","<div class=""flex flex-row stim-length pb-8 md:pd-20 justify-evenly items-center""><div class=""square""></div><div class=""square""></div><div class=""square""></div></div>","q","","matchness_test_3","match","方","q","true","match"
"","null","html-keynbutton-response","319","2.0.0","229950","12","<div class=""pb-14 text-7xl"">+</div>","null","fixation","","","","","",""
"","459","html-keynbutton-response","320","2.0.0","230410","12","<div class=""flex flex-row stim-length pb-8 md:pd-20 justify-evenly items-center""><div class=""circle""></div><div class=""square""></div><div class=""circle""></div></div>","p","","matchness_test_3","mismatch","方","p","true","mismatch"
"","null","html-keynbutton-response","321","2.0.0","230917","12","<div class=""pb-14 text-7xl"">+</div>","null","fixation","","","","","",""
"","548","html-keynbutton-response","322","2.0.0","231466","12","<div class=""flex flex-row stim-length pb-8 md:pd-20 justify-evenly items-center""><div class=""circle""></div><div class=""circle""></div><div class=""circle""></div></div>","q","","matchness_test_3","match","圆","q","true","match"
"","null","html-keynbutton-response","323","2.0.0","231983","12","<div class=""pb-14 text-7xl"">+</div>","null","fixation","","","","","",""
"","426","html-keynbutton-response","324","2.0.0","232410","12","<div class=""flex flex-row stim-length pb-8 md:pd-20 justify-evenly items-center""><div class=""square""></div><div class=""square""></div><div class=""square""></div></div>","q","","matchness_test_3","match","方","q","true","match"
"","null","html-keynbutton-response","325","2.0.0","232917","12","<div class=""pb-14 text-7xl"">+</div>","null","fixation","","","","","",""
"","388","html-keynbutton-response","326","2.0.0","233306","12","<div class=""flex flex-row stim-length pb-8 md:pd-20 justify-evenly items-center""><div class=""circle""></div><div class=""square""></div><div class=""circle""></div></div>","p","","matchness_test_3","mismatch","方","p","true","mismatch"
"","null","html-keynbutton-response","327","2.0.0","233816","12","<div class=""pb-14 text-7xl"">+</div>","null","fixation","","","","","",""
"","464","html-keynbutton-response","328","2.0.0","234282","12","<div class=""flex flex-row stim-length pb-8 md:pd-20 justify-evenly items-center""><div class=""square""></div><div class=""circle""></div><div class=""square""></div></div>","p","","matchness_test_3","mismatch","圆","p","true","mismatch"
"","null","html-keynbutton-response","329","2.0.0","234784","12","<div class=""pb-14 text-7xl"">+</div>","null","fixation","","","","","",""
"","409","html-keynbutton-response","330","2.0.0","235194","12","<div class=""flex flex-row stim-length pb-8 md:pd-20 justify-evenly items-center""><div class=""square""></div><div class=""square""></div><div class=""square""></div></div>","q","","matchness_test_3","match","方","q","true","match"
"","null","html-keynbutton-response","331","2.0.0","235700","12","<div class=""pb-14 text-7xl"">+</div>","null","fixation","","","","","",""
"","548","html-keynbutton-response","332","2.0.0","236249","12","<div class=""flex flex-row stim-length pb-8 md:pd-20 justify-evenly items-center""><div class=""square""></div><div class=""circle""></div><div class=""square""></div></div>","p","","matchness_test_3","mismatch","圆","p","true","mismatch"
"","null","html-keynbutton-response","333","2.0.0","236750","12","<div class=""pb-14 text-7xl"">+</div>","null","fixation","","","","","",""
"","506","html-keynbutton-response","334","2.0.0","237258","12","<div class=""flex flex-row stim-length pb-8 md:pd-20 justify-evenly items-center""><div class=""circle""></div><div class=""circle""></div><div class=""circle""></div></div>","q","","matchness_test_3","match","圆","q","true","match"
"","null","html-keynbutton-response","335","2.0.0","237766","12","<div class=""pb-14 text-7xl"">+</div>","null","fixation","","","","","",""
"","579","html-keynbutton-response","336","2.0.0","238346","12","<div class=""flex flex-row stim-length pb-8 md:pd-20 justify-evenly items-center""><div class=""circle""></div><div class=""square""></div><div class=""circle""></div></div>","p","","matchness_test_3","mismatch","方","p","true","mismatch"
"","null","html-keynbutton-response","337","2.0.0","238850","12","<div class=""pb-14 text-7xl"">+</div>","null","fixation","","","","","",""
"","487","html-keynbutton-response","338","2.0.0","239338","12","<div class=""flex flex-row stim-length pb-8 md:pd-20 justify-evenly items-center""><div class=""circle""></div><div class=""circle""></div><div class=""circle""></div></div>","q","","matchness_test_3","match","圆","q","true","match"
"","null","html-keynbutton-response","339","2.0.0","239850","12","<div class=""pb-14 text-7xl"">+</div>","null","fixation","","","","","",""
"","479","html-keynbutton-response","340","2.0.0","240330","12","<div class=""flex flex-row stim-length pb-8 md:pd-20 justify-evenly items-center""><div class=""square""></div><div class=""circle""></div><div class=""square""></div></div>","p","","matchness_test_3","mismatch","圆","p","true","mismatch"
"","null","html-keynbutton-response","341","2.0.0","240833","12","<div class=""pb-14 text-7xl"">+</div>","null","fixation","","","","","",""
"","599","html-keynbutton-response","342","2.0.0","241434","12","<div class=""flex flex-row stim-length pb-8 md:pd-20 justify-evenly items-center""><div class=""square""></div><div class=""square""></div><div class=""square""></div></div>","q","","matchness_test_3","match","方","q","true","match"
"","null","html-keynbutton-response","343","2.0.0","241938","12","<div class=""pb-14 text-7xl"">+</div>","null","fixation","","","","","",""
"","534","html-keynbutton-response","344","2.0.0","242473","12","<div class=""flex flex-row stim-length pb-8 md:pd-20 justify-evenly items-center""><div class=""circle""></div><div class=""square""></div><div class=""circle""></div></div>","p","","matchness_test_3","mismatch","方","p","true","mismatch"
"","null","html-keynbutton-response","345","2.0.0","242983","12","<div class=""pb-14 text-7xl"">+</div>","null","fixation","","","","","",""
"","514","html-keynbutton-response","346","2.0.0","243498","12","<div class=""flex flex-row stim-length pb-8 md:pd-20 justify-evenly items-center""><div class=""square""></div><div class=""circle""></div><div class=""square""></div></div>","p","","matchness_test_3","mismatch","圆","p","true","mismatch"
"","null","html-keynbutton-response","347","2.0.0","244000","12","<div class=""pb-14 text-7xl"">+</div>","null","fixation","","","","","",""
"","441","html-keynbutton-response","348","2.0.0","244442","12","<div class=""flex flex-row stim-length pb-8 md:pd-20 justify-evenly items-center""><div class=""circle""></div><div class=""circle""></div><div class=""circle""></div></div>","q","","matchness_test_3","match","圆","q","true","match"
"","null","html-keynbutton-response","349","2.0.0","244949","12","<div class=""pb-14 text-7xl"">+</div>","null","fixation","","","","","",""
"","516","html-keynbutton-response","350","2.0.0","245466","12","<div class=""flex flex-row stim-length pb-8 md:pd-20 justify-evenly items-center""><div class=""square""></div><div class=""square""></div><div class=""square""></div></div>","q","","matchness_test_3","match","方","q","true","match"
"","null","html-keynbutton-response","351","2.0.0","245975","12","<div class=""pb-14 text-7xl"">+</div>","null","fixation","","","","","",""
"","593","html-keynbutton-response","352","2.0.0","246570","12","<div class=""flex flex-row stim-length pb-8 md:pd-20 justify-evenly items-center""><div class=""circle""></div><div class=""square""></div><div class=""circle""></div></div>","p","","matchness_test_3","mismatch","方","p","true","mismatch"
"","null","html-keynbutton-response","353","2.0.0","247083","12","<div class=""pb-14 text-7xl"">+</div>","null","fixation","","","","","",""
"","526","html-keynbutton-response","354","2.0.0","247610","12","<div class=""flex flex-row stim-length pb-8 md:pd-20 justify-evenly items-center""><div class=""circle""></div><div class=""square""></div><div class=""circle""></div></div>","p","","matchness_test_3","mismatch","方","p","true","mismatch"
"","null","html-keynbutton-response","355","2.0.0","248117","12","<div class=""pb-14 text-7xl"">+</div>","null","fixation","","","","","",""
"","500","html-keynbutton-response","356","2.0.0","248618","12","<div class=""flex flex-row stim-length pb-8 md:pd-20 justify-evenly items-center""><div class=""square""></div><div class=""circle""></div><div class=""square""></div></div>","p","","matchness_test_3","mismatch","圆","p","true","mismatch"
"","null","html-keynbutton-response","357","2.0.0","249133","12","<div class=""pb-14 text-7xl"">+</div>","null","fixation","","","","","",""
"","443","html-keynbutton-response","358","2.0.0","249578","12","<div class=""flex flex-row stim-length pb-8 md:pd-20 justify-evenly items-center""><div class=""square""></div><div class=""square""></div><div class=""square""></div></div>","q","","matchness_test_3","match","方","q","true","match"
"","null","html-keynbutton-response","359","2.0.0","250083","12","<div class=""pb-14 text-7xl"">+</div>","null","fixation","","","","","",""
"","518","html-keynbutton-response","360","2.0.0","250602","12","<div class=""flex flex-row stim-length pb-8 md:pd-20 justify-evenly items-center""><div class=""circle""></div><div class=""circle""></div><div class=""circle""></div></div>","q","","matchness_test_3","match","圆","q","true","match"
"","null","html-keynbutton-response","361","2.0.0","251116","12","<div class=""pb-14 text-7xl"">+</div>","null","fixation","","","","","",""
"","653","html-keynbutton-response","362","2.0.0","251770","12","<div class=""flex flex-row stim-length pb-8 md:pd-20 justify-evenly items-center""><div class=""square""></div><div class=""circle""></div><div class=""square""></div></div>","p","","matchness_test_3","mismatch","圆","p","true","mismatch"
"","null","html-keynbutton-response","363","2.0.0","252283","12","<div class=""pb-14 text-7xl"">+</div>","null","fixation","","","","","",""
"","446","html-keynbutton-response","364","2.0.0","252730","12","<div class=""flex flex-row stim-length pb-8 md:pd-20 justify-evenly items-center""><div class=""square""></div><div class=""square""></div><div class=""square""></div></div>","q","","matchness_test_3","match","方","q","true","match"
"","null","html-keynbutton-response","365","2.0.0","253234","12","<div class=""pb-14 text-7xl"">+</div>","null","fixation","","","","","",""
"","471","html-keynbutton-response","366","2.0.0","253706","12","<div class=""flex flex-row stim-length pb-8 md:pd-20 justify-evenly items-center""><div class=""circle""></div><div class=""circle""></div><div class=""circle""></div></div>","q","","matchness_test_3","match","圆","q","true","match"
"","null","html-keynbutton-response","367","2.0.0","254216","12","<div class=""pb-14 text-7xl"">+</div>","null","fixation","","","","","",""
"","497","html-keynbutton-response","368","2.0.0","254714","12","<div class=""flex flex-row stim-length pb-8 md:pd-20 justify-evenly items-center""><div class=""circle""></div><div class=""square""></div><div class=""circle""></div></div>","p","","matchness_test_3","mismatch","方","p","true","mismatch"
"","null","html-keynbutton-response","369","2.0.0","255217","12","<div class=""pb-14 text-7xl"">+</div>","null","fixation","","","","","",""
"","504","html-keynbutton-response","370","2.0.0","255722","12","<div class=""flex flex-row stim-length pb-8 md:pd-20 justify-evenly items-center""><div class=""circle""></div><div class=""square""></div><div class=""circle""></div></div>","p","","matchness_test_3","mismatch","方","p","true","mismatch"
"","null","html-keynbutton-response","371","2.0.0","256233","12","<div class=""pb-14 text-7xl"">+</div>","null","fixation","","","","","",""
"","496","html-keynbutton-response","372","2.0.0","256730","12","<div class=""flex flex-row stim-length pb-8 md:pd-20 justify-evenly items-center""><div class=""square""></div><div class=""square""></div><div class=""square""></div></div>","q","","matchness_test_3","match","方","q","true","match"
"","null","html-keynbutton-response","373","2.0.0","257234","12","<div class=""pb-14 text-7xl"">+</div>","null","fixation","","","","","",""
"","438","html-keynbutton-response","374","2.0.0","257672","12","<div class=""flex flex-row stim-length pb-8 md:pd-20 justify-evenly items-center""><div class=""circle""></div><div class=""circle""></div><div class=""circle""></div></div>","q","","matchness_test_3","match","圆","q","true","match"
"","null","html-keynbutton-response","375","2.0.0","258183","12","<div class=""pb-14 text-7xl"">+</div>","null","fixation","","","","","",""
"","498","html-keynbutton-response","376","2.0.0","258682","12","<div class=""flex flex-row stim-length pb-8 md:pd-20 justify-evenly items-center""><div class=""square""></div><div class=""circle""></div><div class=""square""></div></div>","p","","matchness_test_3","mismatch","圆","p","true","mismatch"
"","null","html-keynbutton-response","377","2.0.0","259184","12","<div class=""pb-14 text-7xl"">+</div>","null","fixation","","","","","",""
"","536","html-keynbutton-response","378","2.0.0","259721","12","<div class=""flex flex-row stim-length pb-8 md:pd-20 justify-evenly items-center""><div class=""circle""></div><div class=""circle""></div><div class=""circle""></div></div>","q","","matchness_test_3","match","圆","q","true","match"
"","null","html-keynbutton-response","379","2.0.0","260233","12","<div class=""pb-14 text-7xl"">+</div>","null","fixation","","","","","",""
"","448","html-keynbutton-response","380","2.0.0","260682","12","<div class=""flex flex-row stim-length pb-8 md:pd-20 justify-evenly items-center""><div class=""square""></div><div class=""square""></div><div class=""square""></div></div>","q","","matchness_test_3","match","方","q","true","match"
"","null","html-keynbutton-response","381","2.0.0","261184","12","<div class=""pb-14 text-7xl"">+</div>","null","fixation","","","","","",""
"","665","html-keynbutton-response","382","2.0.0","261850","12","<div class=""flex flex-row stim-length pb-8 md:pd-20 justify-evenly items-center""><div class=""circle""></div><div class=""square""></div><div class=""circle""></div></div>","p","","matchness_test_3","mismatch","方","p","true","mismatch"
"","null","html-keynbutton-response","383","2.0.0","262366","12","<div class=""pb-14 text-7xl"">+</div>","null","fixation","","","","","",""
"","491","html-keynbutton-response","384","2.0.0","262858","12","<div class=""flex flex-row stim-length pb-8 md:pd-20 justify-evenly items-center""><div class=""square""></div><div class=""circle""></div><div class=""square""></div></div>","p","","matchness_test_3","mismatch","圆","p","true","mismatch"
"","null","html-keynbutton-response","385","2.0.0","263365","12","<div class=""pb-14 text-7xl"">+</div>","null","fixation","","","","","",""
"","484","html-keynbutton-response","386","2.0.0","263850","12","<div class=""flex flex-row stim-length pb-8 md:pd-20 justify-evenly items-center""><div class=""circle""></div><div class=""square""></div><div class=""circle""></div></div>","p","","matchness_test_3","mismatch","方","p","true","mismatch"
"","null","html-keynbutton-response","387","2.0.0","264366","12","<div class=""pb-14 text-7xl"">+</div>","null","fixation","","","","","",""
"","491","html-keynbutton-response","388","2.0.0","264858","12","<div class=""flex flex-row stim-length pb-8 md:pd-20 justify-evenly items-center""><div class=""square""></div><div class=""circle""></div><div class=""square""></div></div>","p","","matchness_test_3","mismatch","圆","p","true","mismatch"
"","null","html-keynbutton-response","389","2.0.0","265367","12","<div class=""pb-14 text-7xl"">+</div>","null","fixation","","","","","",""
"","498","html-keynbutton-response","390","2.0.0","265866","12","<div class=""flex flex-row stim-length pb-8 md:pd-20 justify-evenly items-center""><div class=""circle""></div><div class=""circle""></div><div class=""circle""></div></div>","q","","matchness_test_3","match","圆","q","true","match"
"","null","html-keynbutton-response","391","2.0.0","266367","12","<div class=""pb-14 text-7xl"">+</div>","null","fixation","","","","","",""
"","521","html-keynbutton-response","392","2.0.0","266890","12","<div class=""flex flex-row stim-length pb-8 md:pd-20 justify-evenly items-center""><div class=""square""></div><div class=""square""></div><div class=""square""></div></div>","q","","matchness_test_3","match","方","q","true","match"
"","13022","html-keynbutton-response","393","2.0.0","279914","12","<div class=""jp""><p>您已完成4/10部分</p><p>请休息一会儿</p>
    <p>您的正确率是：100%</p>
    <p>您的平均反应时间是：499毫秒</p></div>"," ","block_feedback","","","","","",""
"","null","html-keynbutton-response","394","2.0.0","283130","12","<count-down title=""""></count-down>","null","countDown_trial","","","","","",""
"","null","html-keynbutton-response","395","2.0.0","283646","12","<div class=""pb-14 text-7xl"">+</div>","null","fixation","","","","","",""
"","631","html-keynbutton-response","396","2.0.0","284278","12","<div class=""flex flex-row stim-length pb-8 md:pd-20 justify-evenly items-center""><div class=""circle""></div><div class=""square""></div><div class=""circle""></div></div>","p","","matchness_test_4","mismatch","方","p","true","mismatch"
"","null","html-keynbutton-response","397","2.0.0","284780","12","<div class=""pb-14 text-7xl"">+</div>","null","fixation","","","","","",""
"","425","html-keynbutton-response","398","2.0.0","285206","12","<div class=""flex flex-row stim-length pb-8 md:pd-20 justify-evenly items-center""><div class=""circle""></div><div class=""circle""></div><div class=""circle""></div></div>","q","","matchness_test_4","match","圆","q","true","match"
"","null","html-keynbutton-response","399","2.0.0","285713","12","<div class=""pb-14 text-7xl"">+</div>","null","fixation","","","","","",""
"","420","html-keynbutton-response","400","2.0.0","286134","12","<div class=""flex flex-row stim-length pb-8 md:pd-20 justify-evenly items-center""><div class=""square""></div><div class=""square""></div><div class=""square""></div></div>","q","","matchness_test_4","match","方","q","true","match"
"","null","html-keynbutton-response","401","2.0.0","286646","12","<div class=""pb-14 text-7xl"">+</div>","null","fixation","","","","","",""
"","512","html-keynbutton-response","402","2.0.0","287158","12","<div class=""flex flex-row stim-length pb-8 md:pd-20 justify-evenly items-center""><div class=""square""></div><div class=""circle""></div><div class=""square""></div></div>","p","","matchness_test_4","mismatch","圆","p","true","mismatch"
"","null","html-keynbutton-response","403","2.0.0","287664","12","<div class=""pb-14 text-7xl"">+</div>","null","fixation","","","","","",""
"","453","html-keynbutton-response","404","2.0.0","288118","12","<div class=""flex flex-row stim-length pb-8 md:pd-20 justify-evenly items-center""><div class=""square""></div><div class=""square""></div><div class=""square""></div></div>","q","","matchness_test_4","match","方","q","true","match"
"","null","html-keynbutton-response","405","2.0.0","288628","12","<div class=""pb-14 text-7xl"">+</div>","null","fixation","","","","","",""
"","448","html-keynbutton-response","406","2.0.0","289077","12","<div class=""flex flex-row stim-length pb-8 md:pd-20 justify-evenly items-center""><div class=""square""></div><div class=""circle""></div><div class=""square""></div></div>","p","","matchness_test_4","mismatch","圆","p","true","mismatch"
"","null","html-keynbutton-response","407","2.0.0","289580","12","<div class=""pb-14 text-7xl"">+</div>","null","fixation","","","","","",""
"","473","html-keynbutton-response","408","2.0.0","290054","12","<div class=""flex flex-row stim-length pb-8 md:pd-20 justify-evenly items-center""><div class=""circle""></div><div class=""square""></div><div class=""circle""></div></div>","p","","matchness_test_4","mismatch","方","p","true","mismatch"
"","null","html-keynbutton-response","409","2.0.0","290561","12","<div class=""pb-14 text-7xl"">+</div>","null","fixation","","","","","",""
"","516","html-keynbutton-response","410","2.0.0","291078","12","<div class=""flex flex-row stim-length pb-8 md:pd-20 justify-evenly items-center""><div class=""circle""></div><div class=""circle""></div><div class=""circle""></div></div>","q","","matchness_test_4","match","圆","q","true","match"
"","null","html-keynbutton-response","411","2.0.0","291580","12","<div class=""pb-14 text-7xl"">+</div>","null","fixation","","","","","",""
"","505","html-keynbutton-response","412","2.0.0","292086","12","<div class=""flex flex-row stim-length pb-8 md:pd-20 justify-evenly items-center""><div class=""square""></div><div class=""circle""></div><div class=""square""></div></div>","p","","matchness_test_4","mismatch","圆","p","true","mismatch"
"","null","html-keynbutton-response","413","2.0.0","292594","12","<div class=""pb-14 text-7xl"">+</div>","null","fixation","","","","","",""
"","435","html-keynbutton-response","414","2.0.0","293030","12","<div class=""flex flex-row stim-length pb-8 md:pd-20 justify-evenly items-center""><div class=""square""></div><div class=""square""></div><div class=""square""></div></div>","q","","matchness_test_4","match","方","q","true","match"
"","null","html-keynbutton-response","415","2.0.0","293532","12","<div class=""pb-14 text-7xl"">+</div>","null","fixation","","","","","",""
"","425","html-keynbutton-response","416","2.0.0","293958","12","<div class=""flex flex-row stim-length pb-8 md:pd-20 justify-evenly items-center""><div class=""circle""></div><div class=""circle""></div><div class=""circle""></div></div>","q","","matchness_test_4","match","圆","q","true","match"
"","null","html-keynbutton-response","417","2.0.0","294464","12","<div class=""pb-14 text-7xl"">+</div>","null","fixation","","","","","",""
"","517","html-keynbutton-response","418","2.0.0","294982","12","<div class=""flex flex-row stim-length pb-8 md:pd-20 justify-evenly items-center""><div class=""circle""></div><div class=""square""></div><div class=""circle""></div></div>","p","","matchness_test_4","mismatch","方","p","true","mismatch"
"","null","html-keynbutton-response","419","2.0.0","295495","12","<div class=""pb-14 text-7xl"">+</div>","null","fixation","","","","","",""
"","478","html-keynbutton-response","420","2.0.0","295974","12","<div class=""flex flex-row stim-length pb-8 md:pd-20 justify-evenly items-center""><div class=""circle""></div><div class=""circle""></div><div class=""circle""></div></div>","q","","matchness_test_4","match","圆","q","true","match"
"","null","html-keynbutton-response","421","2.0.0","296481","12","<div class=""pb-14 text-7xl"">+</div>","null","fixation","","","","","",""
"","452","html-keynbutton-response","422","2.0.0","296934","12","<div class=""flex flex-row stim-length pb-8 md:pd-20 justify-evenly items-center""><div class=""circle""></div><div class=""square""></div><div class=""circle""></div></div>","q","","matchness_test_4","mismatch","方","p","false","match"
"","null","html-keynbutton-response","423","2.0.0","297445","12","<div class=""pb-14 text-7xl"">+</div>","null","fixation","","","","","",""
"","641","html-keynbutton-response","424","2.0.0","298086","12","<div class=""flex flex-row stim-length pb-8 md:pd-20 justify-evenly items-center""><div class=""square""></div><div class=""square""></div><div class=""square""></div></div>","q","","matchness_test_4","match","方","q","true","match"
"","null","html-keynbutton-response","425","2.0.0","298594","12","<div class=""pb-14 text-7xl"">+</div>","null","fixation","","","","","",""
"","451","html-keynbutton-response","426","2.0.0","299046","12","<div class=""flex flex-row stim-length pb-8 md:pd-20 justify-evenly items-center""><div class=""square""></div><div class=""circle""></div><div class=""square""></div></div>","p","","matchness_test_4","mismatch","圆","p","true","mismatch"
"","null","html-keynbutton-response","427","2.0.0","299562","12","<div class=""pb-14 text-7xl"">+</div>","null","fixation","","","","","",""
"","747","html-keynbutton-response","428","2.0.0","300310","12","<div class=""flex flex-row stim-length pb-8 md:pd-20 justify-evenly items-center""><div class=""circle""></div><div class=""circle""></div><div class=""circle""></div></div>","q","","matchness_test_4","match","圆","q","true","match"
"","null","html-keynbutton-response","429","2.0.0","300813","12","<div class=""pb-14 text-7xl"">+</div>","null","fixation","","","","","",""
"","488","html-keynbutton-response","430","2.0.0","301302","12","<div class=""flex flex-row stim-length pb-8 md:pd-20 justify-evenly items-center""><div class=""square""></div><div class=""circle""></div><div class=""square""></div></div>","p","","matchness_test_4","mismatch","圆","p","true","mismatch"
"","null","html-keynbutton-response","431","2.0.0","301813","12","<div class=""pb-14 text-7xl"">+</div>","null","fixation","","","","","",""
"","480","html-keynbutton-response","432","2.0.0","302294","12","<div class=""flex flex-row stim-length pb-8 md:pd-20 justify-evenly items-center""><div class=""square""></div><div class=""square""></div><div class=""square""></div></div>","q","","matchness_test_4","match","方","q","true","match"
"","null","html-keynbutton-response","433","2.0.0","302797","12","<div class=""pb-14 text-7xl"">+</div>","null","fixation","","","","","",""
"","505","html-keynbutton-response","434","2.0.0","303302","12","<div class=""flex flex-row stim-length pb-8 md:pd-20 justify-evenly items-center""><div class=""circle""></div><div class=""square""></div><div class=""circle""></div></div>","p","","matchness_test_4","mismatch","方","p","true","mismatch"
"","null","html-keynbutton-response","435","2.0.0","303812","12","<div class=""pb-14 text-7xl"">+</div>","null","fixation","","","","","",""
"","514","html-keynbutton-response","436","2.0.0","304326","12","<div class=""flex flex-row stim-length pb-8 md:pd-20 justify-evenly items-center""><div class=""circle""></div><div class=""square""></div><div class=""circle""></div></div>","p","","matchness_test_4","mismatch","方","p","true","mismatch"
"","null","html-keynbutton-response","437","2.0.0","304830","12","<div class=""pb-14 text-7xl"">+</div>","null","fixation","","","","","",""
"","488","html-keynbutton-response","438","2.0.0","305318","12","<div class=""flex flex-row stim-length pb-8 md:pd-20 justify-evenly items-center""><div class=""square""></div><div class=""circle""></div><div class=""square""></div></div>","p","","matchness_test_4","mismatch","圆","p","true","mismatch"
"","null","html-keynbutton-response","439","2.0.0","305829","12","<div class=""pb-14 text-7xl"">+</div>","null","fixation","","","","","",""
"","416","html-keynbutton-response","440","2.0.0","306246","12","<div class=""flex flex-row stim-length pb-8 md:pd-20 justify-evenly items-center""><div class=""square""></div><div class=""square""></div><div class=""square""></div></div>","q","","matchness_test_4","match","方","q","true","match"
"","null","html-keynbutton-response","441","2.0.0","306762","12","<div class=""pb-14 text-7xl"">+</div>","null","fixation","","","","","",""
"","491","html-keynbutton-response","442","2.0.0","307253","12","<div class=""flex flex-row stim-length pb-8 md:pd-20 justify-evenly items-center""><div class=""circle""></div><div class=""circle""></div><div class=""circle""></div></div>","q","","matchness_test_4","match","圆","q","true","match"
"","null","html-keynbutton-response","443","2.0.0","307762","12","<div class=""pb-14 text-7xl"">+</div>","null","fixation","","","","","",""
"","563","html-keynbutton-response","444","2.0.0","308326","12","<div class=""flex flex-row stim-length pb-8 md:pd-20 justify-evenly items-center""><div class=""square""></div><div class=""circle""></div><div class=""square""></div></div>","p","","matchness_test_4","mismatch","圆","p","true","mismatch"
"","null","html-keynbutton-response","445","2.0.0","308830","12","<div class=""pb-14 text-7xl"">+</div>","null","fixation","","","","","",""
"","504","html-keynbutton-response","446","2.0.0","309334","12","<div class=""flex flex-row stim-length pb-8 md:pd-20 justify-evenly items-center""><div class=""circle""></div><div class=""circle""></div><div class=""circle""></div></div>","q","","matchness_test_4","match","圆","q","true","match"
"","null","html-keynbutton-response","447","2.0.0","309845","12","<div class=""pb-14 text-7xl"">+</div>","null","fixation","","","","","",""
"","480","html-keynbutton-response","448","2.0.0","310326","12","<div class=""flex flex-row stim-length pb-8 md:pd-20 justify-evenly items-center""><div class=""circle""></div><div class=""square""></div><div class=""circle""></div></div>","p","","matchness_test_4","mismatch","方","p","true","mismatch"
"","null","html-keynbutton-response","449","2.0.0","310829","12","<div class=""pb-14 text-7xl"">+</div>","null","fixation","","","","","",""
"","440","html-keynbutton-response","450","2.0.0","311270","12","<div class=""flex flex-row stim-length pb-8 md:pd-20 justify-evenly items-center""><div class=""square""></div><div class=""square""></div><div class=""square""></div></div>","q","","matchness_test_4","match","方","q","true","match"
"","null","html-keynbutton-response","451","2.0.0","311778","12","<div class=""pb-14 text-7xl"">+</div>","null","fixation","","","","","",""
"","435","html-keynbutton-response","452","2.0.0","312214","12","<div class=""flex flex-row stim-length pb-8 md:pd-20 justify-evenly items-center""><div class=""square""></div><div class=""circle""></div><div class=""square""></div></div>","p","","matchness_test_4","mismatch","圆","p","true","mismatch"
"","null","html-keynbutton-response","453","2.0.0","312728","12","<div class=""pb-14 text-7xl"">+</div>","null","fixation","","","","","",""
"","477","html-keynbutton-response","454","2.0.0","313206","12","<div class=""flex flex-row stim-length pb-8 md:pd-20 justify-evenly items-center""><div class=""circle""></div><div class=""square""></div><div class=""circle""></div></div>","p","","matchness_test_4","mismatch","方","p","true","mismatch"
"","null","html-keynbutton-response","455","2.0.0","313713","12","<div class=""pb-14 text-7xl"">+</div>","null","fixation","","","","","",""
"","452","html-keynbutton-response","456","2.0.0","314165","12","<div class=""flex flex-row stim-length pb-8 md:pd-20 justify-evenly items-center""><div class=""square""></div><div class=""square""></div><div class=""square""></div></div>","q","","matchness_test_4","match","方","q","true","match"
"","null","html-keynbutton-response","457","2.0.0","314679","12","<div class=""pb-14 text-7xl"">+</div>","null","fixation","","","","","",""
"","431","html-keynbutton-response","458","2.0.0","315110","12","<div class=""flex flex-row stim-length pb-8 md:pd-20 justify-evenly items-center""><div class=""circle""></div><div class=""circle""></div><div class=""circle""></div></div>","q","","matchness_test_4","match","圆","q","true","match"
"","null","html-keynbutton-response","459","2.0.0","315613","12","<div class=""pb-14 text-7xl"">+</div>","null","fixation","","","","","",""
