"success","rt","trial_type","trial_index","plugin_version","time_elapsed","subj_id","stimulus","response","trail_tag","task","ismatch","target","correct_key","correct","response_key"
"true","2907158","fullscreen","0","2.0.0","2908167","16","","","","","","","","",""
"","17121","html-keynbutton-response","1","2.0.0","2925290","16","
        <div class=""jp px-2 xxs:px-5 mx-auto"">
        <p class=""text-center text-red-600 text-[1.2em] pb-5"">欢迎您参加知觉
          <strong>判断实验。</strong>
        </p>
        <p>接下来的任务中您将看到一排图形。</p>
        <p>(圆形●或方形■)</p><p>您的任务是<strong>忽略两侧的图形，专注于中间的图形</strong>。</p>
        <p>如果中间的图形是圆，请按“q”；</p>
        <p>如果是方，请按“p”。</p><p>请尽量又快又准地做出反应。</p>
      <p>请按空格键开始练习。</p>
      </div>"," ","","","","","","",""
"","null","html-keynbutton-response","2","2.0.0","2928503","16","<count-down title=""""></count-down>","null","countDown_trial","","","","","",""
"","null","html-keynbutton-response","3","2.0.0","2929007","16","<div class=""pb-14 text-7xl"">+</div>","null","fixation","","","","","",""
"","555","html-keynbutton-response","4","2.0.0","2929564","16","<div class=""flex flex-row stim-length pb-8 md:pd-20 justify-evenly items-center""><div class=""circle""></div><div class=""circle""></div><div class=""circle""></div></div>","q","","shape_practice","match","圆","q","true","圆"
"","null","html-keynbutton-response","5","2.0.0","2930073","16","<span class='text-green-400 text-4xl md:text-5xl lg:text-6xl'>正确!</span>","null","trial_feedback","","","","","",""
"","null","html-keynbutton-response","6","2.0.0","2930589","16","<div class=""pb-14 text-7xl"">+</div>","null","fixation","","","","","",""
"","556","html-keynbutton-response","7","2.0.0","2931146","16","<div class=""flex flex-row stim-length pb-8 md:pd-20 justify-evenly items-center""><div class=""square""></div><div class=""square""></div><div class=""square""></div></div>","p","","shape_practice","match","方","p","true","方"
"","null","html-keynbutton-response","8","2.0.0","2931655","16","<span class='text-green-400 text-4xl md:text-5xl lg:text-6xl'>正确!</span>","null","trial_feedback","","","","","",""
"","null","html-keynbutton-response","9","2.0.0","2932171","16","<div class=""pb-14 text-7xl"">+</div>","null","fixation","","","","","",""
"","703","html-keynbutton-response","10","2.0.0","2932875","16","<div class=""flex flex-row stim-length pb-8 md:pd-20 justify-evenly items-center""><div class=""circle""></div><div class=""square""></div><div class=""circle""></div></div>","p","","shape_practice","mismatch","方","p","true","方"
"","null","html-keynbutton-response","11","2.0.0","2933389","16","<span class='text-green-400 text-4xl md:text-5xl lg:text-6xl'>正确!</span>","null","trial_feedback","","","","","",""
"","null","html-keynbutton-response","12","2.0.0","2933905","16","<div class=""pb-14 text-7xl"">+</div>","null","fixation","","","","","",""
"","537","html-keynbutton-response","13","2.0.0","2934443","16","<div class=""flex flex-row stim-length pb-8 md:pd-20 justify-evenly items-center""><div class=""square""></div><div class=""circle""></div><div class=""square""></div></div>","q","","shape_practice","mismatch","圆","q","true","圆"
"","null","html-keynbutton-response","14","2.0.0","2934956","16","<span class='text-green-400 text-4xl md:text-5xl lg:text-6xl'>正确!</span>","null","trial_feedback","","","","","",""
"","null","html-keynbutton-response","15","2.0.0","2935459","16","<div class=""pb-14 text-7xl"">+</div>","null","fixation","","","","","",""
"","486","html-keynbutton-response","16","2.0.0","2935947","16","<div class=""flex flex-row stim-length pb-8 md:pd-20 justify-evenly items-center""><div class=""circle""></div><div class=""square""></div><div class=""circle""></div></div>","p","","shape_practice","mismatch","方","p","true","方"
"","null","html-keynbutton-response","17","2.0.0","2936454","16","<span class='text-green-400 text-4xl md:text-5xl lg:text-6xl'>正确!</span>","null","trial_feedback","","","","","",""
"","null","html-keynbutton-response","18","2.0.0","2936956","16","<div class=""pb-14 text-7xl"">+</div>","null","fixation","","","","","",""
"","494","html-keynbutton-response","19","2.0.0","2937451","16","<div class=""flex flex-row stim-length pb-8 md:pd-20 justify-evenly items-center""><div class=""circle""></div><div class=""circle""></div><div class=""circle""></div></div>","q","","shape_practice","match","圆","q","true","圆"
"","null","html-keynbutton-response","20","2.0.0","2937957","16","<span class='text-green-400 text-4xl md:text-5xl lg:text-6xl'>正确!</span>","null","trial_feedback","","","","","",""
"","null","html-keynbutton-response","21","2.0.0","2938472","16","<div class=""pb-14 text-7xl"">+</div>","null","fixation","","","","","",""
"","498","html-keynbutton-response","22","2.0.0","2938971","16","<div class=""flex flex-row stim-length pb-8 md:pd-20 justify-evenly items-center""><div class=""square""></div><div class=""square""></div><div class=""square""></div></div>","p","","shape_practice","match","方","p","true","方"
"","null","html-keynbutton-response","23","2.0.0","2939473","16","<span class='text-green-400 text-4xl md:text-5xl lg:text-6xl'>正确!</span>","null","trial_feedback","","","","","",""
"","null","html-keynbutton-response","24","2.0.0","2939988","16","<div class=""pb-14 text-7xl"">+</div>","null","fixation","","","","","",""
"","422","html-keynbutton-response","25","2.0.0","2940411","16","<div class=""flex flex-row stim-length pb-8 md:pd-20 justify-evenly items-center""><div class=""square""></div><div class=""circle""></div><div class=""square""></div></div>","q","","shape_practice","mismatch","圆","q","true","圆"
"","null","html-keynbutton-response","26","2.0.0","2940922","16","<span class='text-green-400 text-4xl md:text-5xl lg:text-6xl'>正确!</span>","null","trial_feedback","","","","","",""
"","null","html-keynbutton-response","27","2.0.0","2941438","16","<div class=""pb-14 text-7xl"">+</div>","null","fixation","","","","","",""
"","459","html-keynbutton-response","28","2.0.0","2941898","16","<div class=""flex flex-row stim-length pb-8 md:pd-20 justify-evenly items-center""><div class=""square""></div><div class=""circle""></div><div class=""square""></div></div>","q","","shape_practice","mismatch","圆","q","true","圆"
"","null","html-keynbutton-response","29","2.0.0","2942405","16","<span class='text-green-400 text-4xl md:text-5xl lg:text-6xl'>正确!</span>","null","trial_feedback","","","","","",""
"","null","html-keynbutton-response","30","2.0.0","2942918","16","<div class=""pb-14 text-7xl"">+</div>","null","fixation","","","","","",""
"","355","html-keynbutton-response","31","2.0.0","2943275","16","<div class=""flex flex-row stim-length pb-8 md:pd-20 justify-evenly items-center""><div class=""circle""></div><div class=""square""></div><div class=""circle""></div></div>","p","","shape_practice","mismatch","方","p","true","方"
"","null","html-keynbutton-response","32","2.0.0","2943788","16","<span class='text-green-400 text-4xl md:text-5xl lg:text-6xl'>正确!</span>","null","trial_feedback","","","","","",""
"","null","html-keynbutton-response","33","2.0.0","2944305","16","<div class=""pb-14 text-7xl"">+</div>","null","fixation","","","","","",""
"","441","html-keynbutton-response","34","2.0.0","2944747","16","<div class=""flex flex-row stim-length pb-8 md:pd-20 justify-evenly items-center""><div class=""square""></div><div class=""square""></div><div class=""square""></div></div>","p","","shape_practice","match","方","p","true","方"
"","null","html-keynbutton-response","35","2.0.0","2945254","16","<span class='text-green-400 text-4xl md:text-5xl lg:text-6xl'>正确!</span>","null","trial_feedback","","","","","",""
"","null","html-keynbutton-response","36","2.0.0","2945756","16","<div class=""pb-14 text-7xl"">+</div>","null","fixation","","","","","",""
"","445","html-keynbutton-response","37","2.0.0","2946202","16","<div class=""flex flex-row stim-length pb-8 md:pd-20 justify-evenly items-center""><div class=""circle""></div><div class=""circle""></div><div class=""circle""></div></div>","q","","shape_practice","match","圆","q","true","圆"
"","null","html-keynbutton-response","38","2.0.0","2946706","16","<span class='text-green-400 text-4xl md:text-5xl lg:text-6xl'>正确!</span>","null","trial_feedback","","","","","",""
"","null","html-keynbutton-response","39","2.0.0","2947221","16","<div class=""pb-14 text-7xl"">+</div>","null","fixation","","","","","",""
"","453","html-keynbutton-response","40","2.0.0","2947675","16","<div class=""flex flex-row stim-length pb-8 md:pd-20 justify-evenly items-center""><div class=""circle""></div><div class=""circle""></div><div class=""circle""></div></div>","q","","shape_practice","match","圆","q","true","圆"
"","null","html-keynbutton-response","41","2.0.0","2948188","16","<span class='text-green-400 text-4xl md:text-5xl lg:text-6xl'>正确!</span>","null","trial_feedback","","","","","",""
"","null","html-keynbutton-response","42","2.0.0","2948690","16","<div class=""pb-14 text-7xl"">+</div>","null","fixation","","","","","",""
"","456","html-keynbutton-response","43","2.0.0","2949147","16","<div class=""flex flex-row stim-length pb-8 md:pd-20 justify-evenly items-center""><div class=""square""></div><div class=""circle""></div><div class=""square""></div></div>","q","","shape_practice","mismatch","圆","q","true","圆"
"","null","html-keynbutton-response","44","2.0.0","2949654","16","<span class='text-green-400 text-4xl md:text-5xl lg:text-6xl'>正确!</span>","null","trial_feedback","","","","","",""
"","null","html-keynbutton-response","45","2.0.0","2950159","16","<div class=""pb-14 text-7xl"">+</div>","null","fixation","","","","","",""
"","427","html-keynbutton-response","46","2.0.0","2950587","16","<div class=""flex flex-row stim-length pb-8 md:pd-20 justify-evenly items-center""><div class=""square""></div><div class=""square""></div><div class=""square""></div></div>","p","","shape_practice","match","方","p","true","方"
"","null","html-keynbutton-response","47","2.0.0","2951089","16","<span class='text-green-400 text-4xl md:text-5xl lg:text-6xl'>正确!</span>","null","trial_feedback","","","","","",""
"","null","html-keynbutton-response","48","2.0.0","2951605","16","<div class=""pb-14 text-7xl"">+</div>","null","fixation","","","","","",""
"","405","html-keynbutton-response","49","2.0.0","2952010","16","<div class=""flex flex-row stim-length pb-8 md:pd-20 justify-evenly items-center""><div class=""circle""></div><div class=""square""></div><div class=""circle""></div></div>","p","","shape_practice","mismatch","方","p","true","方"
"","null","html-keynbutton-response","50","2.0.0","2952522","16","<span class='text-green-400 text-4xl md:text-5xl lg:text-6xl'>正确!</span>","null","trial_feedback","","","","","",""
"","null","html-keynbutton-response","51","2.0.0","2953038","16","<div class=""pb-14 text-7xl"">+</div>","null","fixation","","","","","",""
"","444","html-keynbutton-response","52","2.0.0","2953483","16","<div class=""flex flex-row stim-length pb-8 md:pd-20 justify-evenly items-center""><div class=""circle""></div><div class=""square""></div><div class=""circle""></div></div>","p","","shape_practice","mismatch","方","p","true","方"
"","null","html-keynbutton-response","53","2.0.0","2953989","16","<span class='text-green-400 text-4xl md:text-5xl lg:text-6xl'>正确!</span>","null","trial_feedback","","","","","",""
"","null","html-keynbutton-response","54","2.0.0","2954505","16","<div class=""pb-14 text-7xl"">+</div>","null","fixation","","","","","",""
"","529","html-keynbutton-response","55","2.0.0","2955035","16","<div class=""flex flex-row stim-length pb-8 md:pd-20 justify-evenly items-center""><div class=""circle""></div><div class=""circle""></div><div class=""circle""></div></div>","q","","shape_practice","match","圆","q","true","圆"
"","null","html-keynbutton-response","56","2.0.0","2955539","16","<span class='text-green-400 text-4xl md:text-5xl lg:text-6xl'>正确!</span>","null","trial_feedback","","","","","",""
"","null","html-keynbutton-response","57","2.0.0","2956042","16","<div class=""pb-14 text-7xl"">+</div>","null","fixation","","","","","",""
"","464","html-keynbutton-response","58","2.0.0","2956507","16","<div class=""flex flex-row stim-length pb-8 md:pd-20 justify-evenly items-center""><div class=""square""></div><div class=""square""></div><div class=""square""></div></div>","p","","shape_practice","match","方","p","true","方"
"","null","html-keynbutton-response","59","2.0.0","2957021","16","<span class='text-green-400 text-4xl md:text-5xl lg:text-6xl'>正确!</span>","null","trial_feedback","","","","","",""
"","null","html-keynbutton-response","60","2.0.0","2957522","16","<div class=""pb-14 text-7xl"">+</div>","null","fixation","","","","","",""
"","488","html-keynbutton-response","61","2.0.0","2958011","16","<div class=""flex flex-row stim-length pb-8 md:pd-20 justify-evenly items-center""><div class=""square""></div><div class=""circle""></div><div class=""square""></div></div>","q","","shape_practice","mismatch","圆","q","true","圆"
"","null","html-keynbutton-response","62","2.0.0","2958521","16","<span class='text-green-400 text-4xl md:text-5xl lg:text-6xl'>正确!</span>","null","trial_feedback","","","","","",""
"","2517","html-keynbutton-response","64","2.0.0","2961042","16","<div class=""jp"">
    <p>您的正确率是：100%</p>
    <p>您的平均反应时间是：481毫秒</p></div>"," ","block_feedback","","","","","",""
"","1943","html-keynbutton-response","65","2.0.0","2962986","16","
        <div class=""jp px-2 xxs:px-5 mx-auto"">
        <p class=""text-center text-red-600 text-[1.2em] pb-5"">练习结束，现在开始正式实验</p>
        <p>请注意：正式实验中将不再会呈现反馈。</p>
        </div>
        "," ","","","","","","",""
"","null","html-keynbutton-response","66","2.0.0","2966202","16","<count-down title=""""></count-down>","null","countDown_trial","","","","","",""
"","null","html-keynbutton-response","67","2.0.0","2966706","16","<div class=""pb-14 text-7xl"">+</div>","null","fixation","","","","","",""
"","424","html-keynbutton-response","68","2.0.0","2967131","16","<div class=""flex flex-row stim-length pb-8 md:pd-20 justify-evenly items-center""><div class=""circle""></div><div class=""circle""></div><div class=""circle""></div></div>","q","","shape_test","match","圆","q","true","圆"
"","null","html-keynbutton-response","69","2.0.0","2967639","16","<div class=""pb-14 text-7xl"">+</div>","null","fixation","","","","","",""
"","466","html-keynbutton-response","70","2.0.0","2968107","16","<div class=""flex flex-row stim-length pb-8 md:pd-20 justify-evenly items-center""><div class=""square""></div><div class=""square""></div><div class=""square""></div></div>","p","","shape_test","match","方","p","true","方"
"","null","html-keynbutton-response","71","2.0.0","2968621","16","<div class=""pb-14 text-7xl"">+</div>","null","fixation","","","","","",""
"","476","html-keynbutton-response","72","2.0.0","2969098","16","<div class=""flex flex-row stim-length pb-8 md:pd-20 justify-evenly items-center""><div class=""circle""></div><div class=""square""></div><div class=""circle""></div></div>","p","","shape_test","mismatch","方","p","true","方"
"","null","html-keynbutton-response","73","2.0.0","2969606","16","<div class=""pb-14 text-7xl"">+</div>","null","fixation","","","","","",""
"","436","html-keynbutton-response","74","2.0.0","2970042","16","<div class=""flex flex-row stim-length pb-8 md:pd-20 justify-evenly items-center""><div class=""square""></div><div class=""circle""></div><div class=""square""></div></div>","q","","shape_test","mismatch","圆","q","true","圆"
"","null","html-keynbutton-response","75","2.0.0","2970555","16","<div class=""pb-14 text-7xl"">+</div>","null","fixation","","","","","",""
"","479","html-keynbutton-response","76","2.0.0","2971035","16","<div class=""flex flex-row stim-length pb-8 md:pd-20 justify-evenly items-center""><div class=""square""></div><div class=""square""></div><div class=""square""></div></div>","p","","shape_test","match","方","p","true","方"
"","null","html-keynbutton-response","77","2.0.0","2971539","16","<div class=""pb-14 text-7xl"">+</div>","null","fixation","","","","","",""
"","454","html-keynbutton-response","78","2.0.0","2971994","16","<div class=""flex flex-row stim-length pb-8 md:pd-20 justify-evenly items-center""><div class=""square""></div><div class=""circle""></div><div class=""square""></div></div>","q","","shape_test","mismatch","圆","q","true","圆"
"","null","html-keynbutton-response","79","2.0.0","2972505","16","<div class=""pb-14 text-7xl"">+</div>","null","fixation","","","","","",""
"","401","html-keynbutton-response","80","2.0.0","2972907","16","<div class=""flex flex-row stim-length pb-8 md:pd-20 justify-evenly items-center""><div class=""circle""></div><div class=""circle""></div><div class=""circle""></div></div>","q","","shape_test","match","圆","q","true","圆"
"","null","html-keynbutton-response","81","2.0.0","2973421","16","<div class=""pb-14 text-7xl"">+</div>","null","fixation","","","","","",""
"","413","html-keynbutton-response","82","2.0.0","2973835","16","<div class=""flex flex-row stim-length pb-8 md:pd-20 justify-evenly items-center""><div class=""circle""></div><div class=""square""></div><div class=""circle""></div></div>","p","","shape_test","mismatch","方","p","true","方"
"","null","html-keynbutton-response","83","2.0.0","2974339","16","<div class=""pb-14 text-7xl"">+</div>","null","fixation","","","","","",""
"","503","html-keynbutton-response","84","2.0.0","2974843","16","<div class=""flex flex-row stim-length pb-8 md:pd-20 justify-evenly items-center""><div class=""circle""></div><div class=""square""></div><div class=""circle""></div></div>","p","","shape_test","mismatch","方","p","true","方"
"","null","html-keynbutton-response","85","2.0.0","2975355","16","<div class=""pb-14 text-7xl"">+</div>","null","fixation","","","","","",""
"","415","html-keynbutton-response","86","2.0.0","2975771","16","<div class=""flex flex-row stim-length pb-8 md:pd-20 justify-evenly items-center""><div class=""circle""></div><div class=""circle""></div><div class=""circle""></div></div>","q","","shape_test","match","圆","q","true","圆"
"","null","html-keynbutton-response","87","2.0.0","2976273","16","<div class=""pb-14 text-7xl"">+</div>","null","fixation","","","","","",""
"","521","html-keynbutton-response","88","2.0.0","2976794","16","<div class=""flex flex-row stim-length pb-8 md:pd-20 justify-evenly items-center""><div class=""square""></div><div class=""square""></div><div class=""square""></div></div>","p","","shape_test","match","方","p","true","方"
"","null","html-keynbutton-response","89","2.0.0","2977305","16","<div class=""pb-14 text-7xl"">+</div>","null","fixation","","","","","",""
"","385","html-keynbutton-response","90","2.0.0","2977691","16","<div class=""flex flex-row stim-length pb-8 md:pd-20 justify-evenly items-center""><div class=""square""></div><div class=""circle""></div><div class=""square""></div></div>","q","","shape_test","mismatch","圆","q","true","圆"
"","null","html-keynbutton-response","91","2.0.0","2978206","16","<div class=""pb-14 text-7xl"">+</div>","null","fixation","","","","","",""
"","428","html-keynbutton-response","92","2.0.0","2978635","16","<div class=""flex flex-row stim-length pb-8 md:pd-20 justify-evenly items-center""><div class=""square""></div><div class=""square""></div><div class=""square""></div></div>","p","","shape_test","match","方","p","true","方"
"","null","html-keynbutton-response","93","2.0.0","2979139","16","<div class=""pb-14 text-7xl"">+</div>","null","fixation","","","","","",""
"","423","html-keynbutton-response","94","2.0.0","2979562","16","<div class=""flex flex-row stim-length pb-8 md:pd-20 justify-evenly items-center""><div class=""circle""></div><div class=""circle""></div><div class=""circle""></div></div>","q","","shape_test","match","圆","q","true","圆"
"","null","html-keynbutton-response","95","2.0.0","2980071","16","<div class=""pb-14 text-7xl"">+</div>","null","fixation","","","","","",""
"","402","html-keynbutton-response","96","2.0.0","2980474","16","<div class=""flex flex-row stim-length pb-8 md:pd-20 justify-evenly items-center""><div class=""circle""></div><div class=""square""></div><div class=""circle""></div></div>","p","","shape_test","mismatch","方","p","true","方"
"","null","html-keynbutton-response","97","2.0.0","2980986","16","<div class=""pb-14 text-7xl"">+</div>","null","fixation","","","","","",""
"","335","html-keynbutton-response","98","2.0.0","2981323","16","<div class=""flex flex-row stim-length pb-8 md:pd-20 justify-evenly items-center""><div class=""square""></div><div class=""circle""></div><div class=""square""></div></div>","q","","shape_test","mismatch","圆","q","true","圆"
"","null","html-keynbutton-response","99","2.0.0","2981838","16","<div class=""pb-14 text-7xl"">+</div>","null","fixation","","","","","",""
"","364","html-keynbutton-response","100","2.0.0","2982203","16","<div class=""flex flex-row stim-length pb-8 md:pd-20 justify-evenly items-center""><div class=""circle""></div><div class=""square""></div><div class=""circle""></div></div>","p","","shape_test","mismatch","方","p","true","方"
"","null","html-keynbutton-response","101","2.0.0","2982709","16","<div class=""pb-14 text-7xl"">+</div>","null","fixation","","","","","",""
"","420","html-keynbutton-response","102","2.0.0","2983130","16","<div class=""flex flex-row stim-length pb-8 md:pd-20 justify-evenly items-center""><div class=""square""></div><div class=""circle""></div><div class=""square""></div></div>","q","","shape_test","mismatch","圆","q","true","圆"
"","null","html-keynbutton-response","103","2.0.0","2983638","16","<div class=""pb-14 text-7xl"">+</div>","null","fixation","","","","","",""
"","388","html-keynbutton-response","104","2.0.0","2984026","16","<div class=""flex flex-row stim-length pb-8 md:pd-20 justify-evenly items-center""><div class=""circle""></div><div class=""circle""></div><div class=""circle""></div></div>","q","","shape_test","match","圆","q","true","圆"
"","null","html-keynbutton-response","105","2.0.0","2984538","16","<div class=""pb-14 text-7xl"">+</div>","null","fixation","","","","","",""
"","368","html-keynbutton-response","106","2.0.0","2984907","16","<div class=""flex flex-row stim-length pb-8 md:pd-20 justify-evenly items-center""><div class=""square""></div><div class=""square""></div><div class=""square""></div></div>","p","","shape_test","match","方","p","true","方"
"","null","html-keynbutton-response","107","2.0.0","2985422","16","<div class=""pb-14 text-7xl"">+</div>","null","fixation","","","","","",""
"","396","html-keynbutton-response","108","2.0.0","2985818","16","<div class=""flex flex-row stim-length pb-8 md:pd-20 justify-evenly items-center""><div class=""circle""></div><div class=""square""></div><div class=""circle""></div></div>","p","","shape_test","mismatch","方","p","true","方"
"","null","html-keynbutton-response","109","2.0.0","2986322","16","<div class=""pb-14 text-7xl"">+</div>","null","fixation","","","","","",""
"","311","html-keynbutton-response","110","2.0.0","2986634","16","<div class=""flex flex-row stim-length pb-8 md:pd-20 justify-evenly items-center""><div class=""square""></div><div class=""circle""></div><div class=""square""></div></div>","q","","shape_test","mismatch","圆","q","true","圆"
"","null","html-keynbutton-response","111","2.0.0","2987142","16","<div class=""pb-14 text-7xl"">+</div>","null","fixation","","","","","",""
"","371","html-keynbutton-response","112","2.0.0","2987514","16","<div class=""flex flex-row stim-length pb-8 md:pd-20 justify-evenly items-center""><div class=""circle""></div><div class=""circle""></div><div class=""circle""></div></div>","q","","shape_test","match","圆","q","true","圆"
"","null","html-keynbutton-response","113","2.0.0","2988022","16","<div class=""pb-14 text-7xl"">+</div>","null","fixation","","","","","",""
"","388","html-keynbutton-response","114","2.0.0","2988411","16","<div class=""flex flex-row stim-length pb-8 md:pd-20 justify-evenly items-center""><div class=""square""></div><div class=""square""></div><div class=""square""></div></div>","p","","shape_test","match","方","p","true","方"
"","null","html-keynbutton-response","115","2.0.0","2988921","16","<div class=""pb-14 text-7xl"">+</div>","null","fixation","","","","","",""
"","384","html-keynbutton-response","116","2.0.0","2989306","16","<div class=""flex flex-row stim-length pb-8 md:pd-20 justify-evenly items-center""><div class=""circle""></div><div class=""square""></div><div class=""circle""></div></div>","p","","shape_test","mismatch","方","p","true","方"
"","null","html-keynbutton-response","117","2.0.0","2989822","16","<div class=""pb-14 text-7xl"">+</div>","null","fixation","","","","","",""
"","396","html-keynbutton-response","118","2.0.0","2990218","16","<div class=""flex flex-row stim-length pb-8 md:pd-20 justify-evenly items-center""><div class=""square""></div><div class=""square""></div><div class=""square""></div></div>","p","","shape_test","match","方","p","true","方"
"","null","html-keynbutton-response","119","2.0.0","2990722","16","<div class=""pb-14 text-7xl"">+</div>","null","fixation","","","","","",""
"","439","html-keynbutton-response","120","2.0.0","2991163","16","<div class=""flex flex-row stim-length pb-8 md:pd-20 justify-evenly items-center""><div class=""circle""></div><div class=""circle""></div><div class=""circle""></div></div>","q","","shape_test","match","圆","q","true","圆"
"","null","html-keynbutton-response","121","2.0.0","2991671","16","<div class=""pb-14 text-7xl"">+</div>","null","fixation","","","","","",""
"","419","html-keynbutton-response","122","2.0.0","2992090","16","<div class=""flex flex-row stim-length pb-8 md:pd-20 justify-evenly items-center""><div class=""square""></div><div class=""circle""></div><div class=""square""></div></div>","q","","shape_test","mismatch","圆","q","true","圆"
"","null","html-keynbutton-response","123","2.0.0","2992605","16","<div class=""pb-14 text-7xl"">+</div>","null","fixation","","","","","",""
"","382","html-keynbutton-response","124","2.0.0","2992987","16","<div class=""flex flex-row stim-length pb-8 md:pd-20 justify-evenly items-center""><div class=""circle""></div><div class=""square""></div><div class=""circle""></div></div>","p","","shape_test","mismatch","方","p","true","方"
"","null","html-keynbutton-response","125","2.0.0","2993489","16","<div class=""pb-14 text-7xl"">+</div>","null","fixation","","","","","",""
"","409","html-keynbutton-response","126","2.0.0","2993898","16","<div class=""flex flex-row stim-length pb-8 md:pd-20 justify-evenly items-center""><div class=""square""></div><div class=""circle""></div><div class=""square""></div></div>","q","","shape_test","mismatch","圆","q","true","圆"
"","null","html-keynbutton-response","127","2.0.0","2994405","16","<div class=""pb-14 text-7xl"">+</div>","null","fixation","","","","","",""
"","436","html-keynbutton-response","128","2.0.0","2994843","16","<div class=""flex flex-row stim-length pb-8 md:pd-20 justify-evenly items-center""><div class=""square""></div><div class=""square""></div><div class=""square""></div></div>","p","","shape_test","match","方","p","true","方"
"","null","html-keynbutton-response","129","2.0.0","2995354","16","<div class=""pb-14 text-7xl"">+</div>","null","fixation","","","","","",""
"","416","html-keynbutton-response","130","2.0.0","2995771","16","<div class=""flex flex-row stim-length pb-8 md:pd-20 justify-evenly items-center""><div class=""circle""></div><div class=""circle""></div><div class=""circle""></div></div>","q","","shape_test","match","圆","q","true","圆"
"","null","html-keynbutton-response","131","2.0.0","2996273","16","<div class=""pb-14 text-7xl"">+</div>","null","fixation","","","","","",""
"","408","html-keynbutton-response","132","2.0.0","2996682","16","<div class=""flex flex-row stim-length pb-8 md:pd-20 justify-evenly items-center""><div class=""circle""></div><div class=""circle""></div><div class=""circle""></div></div>","q","","shape_test","match","圆","q","true","圆"
"","null","html-keynbutton-response","133","2.0.0","2997189","16","<div class=""pb-14 text-7xl"">+</div>","null","fixation","","","","","",""
"","356","html-keynbutton-response","134","2.0.0","2997546","16","<div class=""flex flex-row stim-length pb-8 md:pd-20 justify-evenly items-center""><div class=""square""></div><div class=""circle""></div><div class=""square""></div></div>","q","","shape_test","mismatch","圆","q","true","圆"
"","null","html-keynbutton-response","135","2.0.0","2998053","16","<div class=""pb-14 text-7xl"">+</div>","null","fixation","","","","","",""
"","420","html-keynbutton-response","136","2.0.0","2998475","16","<div class=""flex flex-row stim-length pb-8 md:pd-20 justify-evenly items-center""><div class=""square""></div><div class=""square""></div><div class=""square""></div></div>","p","","shape_test","match","方","p","true","方"
"","null","html-keynbutton-response","137","2.0.0","2998988","16","<div class=""pb-14 text-7xl"">+</div>","null","fixation","","","","","",""
"","398","html-keynbutton-response","138","2.0.0","2999387","16","<div class=""flex flex-row stim-length pb-8 md:pd-20 justify-evenly items-center""><div class=""circle""></div><div class=""square""></div><div class=""circle""></div></div>","p","","shape_test","mismatch","方","p","true","方"
"","null","html-keynbutton-response","139","2.0.0","2999893","16","<div class=""pb-14 text-7xl"">+</div>","null","fixation","","","","","",""
"","405","html-keynbutton-response","140","2.0.0","3000298","16","<div class=""flex flex-row stim-length pb-8 md:pd-20 justify-evenly items-center""><div class=""circle""></div><div class=""square""></div><div class=""circle""></div></div>","p","","shape_test","mismatch","方","p","true","方"
"","null","html-keynbutton-response","141","2.0.0","3000806","16","<div class=""pb-14 text-7xl"">+</div>","null","fixation","","","","","",""
"","404","html-keynbutton-response","142","2.0.0","3001211","16","<div class=""flex flex-row stim-length pb-8 md:pd-20 justify-evenly items-center""><div class=""circle""></div><div class=""circle""></div><div class=""circle""></div></div>","q","","shape_test","match","圆","q","true","圆"
"","null","html-keynbutton-response","143","2.0.0","3001721","16","<div class=""pb-14 text-7xl"">+</div>","null","fixation","","","","","",""
"","353","html-keynbutton-response","144","2.0.0","3002074","16","<div class=""flex flex-row stim-length pb-8 md:pd-20 justify-evenly items-center""><div class=""square""></div><div class=""circle""></div><div class=""square""></div></div>","q","","shape_test","mismatch","圆","q","true","圆"
"","null","html-keynbutton-response","145","2.0.0","3002588","16","<div class=""pb-14 text-7xl"">+</div>","null","fixation","","","","","",""
"","366","html-keynbutton-response","146","2.0.0","3002955","16","<div class=""flex flex-row stim-length pb-8 md:pd-20 justify-evenly items-center""><div class=""square""></div><div class=""square""></div><div class=""square""></div></div>","p","","shape_test","match","方","p","true","方"
"","4158","html-keynbutton-response","147","2.0.0","3007115","16","<div class=""jp""><p>您已完成1/10部分</p><p>请休息一会儿</p>
    <p>您的正确率是：100%</p>
    <p>您的平均反应时间是：409毫秒</p></div>"," ","block_feedback","","","","","",""
"","null","html-keynbutton-response","148","2.0.0","3010318","16","<count-down title=""""></count-down>","null","countDown_trial","","","","","",""
"","null","html-keynbutton-response","149","2.0.0","3010822","16","<div class=""pb-14 text-7xl"">+</div>","null","fixation","","","","","",""
"","403","html-keynbutton-response","150","2.0.0","3011226","16","<div class=""flex flex-row stim-length pb-8 md:pd-20 justify-evenly items-center""><div class=""square""></div><div class=""square""></div><div class=""square""></div></div>","p","","shape_test_1","match","方","p","true","方"
"","null","html-keynbutton-response","151","2.0.0","3011738","16","<div class=""pb-14 text-7xl"">+</div>","null","fixation","","","","","",""
"","400","html-keynbutton-response","152","2.0.0","3012138","16","<div class=""flex flex-row stim-length pb-8 md:pd-20 justify-evenly items-center""><div class=""circle""></div><div class=""square""></div><div class=""circle""></div></div>","p","","shape_test_1","mismatch","方","p","true","方"
"","null","html-keynbutton-response","153","2.0.0","3012640","16","<div class=""pb-14 text-7xl"">+</div>","null","fixation","","","","","",""
"","394","html-keynbutton-response","154","2.0.0","3013035","16","<div class=""flex flex-row stim-length pb-8 md:pd-20 justify-evenly items-center""><div class=""circle""></div><div class=""circle""></div><div class=""circle""></div></div>","q","","shape_test_1","match","圆","q","true","圆"
"","null","html-keynbutton-response","155","2.0.0","3013540","16","<div class=""pb-14 text-7xl"">+</div>","null","fixation","","","","","",""
"","340","html-keynbutton-response","156","2.0.0","3013882","16","<div class=""flex flex-row stim-length pb-8 md:pd-20 justify-evenly items-center""><div class=""square""></div><div class=""circle""></div><div class=""square""></div></div>","q","","shape_test_1","mismatch","圆","q","true","圆"
"","null","html-keynbutton-response","157","2.0.0","3014389","16","<div class=""pb-14 text-7xl"">+</div>","null","fixation","","","","","",""
"","373","html-keynbutton-response","158","2.0.0","3014762","16","<div class=""flex flex-row stim-length pb-8 md:pd-20 justify-evenly items-center""><div class=""square""></div><div class=""circle""></div><div class=""square""></div></div>","q","","shape_test_1","mismatch","圆","q","true","圆"
"","null","html-keynbutton-response","159","2.0.0","3015271","16","<div class=""pb-14 text-7xl"">+</div>","null","fixation","","","","","",""
"","387","html-keynbutton-response","160","2.0.0","3015659","16","<div class=""flex flex-row stim-length pb-8 md:pd-20 justify-evenly items-center""><div class=""circle""></div><div class=""circle""></div><div class=""circle""></div></div>","q","","shape_test_1","match","圆","q","true","圆"
"","null","html-keynbutton-response","161","2.0.0","3016171","16","<div class=""pb-14 text-7xl"">+</div>","null","fixation","","","","","",""
"","383","html-keynbutton-response","162","2.0.0","3016555","16","<div class=""flex flex-row stim-length pb-8 md:pd-20 justify-evenly items-center""><div class=""square""></div><div class=""square""></div><div class=""square""></div></div>","p","","shape_test_1","match","方","p","true","方"
"","null","html-keynbutton-response","163","2.0.0","3017056","16","<div class=""pb-14 text-7xl"">+</div>","null","fixation","","","","","",""
"","346","html-keynbutton-response","164","2.0.0","3017402","16","<div class=""flex flex-row stim-length pb-8 md:pd-20 justify-evenly items-center""><div class=""circle""></div><div class=""square""></div><div class=""circle""></div></div>","p","","shape_test_1","mismatch","方","p","true","方"
"","null","html-keynbutton-response","165","2.0.0","3017905","16","<div class=""pb-14 text-7xl"">+</div>","null","fixation","","","","","",""
"","408","html-keynbutton-response","166","2.0.0","3018314","16","<div class=""flex flex-row stim-length pb-8 md:pd-20 justify-evenly items-center""><div class=""circle""></div><div class=""square""></div><div class=""circle""></div></div>","p","","shape_test_1","mismatch","方","p","true","方"
"","null","html-keynbutton-response","167","2.0.0","3018822","16","<div class=""pb-14 text-7xl"">+</div>","null","fixation","","","","","",""
"","404","html-keynbutton-response","168","2.0.0","3019226","16","<div class=""flex flex-row stim-length pb-8 md:pd-20 justify-evenly items-center""><div class=""square""></div><div class=""circle""></div><div class=""square""></div></div>","q","","shape_test_1","mismatch","圆","q","true","圆"
"","null","html-keynbutton-response","169","2.0.0","3019738","16","<div class=""pb-14 text-7xl"">+</div>","null","fixation","","","","","",""
"","384","html-keynbutton-response","170","2.0.0","3020123","16","<div class=""flex flex-row stim-length pb-8 md:pd-20 justify-evenly items-center""><div class=""circle""></div><div class=""circle""></div><div class=""circle""></div></div>","q","","shape_test_1","match","圆","q","true","圆"
"","null","html-keynbutton-response","171","2.0.0","3020638","16","<div class=""pb-14 text-7xl"">+</div>","null","fixation","","","","","",""
"","380","html-keynbutton-response","172","2.0.0","3021019","16","<div class=""flex flex-row stim-length pb-8 md:pd-20 justify-evenly items-center""><div class=""square""></div><div class=""square""></div><div class=""square""></div></div>","p","","shape_test_1","match","方","p","true","方"
"","null","html-keynbutton-response","173","2.0.0","3021522","16","<div class=""pb-14 text-7xl"">+</div>","null","fixation","","","","","",""
"","343","html-keynbutton-response","174","2.0.0","3021867","16","<div class=""flex flex-row stim-length pb-8 md:pd-20 justify-evenly items-center""><div class=""square""></div><div class=""square""></div><div class=""square""></div></div>","p","","shape_test_1","match","方","p","true","方"
"","null","html-keynbutton-response","175","2.0.0","3022374","16","<div class=""pb-14 text-7xl"">+</div>","null","fixation","","","","","",""
"","324","html-keynbutton-response","176","2.0.0","3022699","16","<div class=""flex flex-row stim-length pb-8 md:pd-20 justify-evenly items-center""><div class=""circle""></div><div class=""square""></div><div class=""circle""></div></div>","p","","shape_test_1","mismatch","方","p","true","方"
"","null","html-keynbutton-response","177","2.0.0","3023204","16","<div class=""pb-14 text-7xl"">+</div>","null","fixation","","","","","",""
"","389","html-keynbutton-response","178","2.0.0","3023595","16","<div class=""flex flex-row stim-length pb-8 md:pd-20 justify-evenly items-center""><div class=""circle""></div><div class=""circle""></div><div class=""circle""></div></div>","q","","shape_test_1","match","圆","q","true","圆"
"","null","html-keynbutton-response","179","2.0.0","3024106","16","<div class=""pb-14 text-7xl"">+</div>","null","fixation","","","","","",""
"","320","html-keynbutton-response","180","2.0.0","3024427","16","<div class=""flex flex-row stim-length pb-8 md:pd-20 justify-evenly items-center""><div class=""square""></div><div class=""circle""></div><div class=""square""></div></div>","q","","shape_test_1","mismatch","圆","q","true","圆"
"","null","html-keynbutton-response","181","2.0.0","3024941","16","<div class=""pb-14 text-7xl"">+</div>","null","fixation","","","","","",""
"","380","html-keynbutton-response","182","2.0.0","3025322","16","<div class=""flex flex-row stim-length pb-8 md:pd-20 justify-evenly items-center""><div class=""square""></div><div class=""square""></div><div class=""square""></div></div>","p","","shape_test_1","match","方","p","true","方"
"","null","html-keynbutton-response","183","2.0.0","3025838","16","<div class=""pb-14 text-7xl"">+</div>","null","fixation","","","","","",""
"","380","html-keynbutton-response","184","2.0.0","3026219","16","<div class=""flex flex-row stim-length pb-8 md:pd-20 justify-evenly items-center""><div class=""circle""></div><div class=""circle""></div><div class=""circle""></div></div>","q","","shape_test_1","match","圆","q","true","圆"
"","null","html-keynbutton-response","185","2.0.0","3026722","16","<div class=""pb-14 text-7xl"">+</div>","null","fixation","","","","","",""
"","440","html-keynbutton-response","186","2.0.0","3027162","16","<div class=""flex flex-row stim-length pb-8 md:pd-20 justify-evenly items-center""><div class=""square""></div><div class=""circle""></div><div class=""square""></div></div>","q","","shape_test_1","mismatch","圆","q","true","圆"
"","null","html-keynbutton-response","187","2.0.0","3027672","16","<div class=""pb-14 text-7xl"">+</div>","null","fixation","","","","","",""
"","306","html-keynbutton-response","188","2.0.0","3027978","16","<div class=""flex flex-row stim-length pb-8 md:pd-20 justify-evenly items-center""><div class=""circle""></div><div class=""square""></div><div class=""circle""></div></div>","p","","shape_test_1","mismatch","方","p","true","方"
"","null","html-keynbutton-response","189","2.0.0","3028488","16","<div class=""pb-14 text-7xl"">+</div>","null","fixation","","","","","",""
"","385","html-keynbutton-response","190","2.0.0","3028875","16","<div class=""flex flex-row stim-length pb-8 md:pd-20 justify-evenly items-center""><div class=""circle""></div><div class=""circle""></div><div class=""circle""></div></div>","q","","shape_test_1","match","圆","q","true","圆"
"","null","html-keynbutton-response","191","2.0.0","3029388","16","<div class=""pb-14 text-7xl"">+</div>","null","fixation","","","","","",""
"","381","html-keynbutton-response","192","2.0.0","3029771","16","<div class=""flex flex-row stim-length pb-8 md:pd-20 justify-evenly items-center""><div class=""circle""></div><div class=""square""></div><div class=""circle""></div></div>","p","","shape_test_1","mismatch","方","p","true","方"
"","null","html-keynbutton-response","193","2.0.0","3030272","16","<div class=""pb-14 text-7xl"">+</div>","null","fixation","","","","","",""
"","329","html-keynbutton-response","194","2.0.0","3030603","16","<div class=""flex flex-row stim-length pb-8 md:pd-20 justify-evenly items-center""><div class=""square""></div><div class=""circle""></div><div class=""square""></div></div>","q","","shape_test_1","mismatch","圆","q","true","圆"
"","null","html-keynbutton-response","195","2.0.0","3031106","16","<div class=""pb-14 text-7xl"">+</div>","null","fixation","","","","","",""
"","424","html-keynbutton-response","196","2.0.0","3031531","16","<div class=""flex flex-row stim-length pb-8 md:pd-20 justify-evenly items-center""><div class=""square""></div><div class=""square""></div><div class=""square""></div></div>","p","","shape_test_1","match","方","p","true","方"
"","null","html-keynbutton-response","197","2.0.0","3032038","16","<div class=""pb-14 text-7xl"">+</div>","null","fixation","","","","","",""
"","388","html-keynbutton-response","198","2.0.0","3032427","16","<div class=""flex flex-row stim-length pb-8 md:pd-20 justify-evenly items-center""><div class=""square""></div><div class=""circle""></div><div class=""square""></div></div>","q","","shape_test_1","mismatch","圆","q","true","圆"
"","null","html-keynbutton-response","199","2.0.0","3032938","16","<div class=""pb-14 text-7xl"">+</div>","null","fixation","","","","","",""
"","384","html-keynbutton-response","200","2.0.0","3033323","16","<div class=""flex flex-row stim-length pb-8 md:pd-20 justify-evenly items-center""><div class=""circle""></div><div class=""square""></div><div class=""circle""></div></div>","p","","shape_test_1","mismatch","方","p","true","方"
"","null","html-keynbutton-response","201","2.0.0","3033838","16","<div class=""pb-14 text-7xl"">+</div>","null","fixation","","","","","",""
"","363","html-keynbutton-response","202","2.0.0","3034202","16","<div class=""flex flex-row stim-length pb-8 md:pd-20 justify-evenly items-center""><div class=""square""></div><div class=""square""></div><div class=""square""></div></div>","p","","shape_test_1","match","方","p","true","方"
"","null","html-keynbutton-response","203","2.0.0","3034710","16","<div class=""pb-14 text-7xl"">+</div>","null","fixation","","","","","",""
"","356","html-keynbutton-response","204","2.0.0","3035066","16","<div class=""flex flex-row stim-length pb-8 md:pd-20 justify-evenly items-center""><div class=""circle""></div><div class=""circle""></div><div class=""circle""></div></div>","q","","shape_test_1","match","圆","q","true","圆"
"","null","html-keynbutton-response","205","2.0.0","3035573","16","<div class=""pb-14 text-7xl"">+</div>","null","fixation","","","","","",""
"","373","html-keynbutton-response","206","2.0.0","3035947","16","<div class=""flex flex-row stim-length pb-8 md:pd-20 justify-evenly items-center""><div class=""square""></div><div class=""circle""></div><div class=""square""></div></div>","q","","shape_test_1","mismatch","圆","q","true","圆"
"","null","html-keynbutton-response","207","2.0.0","3036453","16","<div class=""pb-14 text-7xl"">+</div>","null","fixation","","","","","",""
"","292","html-keynbutton-response","208","2.0.0","3036747","16","<div class=""flex flex-row stim-length pb-8 md:pd-20 justify-evenly items-center""><div class=""circle""></div><div class=""square""></div><div class=""circle""></div></div>","p","","shape_test_1","mismatch","方","p","true","方"
"","null","html-keynbutton-response","209","2.0.0","3037254","16","<div class=""pb-14 text-7xl"">+</div>","null","fixation","","","","","",""
"","308","html-keynbutton-response","210","2.0.0","3037563","16","<div class=""flex flex-row stim-length pb-8 md:pd-20 justify-evenly items-center""><div class=""square""></div><div class=""square""></div><div class=""square""></div></div>","p","","shape_test_1","match","方","p","true","方"
"","null","html-keynbutton-response","211","2.0.0","3038071","16","<div class=""pb-14 text-7xl"">+</div>","null","fixation","","","","","",""
"","355","html-keynbutton-response","212","2.0.0","3038427","16","<div class=""flex flex-row stim-length pb-8 md:pd-20 justify-evenly items-center""><div class=""circle""></div><div class=""circle""></div><div class=""circle""></div></div>","q","","shape_test_1","match","圆","q","true","圆"
"","null","html-keynbutton-response","213","2.0.0","3038938","16","<div class=""pb-14 text-7xl"">+</div>","null","fixation","","","","","",""
"","400","html-keynbutton-response","214","2.0.0","3039339","16","<div class=""flex flex-row stim-length pb-8 md:pd-20 justify-evenly items-center""><div class=""square""></div><div class=""square""></div><div class=""square""></div></div>","p","","shape_test_1","match","方","p","true","方"
"","null","html-keynbutton-response","215","2.0.0","3039855","16","<div class=""pb-14 text-7xl"">+</div>","null","fixation","","","","","",""
"","379","html-keynbutton-response","216","2.0.0","3040235","16","<div class=""flex flex-row stim-length pb-8 md:pd-20 justify-evenly items-center""><div class=""circle""></div><div class=""square""></div><div class=""circle""></div></div>","p","","shape_test_1","mismatch","方","p","true","方"
"","null","html-keynbutton-response","217","2.0.0","3040739","16","<div class=""pb-14 text-7xl"">+</div>","null","fixation","","","","","",""
"","358","html-keynbutton-response","218","2.0.0","3041098","16","<div class=""flex flex-row stim-length pb-8 md:pd-20 justify-evenly items-center""><div class=""square""></div><div class=""circle""></div><div class=""square""></div></div>","q","","shape_test_1","mismatch","圆","q","true","圆"
"","null","html-keynbutton-response","219","2.0.0","3041605","16","<div class=""pb-14 text-7xl"">+</div>","null","fixation","","","","","",""
"","340","html-keynbutton-response","220","2.0.0","3041945","16","<div class=""flex flex-row stim-length pb-8 md:pd-20 justify-evenly items-center""><div class=""circle""></div><div class=""circle""></div><div class=""circle""></div></div>","q","","shape_test_1","match","圆","q","true","圆"
"","null","html-keynbutton-response","221","2.0.0","3042455","16","<div class=""pb-14 text-7xl"">+</div>","null","fixation","","","","","",""
"","306","html-keynbutton-response","222","2.0.0","3042762","16","<div class=""flex flex-row stim-length pb-8 md:pd-20 justify-evenly items-center""><div class=""circle""></div><div class=""square""></div><div class=""circle""></div></div>","p","","shape_test_1","mismatch","方","p","true","方"
"","null","html-keynbutton-response","223","2.0.0","3043272","16","<div class=""pb-14 text-7xl"">+</div>","null","fixation","","","","","",""
"","386","html-keynbutton-response","224","2.0.0","3043659","16","<div class=""flex flex-row stim-length pb-8 md:pd-20 justify-evenly items-center""><div class=""square""></div><div class=""circle""></div><div class=""square""></div></div>","q","","shape_test_1","mismatch","圆","q","true","圆"
"","null","html-keynbutton-response","225","2.0.0","3044172","16","<div class=""pb-14 text-7xl"">+</div>","null","fixation","","","","","",""
"","318","html-keynbutton-response","226","2.0.0","3044491","16","<div class=""flex flex-row stim-length pb-8 md:pd-20 justify-evenly items-center""><div class=""square""></div><div class=""square""></div><div class=""square""></div></div>","p","","shape_test_1","match","方","p","true","方"
"","null","html-keynbutton-response","227","2.0.0","3045005","16","<div class=""pb-14 text-7xl"">+</div>","null","fixation","","","","","",""
"","380","html-keynbutton-response","228","2.0.0","3045385","16","<div class=""flex flex-row stim-length pb-8 md:pd-20 justify-evenly items-center""><div class=""circle""></div><div class=""circle""></div><div class=""circle""></div></div>","q","","shape_test_1","match","圆","q","true","圆"
"","5728","html-keynbutton-response","229","2.0.0","3051115","16","<div class=""jp""><p>您已完成2/10部分</p><p>请休息一会儿</p>
    <p>您的正确率是：100%</p>
    <p>您的平均反应时间是：367毫秒</p></div>"," ","block_feedback","","","","","",""
"","null","html-keynbutton-response","230","2.0.0","3054319","16","<count-down title=""""></count-down>","null","countDown_trial","","","","","",""
"","null","html-keynbutton-response","231","2.0.0","3054823","16","<div class=""pb-14 text-7xl"">+</div>","null","fixation","","","","","",""
"","355","html-keynbutton-response","232","2.0.0","3055178","16","<div class=""flex flex-row stim-length pb-8 md:pd-20 justify-evenly items-center""><div class=""square""></div><div class=""circle""></div><div class=""square""></div></div>","q","","shape_test_2","mismatch","圆","q","true","圆"
"","null","html-keynbutton-response","233","2.0.0","3055689","16","<div class=""pb-14 text-7xl"">+</div>","null","fixation","","","","","",""
"","401","html-keynbutton-response","234","2.0.0","3056090","16","<div class=""flex flex-row stim-length pb-8 md:pd-20 justify-evenly items-center""><div class=""circle""></div><div class=""circle""></div><div class=""circle""></div></div>","q","","shape_test_2","match","圆","q","true","圆"
"","null","html-keynbutton-response","235","2.0.0","3056605","16","<div class=""pb-14 text-7xl"">+</div>","null","fixation","","","","","",""
"","365","html-keynbutton-response","236","2.0.0","3056971","16","<div class=""flex flex-row stim-length pb-8 md:pd-20 justify-evenly items-center""><div class=""circle""></div><div class=""square""></div><div class=""circle""></div></div>","p","","shape_test_2","mismatch","方","p","true","方"
"","null","html-keynbutton-response","237","2.0.0","3057473","16","<div class=""pb-14 text-7xl"">+</div>","null","fixation","","","","","",""
"","344","html-keynbutton-response","238","2.0.0","3057818","16","<div class=""flex flex-row stim-length pb-8 md:pd-20 justify-evenly items-center""><div class=""square""></div><div class=""square""></div><div class=""square""></div></div>","p","","shape_test_2","match","方","p","true","方"
"","null","html-keynbutton-response","239","2.0.0","3058324","16","<div class=""pb-14 text-7xl"">+</div>","null","fixation","","","","","",""
"","357","html-keynbutton-response","240","2.0.0","3058682","16","<div class=""flex flex-row stim-length pb-8 md:pd-20 justify-evenly items-center""><div class=""circle""></div><div class=""circle""></div><div class=""circle""></div></div>","q","","shape_test_2","match","圆","q","true","圆"
"","null","html-keynbutton-response","241","2.0.0","3059189","16","<div class=""pb-14 text-7xl"">+</div>","null","fixation","","","","","",""
"","309","html-keynbutton-response","242","2.0.0","3059499","16","<div class=""flex flex-row stim-length pb-8 md:pd-20 justify-evenly items-center""><div class=""square""></div><div class=""square""></div><div class=""square""></div></div>","p","","shape_test_2","match","方","p","true","方"
"","null","html-keynbutton-response","243","2.0.0","3060010","16","<div class=""pb-14 text-7xl"">+</div>","null","fixation","","","","","",""
"","287","html-keynbutton-response","244","2.0.0","3060298","16","<div class=""flex flex-row stim-length pb-8 md:pd-20 justify-evenly items-center""><div class=""circle""></div><div class=""square""></div><div class=""circle""></div></div>","p","","shape_test_2","mismatch","方","p","true","方"
"","null","html-keynbutton-response","245","2.0.0","3060805","16","<div class=""pb-14 text-7xl"">+</div>","null","fixation","","","","","",""
"","325","html-keynbutton-response","246","2.0.0","3061131","16","<div class=""flex flex-row stim-length pb-8 md:pd-20 justify-evenly items-center""><div class=""square""></div><div class=""circle""></div><div class=""square""></div></div>","q","","shape_test_2","mismatch","圆","q","true","圆"
"","null","html-keynbutton-response","247","2.0.0","3061638","16","<div class=""pb-14 text-7xl"">+</div>","null","fixation","","","","","",""
"","323","html-keynbutton-response","248","2.0.0","3061962","16","<div class=""flex flex-row stim-length pb-8 md:pd-20 justify-evenly items-center""><div class=""square""></div><div class=""circle""></div><div class=""square""></div></div>","q","","shape_test_2","mismatch","圆","q","true","圆"
"","null","html-keynbutton-response","249","2.0.0","3062472","16","<div class=""pb-14 text-7xl"">+</div>","null","fixation","","","","","",""
"","322","html-keynbutton-response","250","2.0.0","3062795","16","<div class=""flex flex-row stim-length pb-8 md:pd-20 justify-evenly items-center""><div class=""square""></div><div class=""square""></div><div class=""square""></div></div>","p","","shape_test_2","match","方","p","true","方"
"","null","html-keynbutton-response","251","2.0.0","3063305","16","<div class=""pb-14 text-7xl"">+</div>","null","fixation","","","","","",""
"","338","html-keynbutton-response","252","2.0.0","3063643","16","<div class=""flex flex-row stim-length pb-8 md:pd-20 justify-evenly items-center""><div class=""circle""></div><div class=""circle""></div><div class=""circle""></div></div>","q","","shape_test_2","match","圆","q","true","圆"
"","null","html-keynbutton-response","253","2.0.0","3064155","16","<div class=""pb-14 text-7xl"">+</div>","null","fixation","","","","","",""
"","319","html-keynbutton-response","254","2.0.0","3064475","16","<div class=""flex flex-row stim-length pb-8 md:pd-20 justify-evenly items-center""><div class=""circle""></div><div class=""square""></div><div class=""circle""></div></div>","p","","shape_test_2","mismatch","方","p","true","方"
"","null","html-keynbutton-response","255","2.0.0","3064988","16","<div class=""pb-14 text-7xl"">+</div>","null","fixation","","","","","",""
"","349","html-keynbutton-response","256","2.0.0","3065338","16","<div class=""flex flex-row stim-length pb-8 md:pd-20 justify-evenly items-center""><div class=""square""></div><div class=""square""></div><div class=""square""></div></div>","p","","shape_test_2","match","方","p","true","方"
"","null","html-keynbutton-response","257","2.0.0","3065840","16","<div class=""pb-14 text-7xl"">+</div>","null","fixation","","","","","",""
"","330","html-keynbutton-response","258","2.0.0","3066171","16","<div class=""flex flex-row stim-length pb-8 md:pd-20 justify-evenly items-center""><div class=""circle""></div><div class=""circle""></div><div class=""circle""></div></div>","q","","shape_test_2","match","圆","q","true","圆"
"","null","html-keynbutton-response","259","2.0.0","3066672","16","<div class=""pb-14 text-7xl"">+</div>","null","fixation","","","","","",""
"","314","html-keynbutton-response","260","2.0.0","3066987","16","<div class=""flex flex-row stim-length pb-8 md:pd-20 justify-evenly items-center""><div class=""square""></div><div class=""circle""></div><div class=""square""></div></div>","q","","shape_test_2","mismatch","圆","q","true","圆"
"","null","html-keynbutton-response","261","2.0.0","3067489","16","<div class=""pb-14 text-7xl"">+</div>","null","fixation","","","","","",""
"","375","html-keynbutton-response","262","2.0.0","3067866","16","<div class=""flex flex-row stim-length pb-8 md:pd-20 justify-evenly items-center""><div class=""circle""></div><div class=""square""></div><div class=""circle""></div></div>","q","","shape_test_2","mismatch","方","p","false","圆"
"","null","html-keynbutton-response","263","2.0.0","3068372","16","<div class=""pb-14 text-7xl"">+</div>","null","fixation","","","","","",""
"","453","html-keynbutton-response","264","2.0.0","3068826","16","<div class=""flex flex-row stim-length pb-8 md:pd-20 justify-evenly items-center""><div class=""square""></div><div class=""circle""></div><div class=""square""></div></div>","q","","shape_test_2","mismatch","圆","q","true","圆"
"","null","html-keynbutton-response","265","2.0.0","3069339","16","<div class=""pb-14 text-7xl"">+</div>","null","fixation","","","","","",""
"","352","html-keynbutton-response","266","2.0.0","3069691","16","<div class=""flex flex-row stim-length pb-8 md:pd-20 justify-evenly items-center""><div class=""circle""></div><div class=""square""></div><div class=""circle""></div></div>","p","","shape_test_2","mismatch","方","p","true","方"
"","null","html-keynbutton-response","267","2.0.0","3070205","16","<div class=""pb-14 text-7xl"">+</div>","null","fixation","","","","","",""
"","381","html-keynbutton-response","268","2.0.0","3070587","16","<div class=""flex flex-row stim-length pb-8 md:pd-20 justify-evenly items-center""><div class=""circle""></div><div class=""circle""></div><div class=""circle""></div></div>","q","","shape_test_2","match","圆","q","true","圆"
"","null","html-keynbutton-response","269","2.0.0","3071090","16","<div class=""pb-14 text-7xl"">+</div>","null","fixation","","","","","",""
"","376","html-keynbutton-response","270","2.0.0","3071466","16","<div class=""flex flex-row stim-length pb-8 md:pd-20 justify-evenly items-center""><div class=""square""></div><div class=""square""></div><div class=""square""></div></div>","p","","shape_test_2","match","方","p","true","方"
"","null","html-keynbutton-response","271","2.0.0","3071973","16","<div class=""pb-14 text-7xl"">+</div>","null","fixation","","","","","",""
"","341","html-keynbutton-response","272","2.0.0","3072315","16","<div class=""flex flex-row stim-length pb-8 md:pd-20 justify-evenly items-center""><div class=""square""></div><div class=""square""></div><div class=""square""></div></div>","p","","shape_test_2","match","方","p","true","方"
"","null","html-keynbutton-response","273","2.0.0","3072823","16","<div class=""pb-14 text-7xl"">+</div>","null","fixation","","","","","",""
"","451","html-keynbutton-response","274","2.0.0","3073275","16","<div class=""flex flex-row stim-length pb-8 md:pd-20 justify-evenly items-center""><div class=""square""></div><div class=""circle""></div><div class=""square""></div></div>","q","","shape_test_2","mismatch","圆","q","true","圆"
"","null","html-keynbutton-response","275","2.0.0","3073788","16","<div class=""pb-14 text-7xl"">+</div>","null","fixation","","","","","",""
"","334","html-keynbutton-response","276","2.0.0","3074123","16","<div class=""flex flex-row stim-length pb-8 md:pd-20 justify-evenly items-center""><div class=""circle""></div><div class=""square""></div><div class=""circle""></div></div>","p","","shape_test_2","mismatch","方","p","true","方"
"","null","html-keynbutton-response","277","2.0.0","3074638","16","<div class=""pb-14 text-7xl"">+</div>","null","fixation","","","","","",""
"","348","html-keynbutton-response","278","2.0.0","3074987","16","<div class=""flex flex-row stim-length pb-8 md:pd-20 justify-evenly items-center""><div class=""circle""></div><div class=""circle""></div><div class=""circle""></div></div>","q","","shape_test_2","match","圆","q","true","圆"
"","null","html-keynbutton-response","279","2.0.0","3075489","16","<div class=""pb-14 text-7xl"">+</div>","null","fixation","","","","","",""
"","313","html-keynbutton-response","280","2.0.0","3075803","16","<div class=""flex flex-row stim-length pb-8 md:pd-20 justify-evenly items-center""><div class=""square""></div><div class=""square""></div><div class=""square""></div></div>","p","","shape_test_2","match","方","p","true","方"
"","null","html-keynbutton-response","281","2.0.0","3076306","16","<div class=""pb-14 text-7xl"">+</div>","null","fixation","","","","","",""
"","359","html-keynbutton-response","282","2.0.0","3076666","16","<div class=""flex flex-row stim-length pb-8 md:pd-20 justify-evenly items-center""><div class=""circle""></div><div class=""square""></div><div class=""circle""></div></div>","p","","shape_test_2","mismatch","方","p","true","方"
"","null","html-keynbutton-response","283","2.0.0","3077172","16","<div class=""pb-14 text-7xl"">+</div>","null","fixation","","","","","",""
"","373","html-keynbutton-response","284","2.0.0","3077547","16","<div class=""flex flex-row stim-length pb-8 md:pd-20 justify-evenly items-center""><div class=""square""></div><div class=""circle""></div><div class=""square""></div></div>","q","","shape_test_2","mismatch","圆","q","true","圆"
"","null","html-keynbutton-response","285","2.0.0","3078054","16","<div class=""pb-14 text-7xl"">+</div>","null","fixation","","","","","",""
"","403","html-keynbutton-response","286","2.0.0","3078458","16","<div class=""flex flex-row stim-length pb-8 md:pd-20 justify-evenly items-center""><div class=""circle""></div><div class=""circle""></div><div class=""circle""></div></div>","q","","shape_test_2","match","圆","q","true","圆"
"","null","html-keynbutton-response","287","2.0.0","3078972","16","<div class=""pb-14 text-7xl"">+</div>","null","fixation","","","","","",""
"","398","html-keynbutton-response","288","2.0.0","3079371","16","<div class=""flex flex-row stim-length pb-8 md:pd-20 justify-evenly items-center""><div class=""square""></div><div class=""circle""></div><div class=""square""></div></div>","q","","shape_test_2","mismatch","圆","q","true","圆"
"","null","html-keynbutton-response","289","2.0.0","3079873","16","<div class=""pb-14 text-7xl"">+</div>","null","fixation","","","","","",""
"","377","html-keynbutton-response","290","2.0.0","3080251","16","<div class=""flex flex-row stim-length pb-8 md:pd-20 justify-evenly items-center""><div class=""circle""></div><div class=""circle""></div><div class=""circle""></div></div>","q","","shape_test_2","match","圆","q","true","圆"
"","null","html-keynbutton-response","291","2.0.0","3080757","16","<div class=""pb-14 text-7xl"">+</div>","null","fixation","","","","","",""
"","373","html-keynbutton-response","292","2.0.0","3081131","16","<div class=""flex flex-row stim-length pb-8 md:pd-20 justify-evenly items-center""><div class=""circle""></div><div class=""square""></div><div class=""circle""></div></div>","p","","shape_test_2","mismatch","方","p","true","方"
"","null","html-keynbutton-response","293","2.0.0","3081637","16","<div class=""pb-14 text-7xl"">+</div>","null","fixation","","","","","",""
"","356","html-keynbutton-response","294","2.0.0","3081994","16","<div class=""flex flex-row stim-length pb-8 md:pd-20 justify-evenly items-center""><div class=""square""></div><div class=""square""></div><div class=""square""></div></div>","p","","shape_test_2","match","方","p","true","方"
"","null","html-keynbutton-response","295","2.0.0","3082504","16","<div class=""pb-14 text-7xl"">+</div>","null","fixation","","","","","",""
"","434","html-keynbutton-response","296","2.0.0","3082939","16","<div class=""flex flex-row stim-length pb-8 md:pd-20 justify-evenly items-center""><div class=""circle""></div><div class=""circle""></div><div class=""circle""></div></div>","q","","shape_test_2","match","圆","q","true","圆"
"","null","html-keynbutton-response","297","2.0.0","3083455","16","<div class=""pb-14 text-7xl"">+</div>","null","fixation","","","","","",""
"","411","html-keynbutton-response","298","2.0.0","3083866","16","<div class=""flex flex-row stim-length pb-8 md:pd-20 justify-evenly items-center""><div class=""square""></div><div class=""circle""></div><div class=""square""></div></div>","q","","shape_test_2","mismatch","圆","q","true","圆"
"","null","html-keynbutton-response","299","2.0.0","3084373","16","<div class=""pb-14 text-7xl"">+</div>","null","fixation","","","","","",""
"","325","html-keynbutton-response","300","2.0.0","3084699","16","<div class=""flex flex-row stim-length pb-8 md:pd-20 justify-evenly items-center""><div class=""square""></div><div class=""square""></div><div class=""square""></div></div>","p","","shape_test_2","match","方","p","true","方"
"","null","html-keynbutton-response","301","2.0.0","3085206","16","<div class=""pb-14 text-7xl"">+</div>","null","fixation","","","","","",""
"","356","html-keynbutton-response","302","2.0.0","3085563","16","<div class=""flex flex-row stim-length pb-8 md:pd-20 justify-evenly items-center""><div class=""circle""></div><div class=""square""></div><div class=""circle""></div></div>","p","","shape_test_2","mismatch","方","p","true","方"
"","null","html-keynbutton-response","303","2.0.0","3086070","16","<div class=""pb-14 text-7xl"">+</div>","null","fixation","","","","","",""
"","324","html-keynbutton-response","304","2.0.0","3086395","16","<div class=""flex flex-row stim-length pb-8 md:pd-20 justify-evenly items-center""><div class=""circle""></div><div class=""circle""></div><div class=""circle""></div></div>","q","","shape_test_2","match","圆","q","true","圆"
"","null","html-keynbutton-response","305","2.0.0","3086905","16","<div class=""pb-14 text-7xl"">+</div>","null","fixation","","","","","",""
"","352","html-keynbutton-response","306","2.0.0","3087258","16","<div class=""flex flex-row stim-length pb-8 md:pd-20 justify-evenly items-center""><div class=""square""></div><div class=""square""></div><div class=""square""></div></div>","p","","shape_test_2","match","方","p","true","方"
"","null","html-keynbutton-response","307","2.0.0","3087772","16","<div class=""pb-14 text-7xl"">+</div>","null","fixation","","","","","",""
"","414","html-keynbutton-response","308","2.0.0","3088187","16","<div class=""flex flex-row stim-length pb-8 md:pd-20 justify-evenly items-center""><div class=""square""></div><div class=""circle""></div><div class=""square""></div></div>","q","","shape_test_2","mismatch","圆","q","true","圆"
"","null","html-keynbutton-response","309","2.0.0","3088690","16","<div class=""pb-14 text-7xl"">+</div>","null","fixation","","","","","",""
"","280","html-keynbutton-response","310","2.0.0","3088971","16","<div class=""flex flex-row stim-length pb-8 md:pd-20 justify-evenly items-center""><div class=""circle""></div><div class=""square""></div><div class=""circle""></div></div>","p","","shape_test_2","mismatch","方","p","true","方"
"","2302","html-keynbutton-response","311","2.0.0","3091275","16","<div class=""jp""><p>您已完成3/10部分</p><p>请休息一会儿</p>
    <p>您的正确率是：98%</p>
    <p>您的平均反应时间是：357毫秒</p></div>"," ","block_feedback","","","","","",""
"","null","html-keynbutton-response","312","2.0.0","3094486","16","<count-down title=""""></count-down>","null","countDown_trial","","","","","",""
"","null","html-keynbutton-response","313","2.0.0","3094989","16","<div class=""pb-14 text-7xl"">+</div>","null","fixation","","","","","",""
"","365","html-keynbutton-response","314","2.0.0","3095355","16","<div class=""flex flex-row stim-length pb-8 md:pd-20 justify-evenly items-center""><div class=""square""></div><div class=""square""></div><div class=""square""></div></div>","p","","shape_test_3","match","方","p","true","方"
"","null","html-keynbutton-response","315","2.0.0","3095856","16","<div class=""pb-14 text-7xl"">+</div>","null","fixation","","","","","",""
"","346","html-keynbutton-response","316","2.0.0","3096203","16","<div class=""flex flex-row stim-length pb-8 md:pd-20 justify-evenly items-center""><div class=""circle""></div><div class=""square""></div><div class=""circle""></div></div>","p","","shape_test_3","mismatch","方","p","true","方"
"","null","html-keynbutton-response","317","2.0.0","3096707","16","<div class=""pb-14 text-7xl"">+</div>","null","fixation","","","","","",""
"","391","html-keynbutton-response","318","2.0.0","3097099","16","<div class=""flex flex-row stim-length pb-8 md:pd-20 justify-evenly items-center""><div class=""square""></div><div class=""circle""></div><div class=""square""></div></div>","q","","shape_test_3","mismatch","圆","q","true","圆"
"","null","html-keynbutton-response","319","2.0.0","3097606","16","<div class=""pb-14 text-7xl"">+</div>","null","fixation","","","","","",""
"","340","html-keynbutton-response","320","2.0.0","3097946","16","<div class=""flex flex-row stim-length pb-8 md:pd-20 justify-evenly items-center""><div class=""circle""></div><div class=""circle""></div><div class=""circle""></div></div>","q","","shape_test_3","match","圆","q","true","圆"
"","null","html-keynbutton-response","321","2.0.0","3098455","16","<div class=""pb-14 text-7xl"">+</div>","null","fixation","","","","","",""
"","386","html-keynbutton-response","322","2.0.0","3098842","16","<div class=""flex flex-row stim-length pb-8 md:pd-20 justify-evenly items-center""><div class=""square""></div><div class=""circle""></div><div class=""square""></div></div>","q","","shape_test_3","mismatch","圆","q","true","圆"
"","null","html-keynbutton-response","323","2.0.0","3099355","16","<div class=""pb-14 text-7xl"">+</div>","null","fixation","","","","","",""
"","334","html-keynbutton-response","324","2.0.0","3099690","16","<div class=""flex flex-row stim-length pb-8 md:pd-20 justify-evenly items-center""><div class=""square""></div><div class=""square""></div><div class=""square""></div></div>","p","","shape_test_3","match","方","p","true","方"
"","null","html-keynbutton-response","325","2.0.0","3100205","16","<div class=""pb-14 text-7xl"">+</div>","null","fixation","","","","","",""
"","396","html-keynbutton-response","326","2.0.0","3100603","16","<div class=""flex flex-row stim-length pb-8 md:pd-20 justify-evenly items-center""><div class=""circle""></div><div class=""circle""></div><div class=""circle""></div></div>","q","","shape_test_3","match","圆","q","true","圆"
"","null","html-keynbutton-response","327","2.0.0","3101106","16","<div class=""pb-14 text-7xl"">+</div>","null","fixation","","","","","",""
"","360","html-keynbutton-response","328","2.0.0","3101467","16","<div class=""flex flex-row stim-length pb-8 md:pd-20 justify-evenly items-center""><div class=""circle""></div><div class=""square""></div><div class=""circle""></div></div>","p","","shape_test_3","mismatch","方","p","true","方"
"","null","html-keynbutton-response","329","2.0.0","3101974","16","<div class=""pb-14 text-7xl"">+</div>","null","fixation","","","","","",""
"","356","html-keynbutton-response","330","2.0.0","3102331","16","<div class=""flex flex-row stim-length pb-8 md:pd-20 justify-evenly items-center""><div class=""circle""></div><div class=""square""></div><div class=""circle""></div></div>","p","","shape_test_3","mismatch","方","p","true","方"
"","null","html-keynbutton-response","331","2.0.0","3102838","16","<div class=""pb-14 text-7xl"">+</div>","null","fixation","","","","","",""
"","436","html-keynbutton-response","332","2.0.0","3103275","16","<div class=""flex flex-row stim-length pb-8 md:pd-20 justify-evenly items-center""><div class=""circle""></div><div class=""circle""></div><div class=""circle""></div></div>","q","","shape_test_3","match","圆","q","true","圆"
"","null","html-keynbutton-response","333","2.0.0","3103788","16","<div class=""pb-14 text-7xl"">+</div>","null","fixation","","","","","",""
"","398","html-keynbutton-response","334","2.0.0","3104187","16","<div class=""flex flex-row stim-length pb-8 md:pd-20 justify-evenly items-center""><div class=""square""></div><div class=""circle""></div><div class=""square""></div></div>","q","","shape_test_3","mismatch","圆","q","true","圆"
"","null","html-keynbutton-response","335","2.0.0","3104690","16","<div class=""pb-14 text-7xl"">+</div>","null","fixation","","","","","",""
"","377","html-keynbutton-response","336","2.0.0","3105067","16","<div class=""flex flex-row stim-length pb-8 md:pd-20 justify-evenly items-center""><div class=""square""></div><div class=""square""></div><div class=""square""></div></div>","p","","shape_test_3","match","方","p","true","方"
"","null","html-keynbutton-response","337","2.0.0","3105572","16","<div class=""pb-14 text-7xl"">+</div>","null","fixation","","","","","",""
"","357","html-keynbutton-response","338","2.0.0","3105929","16","<div class=""flex flex-row stim-length pb-8 md:pd-20 justify-evenly items-center""><div class=""square""></div><div class=""square""></div><div class=""square""></div></div>","p","","shape_test_3","match","方","p","true","方"
"","null","html-keynbutton-response","339","2.0.0","3106439","16","<div class=""pb-14 text-7xl"">+</div>","null","fixation","","","","","",""
"","354","html-keynbutton-response","340","2.0.0","3106794","16","<div class=""flex flex-row stim-length pb-8 md:pd-20 justify-evenly items-center""><div class=""circle""></div><div class=""square""></div><div class=""circle""></div></div>","p","","shape_test_3","mismatch","方","p","true","方"
"","null","html-keynbutton-response","341","2.0.0","3107305","16","<div class=""pb-14 text-7xl"">+</div>","null","fixation","","","","","",""
"","449","html-keynbutton-response","342","2.0.0","3107754","16","<div class=""flex flex-row stim-length pb-8 md:pd-20 justify-evenly items-center""><div class=""square""></div><div class=""circle""></div><div class=""square""></div></div>","q","","shape_test_3","mismatch","圆","q","true","圆"
"","null","html-keynbutton-response","343","2.0.0","3108256","16","<div class=""pb-14 text-7xl"">+</div>","null","fixation","","","","","",""
"","330","html-keynbutton-response","344","2.0.0","3108587","16","<div class=""flex flex-row stim-length pb-8 md:pd-20 justify-evenly items-center""><div class=""circle""></div><div class=""circle""></div><div class=""circle""></div></div>","q","","shape_test_3","match","圆","q","true","圆"
"","null","html-keynbutton-response","345","2.0.0","3109090","16","<div class=""pb-14 text-7xl"">+</div>","null","fixation","","","","","",""
"","424","html-keynbutton-response","346","2.0.0","3109515","16","<div class=""flex flex-row stim-length pb-8 md:pd-20 justify-evenly items-center""><div class=""square""></div><div class=""square""></div><div class=""square""></div></div>","p","","shape_test_3","match","方","p","true","方"
"","null","html-keynbutton-response","347","2.0.0","3110023","16","<div class=""pb-14 text-7xl"">+</div>","null","fixation","","","","","",""
"","355","html-keynbutton-response","348","2.0.0","3110379","16","<div class=""flex flex-row stim-length pb-8 md:pd-20 justify-evenly items-center""><div class=""circle""></div><div class=""square""></div><div class=""circle""></div></div>","p","","shape_test_3","mismatch","方","p","true","方"
"","null","html-keynbutton-response","349","2.0.0","3110888","16","<div class=""pb-14 text-7xl"">+</div>","null","fixation","","","","","",""
"","385","html-keynbutton-response","350","2.0.0","3111275","16","<div class=""flex flex-row stim-length pb-8 md:pd-20 justify-evenly items-center""><div class=""circle""></div><div class=""circle""></div><div class=""circle""></div></div>","q","","shape_test_3","match","圆","q","true","圆"
"","null","html-keynbutton-response","351","2.0.0","3111788","16","<div class=""pb-14 text-7xl"">+</div>","null","fixation","","","","","",""
"","334","html-keynbutton-response","352","2.0.0","3112123","16","<div class=""flex flex-row stim-length pb-8 md:pd-20 justify-evenly items-center""><div class=""square""></div><div class=""circle""></div><div class=""square""></div></div>","q","","shape_test_3","mismatch","圆","q","true","圆"
"","null","html-keynbutton-response","353","2.0.0","3112638","16","<div class=""pb-14 text-7xl"">+</div>","null","fixation","","","","","",""
"","284","html-keynbutton-response","354","2.0.0","3112923","16","<div class=""flex flex-row stim-length pb-8 md:pd-20 justify-evenly items-center""><div class=""circle""></div><div class=""square""></div><div class=""circle""></div></div>","p","","shape_test_3","mismatch","方","p","true","方"
"","null","html-keynbutton-response","355","2.0.0","3113438","16","<div class=""pb-14 text-7xl"">+</div>","null","fixation","","","","","",""
"","363","html-keynbutton-response","356","2.0.0","3113802","16","<div class=""flex flex-row stim-length pb-8 md:pd-20 justify-evenly items-center""><div class=""square""></div><div class=""square""></div><div class=""square""></div></div>","p","","shape_test_3","match","方","p","true","方"
"","null","html-keynbutton-response","357","2.0.0","3114306","16","<div class=""pb-14 text-7xl"">+</div>","null","fixation","","","","","",""
"","376","html-keynbutton-response","358","2.0.0","3114683","16","<div class=""flex flex-row stim-length pb-8 md:pd-20 justify-evenly items-center""><div class=""circle""></div><div class=""circle""></div><div class=""circle""></div></div>","q","","shape_test_3","match","圆","q","true","圆"
"","null","html-keynbutton-response","359","2.0.0","3115190","16","<div class=""pb-14 text-7xl"">+</div>","null","fixation","","","","","",""
"","308","html-keynbutton-response","360","2.0.0","3115499","16","<div class=""flex flex-row stim-length pb-8 md:pd-20 justify-evenly items-center""><div class=""square""></div><div class=""circle""></div><div class=""square""></div></div>","q","","shape_test_3","mismatch","圆","q","true","圆"
"","null","html-keynbutton-response","361","2.0.0","3116006","16","<div class=""pb-14 text-7xl"">+</div>","null","fixation","","","","","",""
"","420","html-keynbutton-response","362","2.0.0","3116427","16","<div class=""flex flex-row stim-length pb-8 md:pd-20 justify-evenly items-center""><div class=""circle""></div><div class=""circle""></div><div class=""circle""></div></div>","q","","shape_test_3","match","圆","q","true","圆"
"","null","html-keynbutton-response","363","2.0.0","3116938","16","<div class=""pb-14 text-7xl"">+</div>","null","fixation","","","","","",""
"","303","html-keynbutton-response","364","2.0.0","3117242","16","<div class=""flex flex-row stim-length pb-8 md:pd-20 justify-evenly items-center""><div class=""square""></div><div class=""square""></div><div class=""square""></div></div>","p","","shape_test_3","match","方","p","true","方"
"","null","html-keynbutton-response","365","2.0.0","3117755","16","<div class=""pb-14 text-7xl"">+</div>","null","fixation","","","","","",""
"","302","html-keynbutton-response","366","2.0.0","3118058","16","<div class=""flex flex-row stim-length pb-8 md:pd-20 justify-evenly items-center""><div class=""square""></div><div class=""circle""></div><div class=""square""></div></div>","q","","shape_test_3","mismatch","圆","q","true","圆"
"","null","html-keynbutton-response","367","2.0.0","3118572","16","<div class=""pb-14 text-7xl"">+</div>","null","fixation","","","","","",""
"","302","html-keynbutton-response","368","2.0.0","3118875","16","<div class=""flex flex-row stim-length pb-8 md:pd-20 justify-evenly items-center""><div class=""circle""></div><div class=""square""></div><div class=""circle""></div></div>","p","","shape_test_3","mismatch","方","p","true","方"
"","null","html-keynbutton-response","369","2.0.0","3119389","16","<div class=""pb-14 text-7xl"">+</div>","null","fixation","","","","","",""
"","349","html-keynbutton-response","370","2.0.0","3119739","16","<div class=""flex flex-row stim-length pb-8 md:pd-20 justify-evenly items-center""><div class=""circle""></div><div class=""square""></div><div class=""circle""></div></div>","p","","shape_test_3","mismatch","方","p","true","方"
"","null","html-keynbutton-response","371","2.0.0","3120255","16","<div class=""pb-14 text-7xl"">+</div>","null","fixation","","","","","",""
"","379","html-keynbutton-response","372","2.0.0","3120635","16","<div class=""flex flex-row stim-length pb-8 md:pd-20 justify-evenly items-center""><div class=""square""></div><div class=""square""></div><div class=""square""></div></div>","p","","shape_test_3","match","方","p","true","方"
"","null","html-keynbutton-response","373","2.0.0","3121140","16","<div class=""pb-14 text-7xl"">+</div>","null","fixation","","","","","",""
"","405","html-keynbutton-response","374","2.0.0","3121547","16","<div class=""flex flex-row stim-length pb-8 md:pd-20 justify-evenly items-center""><div class=""circle""></div><div class=""circle""></div><div class=""circle""></div></div>","q","","shape_test_3","match","圆","q","true","圆"
"","null","html-keynbutton-response","375","2.0.0","3122053","16","<div class=""pb-14 text-7xl"">+</div>","null","fixation","","","","","",""
"","324","html-keynbutton-response","376","2.0.0","3122379","16","<div class=""flex flex-row stim-length pb-8 md:pd-20 justify-evenly items-center""><div class=""square""></div><div class=""circle""></div><div class=""square""></div></div>","q","","shape_test_3","mismatch","圆","q","true","圆"
"","null","html-keynbutton-response","377","2.0.0","3122887","16","<div class=""pb-14 text-7xl"">+</div>","null","fixation","","","","","",""
"","275","html-keynbutton-response","378","2.0.0","3123163","16","<div class=""flex flex-row stim-length pb-8 md:pd-20 justify-evenly items-center""><div class=""circle""></div><div class=""circle""></div><div class=""circle""></div></div>","p","","shape_test_3","match","圆","q","false","方"
"","null","html-keynbutton-response","379","2.0.0","3123671","16","<div class=""pb-14 text-7xl"">+</div>","null","fixation","","","","","",""
"","499","html-keynbutton-response","380","2.0.0","3124171","16","<div class=""flex flex-row stim-length pb-8 md:pd-20 justify-evenly items-center""><div class=""square""></div><div class=""circle""></div><div class=""square""></div></div>","q","","shape_test_3","mismatch","圆","q","true","圆"
"","null","html-keynbutton-response","381","2.0.0","3124673","16","<div class=""pb-14 text-7xl"">+</div>","null","fixation","","","","","",""
"","377","html-keynbutton-response","382","2.0.0","3125051","16","<div class=""flex flex-row stim-length pb-8 md:pd-20 justify-evenly items-center""><div class=""circle""></div><div class=""square""></div><div class=""circle""></div></div>","p","","shape_test_3","mismatch","方","p","true","方"
"","null","html-keynbutton-response","383","2.0.0","3125564","16","<div class=""pb-14 text-7xl"">+</div>","null","fixation","","","","","",""
"","509","html-keynbutton-response","384","2.0.0","3126074","16","<div class=""flex flex-row stim-length pb-8 md:pd-20 justify-evenly items-center""><div class=""square""></div><div class=""square""></div><div class=""square""></div></div>","p","","shape_test_3","match","方","p","true","方"
"","null","html-keynbutton-response","385","2.0.0","3126589","16","<div class=""pb-14 text-7xl"">+</div>","null","fixation","","","","","",""
"","333","html-keynbutton-response","386","2.0.0","3126923","16","<div class=""flex flex-row stim-length pb-8 md:pd-20 justify-evenly items-center""><div class=""square""></div><div class=""square""></div><div class=""square""></div></div>","p","","shape_test_3","match","方","p","true","方"
"","null","html-keynbutton-response","387","2.0.0","3127438","16","<div class=""pb-14 text-7xl"">+</div>","null","fixation","","","","","",""
"","395","html-keynbutton-response","388","2.0.0","3127835","16","<div class=""flex flex-row stim-length pb-8 md:pd-20 justify-evenly items-center""><div class=""circle""></div><div class=""circle""></div><div class=""circle""></div></div>","q","","shape_test_3","match","圆","q","true","圆"
"","null","html-keynbutton-response","389","2.0.0","3128341","16","<div class=""pb-14 text-7xl"">+</div>","null","fixation","","","","","",""
"","373","html-keynbutton-response","390","2.0.0","3128715","16","<div class=""flex flex-row stim-length pb-8 md:pd-20 justify-evenly items-center""><div class=""circle""></div><div class=""square""></div><div class=""circle""></div></div>","p","","shape_test_3","mismatch","方","p","true","方"
"","null","html-keynbutton-response","391","2.0.0","3129222","16","<div class=""pb-14 text-7xl"">+</div>","null","fixation","","","","","",""
"","355","html-keynbutton-response","392","2.0.0","3129579","16","<div class=""flex flex-row stim-length pb-8 md:pd-20 justify-evenly items-center""><div class=""square""></div><div class=""circle""></div><div class=""square""></div></div>","q","","shape_test_3","mismatch","圆","q","true","圆"
"","11183","html-keynbutton-response","393","2.0.0","3140763","16","<div class=""jp""><p>您已完成4/10部分</p><p>请休息一会儿</p>
    <p>您的正确率是：98%</p>
    <p>您的平均反应时间是：368毫秒</p></div>"," ","block_feedback","","","","","",""
"","null","html-keynbutton-response","394","2.0.0","3143969","16","<count-down title=""""></count-down>","null","countDown_trial","","","","","",""
"","null","html-keynbutton-response","395","2.0.0","3144473","16","<div class=""pb-14 text-7xl"">+</div>","null","fixation","","","","","",""
"","368","html-keynbutton-response","396","2.0.0","3144842","16","<div class=""flex flex-row stim-length pb-8 md:pd-20 justify-evenly items-center""><div class=""circle""></div><div class=""square""></div><div class=""circle""></div></div>","p","","shape_test_4","mismatch","方","p","true","方"
"","null","html-keynbutton-response","397","2.0.0","3145356","16","<div class=""pb-14 text-7xl"">+</div>","null","fixation","","","","","",""
"","334","html-keynbutton-response","398","2.0.0","3145691","16","<div class=""flex flex-row stim-length pb-8 md:pd-20 justify-evenly items-center""><div class=""circle""></div><div class=""circle""></div><div class=""circle""></div></div>","q","","shape_test_4","match","圆","q","true","圆"
"","null","html-keynbutton-response","399","2.0.0","3146205","16","<div class=""pb-14 text-7xl"">+</div>","null","fixation","","","","","",""
"","365","html-keynbutton-response","400","2.0.0","3146571","16","<div class=""flex flex-row stim-length pb-8 md:pd-20 justify-evenly items-center""><div class=""square""></div><div class=""circle""></div><div class=""square""></div></div>","q","","shape_test_4","mismatch","圆","q","true","圆"
"","null","html-keynbutton-response","401","2.0.0","3147072","16","<div class=""pb-14 text-7xl"">+</div>","null","fixation","","","","","",""
"","346","html-keynbutton-response","402","2.0.0","3147419","16","<div class=""flex flex-row stim-length pb-8 md:pd-20 justify-evenly items-center""><div class=""square""></div><div class=""square""></div><div class=""square""></div></div>","p","","shape_test_4","match","方","p","true","方"
"","null","html-keynbutton-response","403","2.0.0","3147923","16","<div class=""pb-14 text-7xl"">+</div>","null","fixation","","","","","",""
"","375","html-keynbutton-response","404","2.0.0","3148299","16","<div class=""flex flex-row stim-length pb-8 md:pd-20 justify-evenly items-center""><div class=""square""></div><div class=""circle""></div><div class=""square""></div></div>","q","","shape_test_4","mismatch","圆","q","true","圆"
"","null","html-keynbutton-response","405","2.0.0","3148806","16","<div class=""pb-14 text-7xl"">+</div>","null","fixation","","","","","",""
"","339","html-keynbutton-response","406","2.0.0","3149146","16","<div class=""flex flex-row stim-length pb-8 md:pd-20 justify-evenly items-center""><div class=""circle""></div><div class=""circle""></div><div class=""circle""></div></div>","q","","shape_test_4","match","圆","q","true","圆"
"","null","html-keynbutton-response","407","2.0.0","3149655","16","<div class=""pb-14 text-7xl"">+</div>","null","fixation","","","","","",""
"","387","html-keynbutton-response","408","2.0.0","3150043","16","<div class=""flex flex-row stim-length pb-8 md:pd-20 justify-evenly items-center""><div class=""square""></div><div class=""square""></div><div class=""square""></div></div>","p","","shape_test_4","match","方","p","true","方"
"","null","html-keynbutton-response","409","2.0.0","3150555","16","<div class=""pb-14 text-7xl"">+</div>","null","fixation","","","","","",""
"","367","html-keynbutton-response","410","2.0.0","3150923","16","<div class=""flex flex-row stim-length pb-8 md:pd-20 justify-evenly items-center""><div class=""circle""></div><div class=""square""></div><div class=""circle""></div></div>","p","","shape_test_4","mismatch","方","p","true","方"
"","null","html-keynbutton-response","411","2.0.0","3151439","16","<div class=""pb-14 text-7xl"">+</div>","null","fixation","","","","","",""
"","363","html-keynbutton-response","412","2.0.0","3151803","16","<div class=""flex flex-row stim-length pb-8 md:pd-20 justify-evenly items-center""><div class=""circle""></div><div class=""circle""></div><div class=""circle""></div></div>","q","","shape_test_4","match","圆","q","true","圆"
"","null","html-keynbutton-response","413","2.0.0","3152306","16","<div class=""pb-14 text-7xl"">+</div>","null","fixation","","","","","",""
"","375","html-keynbutton-response","414","2.0.0","3152683","16","<div class=""flex flex-row stim-length pb-8 md:pd-20 justify-evenly items-center""><div class=""square""></div><div class=""square""></div><div class=""square""></div></div>","p","","shape_test_4","match","方","p","true","方"
"","null","html-keynbutton-response","415","2.0.0","3153189","16","<div class=""pb-14 text-7xl"">+</div>","null","fixation","","","","","",""
"","324","html-keynbutton-response","416","2.0.0","3153515","16","<div class=""flex flex-row stim-length pb-8 md:pd-20 justify-evenly items-center""><div class=""circle""></div><div class=""square""></div><div class=""circle""></div></div>","p","","shape_test_4","mismatch","方","p","true","方"
"","null","html-keynbutton-response","417","2.0.0","3154024","16","<div class=""pb-14 text-7xl"">+</div>","null","fixation","","","","","",""
"","338","html-keynbutton-response","418","2.0.0","3154363","16","<div class=""flex flex-row stim-length pb-8 md:pd-20 justify-evenly items-center""><div class=""square""></div><div class=""circle""></div><div class=""square""></div></div>","q","","shape_test_4","mismatch","圆","q","true","圆"
"","null","html-keynbutton-response","419","2.0.0","3154872","16","<div class=""pb-14 text-7xl"">+</div>","null","fixation","","","","","",""
"","354","html-keynbutton-response","420","2.0.0","3155227","16","<div class=""flex flex-row stim-length pb-8 md:pd-20 justify-evenly items-center""><div class=""square""></div><div class=""circle""></div><div class=""square""></div></div>","q","","shape_test_4","mismatch","圆","q","true","圆"
"","null","html-keynbutton-response","421","2.0.0","3155738","16","<div class=""pb-14 text-7xl"">+</div>","null","fixation","","","","","",""
"","352","html-keynbutton-response","422","2.0.0","3156091","16","<div class=""flex flex-row stim-length pb-8 md:pd-20 justify-evenly items-center""><div class=""circle""></div><div class=""circle""></div><div class=""circle""></div></div>","q","","shape_test_4","match","圆","q","true","圆"
"","null","html-keynbutton-response","423","2.0.0","3156605","16","<div class=""pb-14 text-7xl"">+</div>","null","fixation","","","","","",""
"","365","html-keynbutton-response","424","2.0.0","3156971","16","<div class=""flex flex-row stim-length pb-8 md:pd-20 justify-evenly items-center""><div class=""circle""></div><div class=""square""></div><div class=""circle""></div></div>","p","","shape_test_4","mismatch","方","p","true","方"
"","null","html-keynbutton-response","425","2.0.0","3157473","16","<div class=""pb-14 text-7xl"">+</div>","null","fixation","","","","","",""
"","441","html-keynbutton-response","426","2.0.0","3157915","16","<div class=""flex flex-row stim-length pb-8 md:pd-20 justify-evenly items-center""><div class=""square""></div><div class=""square""></div><div class=""square""></div></div>","p","","shape_test_4","match","方","p","true","方"
"","null","html-keynbutton-response","427","2.0.0","3158422","16","<div class=""pb-14 text-7xl"">+</div>","null","fixation","","","","","",""
"","356","html-keynbutton-response","428","2.0.0","3158779","16","<div class=""flex flex-row stim-length pb-8 md:pd-20 justify-evenly items-center""><div class=""square""></div><div class=""circle""></div><div class=""square""></div></div>","q","","shape_test_4","mismatch","圆","q","true","圆"
"","null","html-keynbutton-response","429","2.0.0","3159287","16","<div class=""pb-14 text-7xl"">+</div>","null","fixation","","","","","",""
"","371","html-keynbutton-response","430","2.0.0","3159659","16","<div class=""flex flex-row stim-length pb-8 md:pd-20 justify-evenly items-center""><div class=""circle""></div><div class=""square""></div><div class=""circle""></div></div>","p","","shape_test_4","mismatch","方","p","true","方"
"","null","html-keynbutton-response","431","2.0.0","3160172","16","<div class=""pb-14 text-7xl"">+</div>","null","fixation","","","","","",""
"","367","html-keynbutton-response","432","2.0.0","3160539","16","<div class=""flex flex-row stim-length pb-8 md:pd-20 justify-evenly items-center""><div class=""circle""></div><div class=""circle""></div><div class=""circle""></div></div>","q","","shape_test_4","match","圆","q","true","圆"
"","null","html-keynbutton-response","433","2.0.0","3161055","16","<div class=""pb-14 text-7xl"">+</div>","null","fixation","","","","","",""
"","363","html-keynbutton-response","434","2.0.0","3161419","16","<div class=""flex flex-row stim-length pb-8 md:pd-20 justify-evenly items-center""><div class=""square""></div><div class=""square""></div><div class=""square""></div></div>","p","","shape_test_4","match","方","p","true","方"
"","null","html-keynbutton-response","435","2.0.0","3161923","16","<div class=""pb-14 text-7xl"">+</div>","null","fixation","","","","","",""
"","376","html-keynbutton-response","436","2.0.0","3162299","16","<div class=""flex flex-row stim-length pb-8 md:pd-20 justify-evenly items-center""><div class=""square""></div><div class=""square""></div><div class=""square""></div></div>","p","","shape_test_4","match","方","p","true","方"
"","null","html-keynbutton-response","437","2.0.0","3162806","16","<div class=""pb-14 text-7xl"">+</div>","null","fixation","","","","","",""
"","467","html-keynbutton-response","438","2.0.0","3163274","16","<div class=""flex flex-row stim-length pb-8 md:pd-20 justify-evenly items-center""><div class=""square""></div><div class=""circle""></div><div class=""square""></div></div>","q","","shape_test_4","mismatch","圆","q","true","圆"
"","null","html-keynbutton-response","439","2.0.0","3163788","16","<div class=""pb-14 text-7xl"">+</div>","null","fixation","","","","","",""
"","350","html-keynbutton-response","440","2.0.0","3164139","16","<div class=""flex flex-row stim-length pb-8 md:pd-20 justify-evenly items-center""><div class=""circle""></div><div class=""circle""></div><div class=""circle""></div></div>","q","","shape_test_4","match","圆","q","true","圆"
"","null","html-keynbutton-response","441","2.0.0","3164655","16","<div class=""pb-14 text-7xl"">+</div>","null","fixation","","","","","",""
"","347","html-keynbutton-response","442","2.0.0","3165003","16","<div class=""flex flex-row stim-length pb-8 md:pd-20 justify-evenly items-center""><div class=""circle""></div><div class=""square""></div><div class=""circle""></div></div>","p","","shape_test_4","mismatch","方","p","true","方"
"","null","html-keynbutton-response","443","2.0.0","3165506","16","<div class=""pb-14 text-7xl"">+</div>","null","fixation","","","","","",""
"","375","html-keynbutton-response","444","2.0.0","3165882","16","<div class=""flex flex-row stim-length pb-8 md:pd-20 justify-evenly items-center""><div class=""circle""></div><div class=""circle""></div><div class=""circle""></div></div>","q","","shape_test_4","match","圆","q","true","圆"
"","null","html-keynbutton-response","445","2.0.0","3166389","16","<div class=""pb-14 text-7xl"">+</div>","null","fixation","","","","","",""
"","357","html-keynbutton-response","446","2.0.0","3166747","16","<div class=""flex flex-row stim-length pb-8 md:pd-20 justify-evenly items-center""><div class=""square""></div><div class=""square""></div><div class=""square""></div></div>","p","","shape_test_4","match","方","p","true","方"
"","null","html-keynbutton-response","447","2.0.0","3167255","16","<div class=""pb-14 text-7xl"">+</div>","null","fixation","","","","","",""
"","340","html-keynbutton-response","448","2.0.0","3167595","16","<div class=""flex flex-row stim-length pb-8 md:pd-20 justify-evenly items-center""><div class=""circle""></div><div class=""square""></div><div class=""circle""></div></div>","p","","shape_test_4","mismatch","方","p","true","方"
"","null","html-keynbutton-response","449","2.0.0","3168105","16","<div class=""pb-14 text-7xl"">+</div>","null","fixation","","","","","",""
"","401","html-keynbutton-response","450","2.0.0","3168507","16","<div class=""flex flex-row stim-length pb-8 md:pd-20 justify-evenly items-center""><div class=""square""></div><div class=""circle""></div><div class=""square""></div></div>","q","","shape_test_4","mismatch","圆","q","true","圆"
"","null","html-keynbutton-response","451","2.0.0","3169022","16","<div class=""pb-14 text-7xl"">+</div>","null","fixation","","","","","",""
"","364","html-keynbutton-response","452","2.0.0","3169387","16","<div class=""flex flex-row stim-length pb-8 md:pd-20 justify-evenly items-center""><div class=""circle""></div><div class=""square""></div><div class=""circle""></div></div>","p","","shape_test_4","mismatch","方","p","true","方"
"","null","html-keynbutton-response","453","2.0.0","3169889","16","<div class=""pb-14 text-7xl"">+</div>","null","fixation","","","","","",""
"","328","html-keynbutton-response","454","2.0.0","3170218","16","<div class=""flex flex-row stim-length pb-8 md:pd-20 justify-evenly items-center""><div class=""circle""></div><div class=""circle""></div><div class=""circle""></div></div>","q","","shape_test_4","match","圆","q","true","圆"
"","null","html-keynbutton-response","455","2.0.0","3170724","16","<div class=""pb-14 text-7xl"">+</div>","null","fixation","","","","","",""
"","358","html-keynbutton-response","456","2.0.0","3171083","16","<div class=""flex flex-row stim-length pb-8 md:pd-20 justify-evenly items-center""><div class=""square""></div><div class=""circle""></div><div class=""square""></div></div>","q","","shape_test_4","mismatch","圆","q","true","圆"
"","null","html-keynbutton-response","457","2.0.0","3171590","16","<div class=""pb-14 text-7xl"">+</div>","null","fixation","","","","","",""
"","276","html-keynbutton-response","458","2.0.0","3171867","16","<div class=""flex flex-row stim-length pb-8 md:pd-20 justify-evenly items-center""><div class=""square""></div><div class=""square""></div><div class=""square""></div></div>","p","","shape_test_4","match","方","p","true","方"
"","null","html-keynbutton-response","459","2.0.0","3172373","16","<div class=""pb-14 text-7xl"">+</div>","null","fixation","","","","","",""
"","372","html-keynbutton-response","460","2.0.0","3172747","16","<div class=""flex flex-row stim-length pb-8 md:pd-20 justify-evenly items-center""><div class=""square""></div><div class=""circle""></div><div class=""square""></div></div>","q","","shape_test_4","mismatch","圆","q","true","圆"
"","null","html-keynbutton-response","461","2.0.0","3173255","16","<div class=""pb-14 text-7xl"">+</div>","null","fixation","","","","","",""
"","323","html-keynbutton-response","462","2.0.0","3173579","16","<div class=""flex flex-row stim-length pb-8 md:pd-20 justify-evenly items-center""><div class=""circle""></div><div class=""square""></div><div class=""circle""></div></div>","p","","shape_test_4","mismatch","方","p","true","方"
"","null","html-keynbutton-response","463","2.0.0","3174088","16","<div class=""pb-14 text-7xl"">+</div>","null","fixation","","","","","",""
"","337","html-keynbutton-response","464","2.0.0","3174427","16","<div class=""flex flex-row stim-length pb-8 md:pd-20 justify-evenly items-center""><div class=""circle""></div><div class=""circle""></div><div class=""circle""></div></div>","q","","shape_test_4","match","圆","q","true","圆"
"","null","html-keynbutton-response","465","2.0.0","3174939","16","<div class=""pb-14 text-7xl"">+</div>","null","fixation","","","","","",""
