"success","rt","trial_type","trial_index","plugin_version","time_elapsed","subj_id","stimulus","response","trail_tag","task","ismatch","target","correct_key","correct","response_key"
"true","5246934","fullscreen","0","2.0.0","5247950","20","","","","","","","","",""
"","11065","html-keynbutton-response","1","2.0.0","5259019","20","
        <div class=""jp px-2 xxs:px-5 mx-auto"">
        <p class=""text-center text-red-600 text-[1.2em] pb-5"">欢迎您参加知觉
          <strong>匹配实验。</strong>
        </p>
        <p>接下来的任务中您将看到一排图形。</p>
        <p>(圆形●或方形■)</p><p>您需要专注于中间的图形，判断中间的图形和两侧的图形<strong>是否匹配</strong>。</p>
        <p>如果图形匹配，请按“q”；</p>
        <p>如果图形不匹配，请按“p”。</p>
        <p>请尽量又快又准地做出反应。</p>
      <p>请按空格键开始练习。</p>
      </div>"," ","","","","","","",""
"","null","html-keynbutton-response","2","2.0.0","5262228","20","<count-down title=""""></count-down>","null","countDown_trial","","","","","",""
"","null","html-keynbutton-response","3","2.0.0","5262733","20","<div class=""pb-14 text-7xl"">+</div>","null","fixation","","","","","",""
"","null","html-keynbutton-response","4","2.0.0","5264736","20","<div class=""flex flex-row stim-length pb-8 md:pd-20 justify-evenly items-center""><div class=""square""></div><div class=""circle""></div><div class=""square""></div></div>","null","","matchness_practice","mismatch","圆","p","false","null"
"","null","html-keynbutton-response","5","2.0.0","5265249","20","<span class='text-yellow-500 text-4xl md:text-5xl lg:text-6xl'>太慢!</span>","null","trial_feedback","","","","","",""
"","null","html-keynbutton-response","6","2.0.0","5265764","20","<div class=""pb-14 text-7xl"">+</div>","null","fixation","","","","","",""
"","789","html-keynbutton-response","7","2.0.0","5266554","20","<div class=""flex flex-row stim-length pb-8 md:pd-20 justify-evenly items-center""><div class=""circle""></div><div class=""circle""></div><div class=""circle""></div></div>","q","","matchness_practice","match","圆","q","true","match"
"","null","html-keynbutton-response","8","2.0.0","5267065","20","<span class='text-green-400 text-4xl md:text-5xl lg:text-6xl'>正确!</span>","null","trial_feedback","","","","","",""
"","null","html-keynbutton-response","9","2.0.0","5267568","20","<div class=""pb-14 text-7xl"">+</div>","null","fixation","","","","","",""
"","648","html-keynbutton-response","10","2.0.0","5268217","20","<div class=""flex flex-row stim-length pb-8 md:pd-20 justify-evenly items-center""><div class=""circle""></div><div class=""square""></div><div class=""circle""></div></div>","p","","matchness_practice","mismatch","方","p","true","mismatch"
"","null","html-keynbutton-response","11","2.0.0","5268731","20","<span class='text-green-400 text-4xl md:text-5xl lg:text-6xl'>正确!</span>","null","trial_feedback","","","","","",""
"","null","html-keynbutton-response","12","2.0.0","5269247","20","<div class=""pb-14 text-7xl"">+</div>","null","fixation","","","","","",""
"","457","html-keynbutton-response","13","2.0.0","5269706","20","<div class=""flex flex-row stim-length pb-8 md:pd-20 justify-evenly items-center""><div class=""square""></div><div class=""square""></div><div class=""square""></div></div>","q","","matchness_practice","match","方","q","true","match"
"","null","html-keynbutton-response","14","2.0.0","5270213","20","<span class='text-green-400 text-4xl md:text-5xl lg:text-6xl'>正确!</span>","null","trial_feedback","","","","","",""
"","null","html-keynbutton-response","15","2.0.0","5270730","20","<div class=""pb-14 text-7xl"">+</div>","null","fixation","","","","","",""
"","526","html-keynbutton-response","16","2.0.0","5271258","20","<div class=""flex flex-row stim-length pb-8 md:pd-20 justify-evenly items-center""><div class=""square""></div><div class=""circle""></div><div class=""square""></div></div>","p","","matchness_practice","mismatch","圆","p","true","mismatch"
"","null","html-keynbutton-response","17","2.0.0","5271765","20","<span class='text-green-400 text-4xl md:text-5xl lg:text-6xl'>正确!</span>","null","trial_feedback","","","","","",""
"","null","html-keynbutton-response","18","2.0.0","5272281","20","<div class=""pb-14 text-7xl"">+</div>","null","fixation","","","","","",""
"","336","html-keynbutton-response","19","2.0.0","5272618","20","<div class=""flex flex-row stim-length pb-8 md:pd-20 justify-evenly items-center""><div class=""square""></div><div class=""square""></div><div class=""square""></div></div>","q","","matchness_practice","match","方","q","true","match"
"","null","html-keynbutton-response","20","2.0.0","5273131","20","<span class='text-green-400 text-4xl md:text-5xl lg:text-6xl'>正确!</span>","null","trial_feedback","","","","","",""
"","null","html-keynbutton-response","21","2.0.0","5273647","20","<div class=""pb-14 text-7xl"">+</div>","null","fixation","","","","","",""
"","410","html-keynbutton-response","22","2.0.0","5274058","20","<div class=""flex flex-row stim-length pb-8 md:pd-20 justify-evenly items-center""><div class=""circle""></div><div class=""square""></div><div class=""circle""></div></div>","p","","matchness_practice","mismatch","方","p","true","mismatch"
"","null","html-keynbutton-response","23","2.0.0","5274565","20","<span class='text-green-400 text-4xl md:text-5xl lg:text-6xl'>正确!</span>","null","trial_feedback","","","","","",""
"","null","html-keynbutton-response","24","2.0.0","5275080","20","<div class=""pb-14 text-7xl"">+</div>","null","fixation","","","","","",""
"","384","html-keynbutton-response","25","2.0.0","5275466","20","<div class=""flex flex-row stim-length pb-8 md:pd-20 justify-evenly items-center""><div class=""circle""></div><div class=""circle""></div><div class=""circle""></div></div>","q","","matchness_practice","match","圆","q","true","match"
"","null","html-keynbutton-response","26","2.0.0","5275980","20","<span class='text-green-400 text-4xl md:text-5xl lg:text-6xl'>正确!</span>","null","trial_feedback","","","","","",""
"","null","html-keynbutton-response","27","2.0.0","5276490","20","<div class=""pb-14 text-7xl"">+</div>","null","fixation","","","","","",""
"","351","html-keynbutton-response","28","2.0.0","5276842","20","<div class=""flex flex-row stim-length pb-8 md:pd-20 justify-evenly items-center""><div class=""circle""></div><div class=""square""></div><div class=""circle""></div></div>","p","","matchness_practice","mismatch","方","p","true","mismatch"
"","null","html-keynbutton-response","29","2.0.0","5277348","20","<span class='text-green-400 text-4xl md:text-5xl lg:text-6xl'>正确!</span>","null","trial_feedback","","","","","",""
"","null","html-keynbutton-response","30","2.0.0","5277862","20","<div class=""pb-14 text-7xl"">+</div>","null","fixation","","","","","",""
"","259","html-keynbutton-response","31","2.0.0","5278122","20","<div class=""flex flex-row stim-length pb-8 md:pd-20 justify-evenly items-center""><div class=""square""></div><div class=""circle""></div><div class=""square""></div></div>","q","","matchness_practice","mismatch","圆","p","false","match"
"","null","html-keynbutton-response","32","2.0.0","5278631","20","<span class='text-red-500 text-4xl md:text-5xl lg:text-6xl'>错误!</span>","null","trial_feedback","","","","","",""
"","null","html-keynbutton-response","33","2.0.0","5279147","20","<div class=""pb-14 text-7xl"">+</div>","null","fixation","","","","","",""
"","366","html-keynbutton-response","34","2.0.0","5279514","20","<div class=""flex flex-row stim-length pb-8 md:pd-20 justify-evenly items-center""><div class=""circle""></div><div class=""circle""></div><div class=""circle""></div></div>","p","","matchness_practice","match","圆","q","false","mismatch"
"","null","html-keynbutton-response","35","2.0.0","5280030","20","<span class='text-red-500 text-4xl md:text-5xl lg:text-6xl'>错误!</span>","null","trial_feedback","","","","","",""
"","null","html-keynbutton-response","36","2.0.0","5280534","20","<div class=""pb-14 text-7xl"">+</div>","null","fixation","","","","","",""
"","482","html-keynbutton-response","37","2.0.0","5281017","20","<div class=""flex flex-row stim-length pb-8 md:pd-20 justify-evenly items-center""><div class=""square""></div><div class=""square""></div><div class=""square""></div></div>","q","","matchness_practice","match","方","q","true","match"
"","null","html-keynbutton-response","38","2.0.0","5281532","20","<span class='text-green-400 text-4xl md:text-5xl lg:text-6xl'>正确!</span>","null","trial_feedback","","","","","",""
"","null","html-keynbutton-response","39","2.0.0","5282047","20","<div class=""pb-14 text-7xl"">+</div>","null","fixation","","","","","",""
"","442","html-keynbutton-response","40","2.0.0","5282490","20","<div class=""flex flex-row stim-length pb-8 md:pd-20 justify-evenly items-center""><div class=""square""></div><div class=""circle""></div><div class=""square""></div></div>","p","","matchness_practice","mismatch","圆","p","true","mismatch"
"","null","html-keynbutton-response","41","2.0.0","5283003","20","<span class='text-green-400 text-4xl md:text-5xl lg:text-6xl'>正确!</span>","null","trial_feedback","","","","","",""
"","null","html-keynbutton-response","42","2.0.0","5283514","20","<div class=""pb-14 text-7xl"">+</div>","null","fixation","","","","","",""
"","383","html-keynbutton-response","43","2.0.0","5283898","20","<div class=""flex flex-row stim-length pb-8 md:pd-20 justify-evenly items-center""><div class=""square""></div><div class=""square""></div><div class=""square""></div></div>","q","","matchness_practice","match","方","q","true","match"
"","null","html-keynbutton-response","44","2.0.0","5284414","20","<span class='text-green-400 text-4xl md:text-5xl lg:text-6xl'>正确!</span>","null","trial_feedback","","","","","",""
"","null","html-keynbutton-response","45","2.0.0","5284915","20","<div class=""pb-14 text-7xl"">+</div>","null","fixation","","","","","",""
"","614","html-keynbutton-response","46","2.0.0","5285530","20","<div class=""flex flex-row stim-length pb-8 md:pd-20 justify-evenly items-center""><div class=""circle""></div><div class=""circle""></div><div class=""circle""></div></div>","q","","matchness_practice","match","圆","q","true","match"
"","null","html-keynbutton-response","47","2.0.0","5286035","20","<span class='text-green-400 text-4xl md:text-5xl lg:text-6xl'>正确!</span>","null","trial_feedback","","","","","",""
"","null","html-keynbutton-response","48","2.0.0","5286548","20","<div class=""pb-14 text-7xl"">+</div>","null","fixation","","","","","",""
"","405","html-keynbutton-response","49","2.0.0","5286954","20","<div class=""flex flex-row stim-length pb-8 md:pd-20 justify-evenly items-center""><div class=""circle""></div><div class=""square""></div><div class=""circle""></div></div>","p","","matchness_practice","mismatch","方","p","true","mismatch"
"","null","html-keynbutton-response","50","2.0.0","5287464","20","<span class='text-green-400 text-4xl md:text-5xl lg:text-6xl'>正确!</span>","null","trial_feedback","","","","","",""
"","null","html-keynbutton-response","51","2.0.0","5287965","20","<div class=""pb-14 text-7xl"">+</div>","null","fixation","","","","","",""
"","443","html-keynbutton-response","52","2.0.0","5288410","20","<div class=""flex flex-row stim-length pb-8 md:pd-20 justify-evenly items-center""><div class=""circle""></div><div class=""square""></div><div class=""circle""></div></div>","p","","matchness_practice","mismatch","方","p","true","mismatch"
"","null","html-keynbutton-response","53","2.0.0","5288916","20","<span class='text-green-400 text-4xl md:text-5xl lg:text-6xl'>正确!</span>","null","trial_feedback","","","","","",""
"","null","html-keynbutton-response","54","2.0.0","5289431","20","<div class=""pb-14 text-7xl"">+</div>","null","fixation","","","","","",""
"","434","html-keynbutton-response","55","2.0.0","5289866","20","<div class=""flex flex-row stim-length pb-8 md:pd-20 justify-evenly items-center""><div class=""square""></div><div class=""circle""></div><div class=""square""></div></div>","p","","matchness_practice","mismatch","圆","p","true","mismatch"
"","null","html-keynbutton-response","56","2.0.0","5290381","20","<span class='text-green-400 text-4xl md:text-5xl lg:text-6xl'>正确!</span>","null","trial_feedback","","","","","",""
"","null","html-keynbutton-response","57","2.0.0","5290897","20","<div class=""pb-14 text-7xl"">+</div>","null","fixation","","","","","",""
"","375","html-keynbutton-response","58","2.0.0","5291273","20","<div class=""flex flex-row stim-length pb-8 md:pd-20 justify-evenly items-center""><div class=""circle""></div><div class=""circle""></div><div class=""circle""></div></div>","q","","matchness_practice","match","圆","q","true","match"
"","null","html-keynbutton-response","59","2.0.0","5291781","20","<span class='text-green-400 text-4xl md:text-5xl lg:text-6xl'>正确!</span>","null","trial_feedback","","","","","",""
"","null","html-keynbutton-response","60","2.0.0","5292297","20","<div class=""pb-14 text-7xl"">+</div>","null","fixation","","","","","",""
"","448","html-keynbutton-response","61","2.0.0","5292746","20","<div class=""flex flex-row stim-length pb-8 md:pd-20 justify-evenly items-center""><div class=""square""></div><div class=""square""></div><div class=""square""></div></div>","q","","matchness_practice","match","方","q","true","match"
"","null","html-keynbutton-response","62","2.0.0","5293248","20","<span class='text-green-400 text-4xl md:text-5xl lg:text-6xl'>正确!</span>","null","trial_feedback","","","","","",""
"","1845","html-keynbutton-response","64","2.0.0","5295097","20","<div class=""jp"">
    <p>您的正确率是：85%</p>
    <p>您的平均反应时间是：450毫秒</p></div>"," ","block_feedback","","","","","",""
"","2576","html-keynbutton-response","65","2.0.0","5297674","20","
        <div class=""jp px-2 xxs:px-5 mx-auto"">
        <p class=""text-center text-red-600 text-[1.2em] pb-5"">练习结束，现在开始正式实验</p>
        <p>请注意：正式实验中将不再会呈现反馈。</p>
        </div>
        "," ","","","","","","",""
"","null","html-keynbutton-response","66","2.0.0","5300878","20","<count-down title=""""></count-down>","null","countDown_trial","","","","","",""
"","null","html-keynbutton-response","67","2.0.0","5301381","20","<div class=""pb-14 text-7xl"">+</div>","null","fixation","","","","","",""
"","452","html-keynbutton-response","68","2.0.0","5301834","20","<div class=""flex flex-row stim-length pb-8 md:pd-20 justify-evenly items-center""><div class=""circle""></div><div class=""circle""></div><div class=""circle""></div></div>","q","","matchness_test","match","圆","q","true","match"
"","null","html-keynbutton-response","69","2.0.0","5302347","20","<div class=""pb-14 text-7xl"">+</div>","null","fixation","","","","","",""
"","493","html-keynbutton-response","70","2.0.0","5302842","20","<div class=""flex flex-row stim-length pb-8 md:pd-20 justify-evenly items-center""><div class=""square""></div><div class=""circle""></div><div class=""square""></div></div>","p","","matchness_test","mismatch","圆","p","true","mismatch"
"","null","html-keynbutton-response","71","2.0.0","5303348","20","<div class=""pb-14 text-7xl"">+</div>","null","fixation","","","","","",""
"","788","html-keynbutton-response","72","2.0.0","5304137","20","<div class=""flex flex-row stim-length pb-8 md:pd-20 justify-evenly items-center""><div class=""circle""></div><div class=""square""></div><div class=""circle""></div></div>","p","","matchness_test","mismatch","方","p","true","mismatch"
"","null","html-keynbutton-response","73","2.0.0","5304648","20","<div class=""pb-14 text-7xl"">+</div>","null","fixation","","","","","",""
"","449","html-keynbutton-response","74","2.0.0","5305098","20","<div class=""flex flex-row stim-length pb-8 md:pd-20 justify-evenly items-center""><div class=""square""></div><div class=""square""></div><div class=""square""></div></div>","q","","matchness_test","match","方","q","true","match"
"","null","html-keynbutton-response","75","2.0.0","5305613","20","<div class=""pb-14 text-7xl"">+</div>","null","fixation","","","","","",""
"","603","html-keynbutton-response","76","2.0.0","5306217","20","<div class=""flex flex-row stim-length pb-8 md:pd-20 justify-evenly items-center""><div class=""circle""></div><div class=""square""></div><div class=""circle""></div></div>","p","","matchness_test","mismatch","方","p","true","mismatch"
"","null","html-keynbutton-response","77","2.0.0","5306731","20","<div class=""pb-14 text-7xl"">+</div>","null","fixation","","","","","",""
"","350","html-keynbutton-response","78","2.0.0","5307082","20","<div class=""flex flex-row stim-length pb-8 md:pd-20 justify-evenly items-center""><div class=""square""></div><div class=""square""></div><div class=""square""></div></div>","q","","matchness_test","match","方","q","true","match"
"","null","html-keynbutton-response","79","2.0.0","5307597","20","<div class=""pb-14 text-7xl"">+</div>","null","fixation","","","","","",""
"","396","html-keynbutton-response","80","2.0.0","5307994","20","<div class=""flex flex-row stim-length pb-8 md:pd-20 justify-evenly items-center""><div class=""circle""></div><div class=""circle""></div><div class=""circle""></div></div>","q","","matchness_test","match","圆","q","true","match"
"","null","html-keynbutton-response","81","2.0.0","5308498","20","<div class=""pb-14 text-7xl"">+</div>","null","fixation","","","","","",""
"","407","html-keynbutton-response","82","2.0.0","5308906","20","<div class=""flex flex-row stim-length pb-8 md:pd-20 justify-evenly items-center""><div class=""square""></div><div class=""circle""></div><div class=""square""></div></div>","q","","matchness_test","mismatch","圆","p","false","match"
"","null","html-keynbutton-response","83","2.0.0","5309412","20","<div class=""pb-14 text-7xl"">+</div>","null","fixation","","","","","",""
"","516","html-keynbutton-response","84","2.0.0","5309930","20","<div class=""flex flex-row stim-length pb-8 md:pd-20 justify-evenly items-center""><div class=""square""></div><div class=""square""></div><div class=""square""></div></div>","q","","matchness_test","match","方","q","true","match"
"","null","html-keynbutton-response","85","2.0.0","5310431","20","<div class=""pb-14 text-7xl"">+</div>","null","fixation","","","","","",""
"","409","html-keynbutton-response","86","2.0.0","5310842","20","<div class=""flex flex-row stim-length pb-8 md:pd-20 justify-evenly items-center""><div class=""circle""></div><div class=""square""></div><div class=""circle""></div></div>","p","","matchness_test","mismatch","方","p","true","mismatch"
"","null","html-keynbutton-response","87","2.0.0","5311348","20","<div class=""pb-14 text-7xl"">+</div>","null","fixation","","","","","",""
"","437","html-keynbutton-response","88","2.0.0","5311786","20","<div class=""flex flex-row stim-length pb-8 md:pd-20 justify-evenly items-center""><div class=""circle""></div><div class=""circle""></div><div class=""circle""></div></div>","q","","matchness_test","match","圆","q","true","match"
"","null","html-keynbutton-response","89","2.0.0","5312297","20","<div class=""pb-14 text-7xl"">+</div>","null","fixation","","","","","",""
"","495","html-keynbutton-response","90","2.0.0","5312794","20","<div class=""flex flex-row stim-length pb-8 md:pd-20 justify-evenly items-center""><div class=""square""></div><div class=""circle""></div><div class=""square""></div></div>","p","","matchness_test","mismatch","圆","p","true","mismatch"
"","null","html-keynbutton-response","91","2.0.0","5313298","20","<div class=""pb-14 text-7xl"">+</div>","null","fixation","","","","","",""
"","425","html-keynbutton-response","92","2.0.0","5313723","20","<div class=""flex flex-row stim-length pb-8 md:pd-20 justify-evenly items-center""><div class=""circle""></div><div class=""square""></div><div class=""circle""></div></div>","p","","matchness_test","mismatch","方","p","true","mismatch"
"","null","html-keynbutton-response","93","2.0.0","5314230","20","<div class=""pb-14 text-7xl"">+</div>","null","fixation","","","","","",""
"","403","html-keynbutton-response","94","2.0.0","5314634","20","<div class=""flex flex-row stim-length pb-8 md:pd-20 justify-evenly items-center""><div class=""circle""></div><div class=""circle""></div><div class=""circle""></div></div>","q","","matchness_test","match","圆","q","true","match"
"","null","html-keynbutton-response","95","2.0.0","5315147","20","<div class=""pb-14 text-7xl"">+</div>","null","fixation","","","","","",""
"","398","html-keynbutton-response","96","2.0.0","5315546","20","<div class=""flex flex-row stim-length pb-8 md:pd-20 justify-evenly items-center""><div class=""square""></div><div class=""circle""></div><div class=""square""></div></div>","p","","matchness_test","mismatch","圆","p","true","mismatch"
"","null","html-keynbutton-response","97","2.0.0","5316048","20","<div class=""pb-14 text-7xl"">+</div>","null","fixation","","","","","",""
"","537","html-keynbutton-response","98","2.0.0","5316586","20","<div class=""flex flex-row stim-length pb-8 md:pd-20 justify-evenly items-center""><div class=""square""></div><div class=""square""></div><div class=""square""></div></div>","q","","matchness_test","match","方","q","true","match"
"","null","html-keynbutton-response","99","2.0.0","5317098","20","<div class=""pb-14 text-7xl"">+</div>","null","fixation","","","","","",""
"","575","html-keynbutton-response","100","2.0.0","5317674","20","<div class=""flex flex-row stim-length pb-8 md:pd-20 justify-evenly items-center""><div class=""square""></div><div class=""circle""></div><div class=""square""></div></div>","p","","matchness_test","mismatch","圆","p","true","mismatch"
"","null","html-keynbutton-response","101","2.0.0","5318182","20","<div class=""pb-14 text-7xl"">+</div>","null","fixation","","","","","",""
"","499","html-keynbutton-response","102","2.0.0","5318682","20","<div class=""flex flex-row stim-length pb-8 md:pd-20 justify-evenly items-center""><div class=""square""></div><div class=""square""></div><div class=""square""></div></div>","q","","matchness_test","match","方","q","true","match"
"","null","html-keynbutton-response","103","2.0.0","5319197","20","<div class=""pb-14 text-7xl"">+</div>","null","fixation","","","","","",""
"","540","html-keynbutton-response","104","2.0.0","5319738","20","<div class=""flex flex-row stim-length pb-8 md:pd-20 justify-evenly items-center""><div class=""circle""></div><div class=""circle""></div><div class=""circle""></div></div>","q","","matchness_test","match","圆","q","true","match"
"","null","html-keynbutton-response","105","2.0.0","5320248","20","<div class=""pb-14 text-7xl"">+</div>","null","fixation","","","","","",""
"","497","html-keynbutton-response","106","2.0.0","5320746","20","<div class=""flex flex-row stim-length pb-8 md:pd-20 justify-evenly items-center""><div class=""circle""></div><div class=""square""></div><div class=""circle""></div></div>","p","","matchness_test","mismatch","方","p","true","mismatch"
"","null","html-keynbutton-response","107","2.0.0","5321249","20","<div class=""pb-14 text-7xl"">+</div>","null","fixation","","","","","",""
"","536","html-keynbutton-response","108","2.0.0","5321786","20","<div class=""flex flex-row stim-length pb-8 md:pd-20 justify-evenly items-center""><div class=""square""></div><div class=""square""></div><div class=""square""></div></div>","q","","matchness_test","match","方","q","true","match"
"","null","html-keynbutton-response","109","2.0.0","5322298","20","<div class=""pb-14 text-7xl"">+</div>","null","fixation","","","","","",""
"","431","html-keynbutton-response","110","2.0.0","5322730","20","<div class=""flex flex-row stim-length pb-8 md:pd-20 justify-evenly items-center""><div class=""square""></div><div class=""circle""></div><div class=""square""></div></div>","p","","matchness_test","mismatch","圆","p","true","mismatch"
"","null","html-keynbutton-response","111","2.0.0","5323231","20","<div class=""pb-14 text-7xl"">+</div>","null","fixation","","","","","",""
"","426","html-keynbutton-response","112","2.0.0","5323658","20","<div class=""flex flex-row stim-length pb-8 md:pd-20 justify-evenly items-center""><div class=""circle""></div><div class=""circle""></div><div class=""circle""></div></div>","q","","matchness_test","match","圆","q","true","match"
"","null","html-keynbutton-response","113","2.0.0","5324165","20","<div class=""pb-14 text-7xl"">+</div>","null","fixation","","","","","",""
"","372","html-keynbutton-response","114","2.0.0","5324538","20","<div class=""flex flex-row stim-length pb-8 md:pd-20 justify-evenly items-center""><div class=""circle""></div><div class=""square""></div><div class=""circle""></div></div>","p","","matchness_test","mismatch","方","p","true","mismatch"
"","null","html-keynbutton-response","115","2.0.0","5325046","20","<div class=""pb-14 text-7xl"">+</div>","null","fixation","","","","","",""
"","370","html-keynbutton-response","116","2.0.0","5325417","20","<div class=""flex flex-row stim-length pb-8 md:pd-20 justify-evenly items-center""><div class=""square""></div><div class=""circle""></div><div class=""square""></div></div>","p","","matchness_test","mismatch","圆","p","true","mismatch"
"","null","html-keynbutton-response","117","2.0.0","5325931","20","<div class=""pb-14 text-7xl"">+</div>","null","fixation","","","","","",""
"","414","html-keynbutton-response","118","2.0.0","5326346","20","<div class=""flex flex-row stim-length pb-8 md:pd-20 justify-evenly items-center""><div class=""circle""></div><div class=""circle""></div><div class=""circle""></div></div>","q","","matchness_test","match","圆","q","true","match"
"","null","html-keynbutton-response","119","2.0.0","5326849","20","<div class=""pb-14 text-7xl"">+</div>","null","fixation","","","","","",""
"","344","html-keynbutton-response","120","2.0.0","5327193","20","<div class=""flex flex-row stim-length pb-8 md:pd-20 justify-evenly items-center""><div class=""circle""></div><div class=""square""></div><div class=""circle""></div></div>","p","","matchness_test","mismatch","方","p","true","mismatch"
"","null","html-keynbutton-response","121","2.0.0","5327699","20","<div class=""pb-14 text-7xl"">+</div>","null","fixation","","","","","",""
"","421","html-keynbutton-response","122","2.0.0","5328121","20","<div class=""flex flex-row stim-length pb-8 md:pd-20 justify-evenly items-center""><div class=""square""></div><div class=""square""></div><div class=""square""></div></div>","q","","matchness_test","match","方","q","true","match"
"","null","html-keynbutton-response","123","2.0.0","5328631","20","<div class=""pb-14 text-7xl"">+</div>","null","fixation","","","","","",""
"","338","html-keynbutton-response","124","2.0.0","5328970","20","<div class=""flex flex-row stim-length pb-8 md:pd-20 justify-evenly items-center""><div class=""square""></div><div class=""circle""></div><div class=""square""></div></div>","p","","matchness_test","mismatch","圆","p","true","mismatch"
"","null","html-keynbutton-response","125","2.0.0","5329480","20","<div class=""pb-14 text-7xl"">+</div>","null","fixation","","","","","",""
"","433","html-keynbutton-response","126","2.0.0","5329914","20","<div class=""flex flex-row stim-length pb-8 md:pd-20 justify-evenly items-center""><div class=""square""></div><div class=""square""></div><div class=""square""></div></div>","q","","matchness_test","match","方","q","true","match"
"","null","html-keynbutton-response","127","2.0.0","5330415","20","<div class=""pb-14 text-7xl"">+</div>","null","fixation","","","","","",""
"","330","html-keynbutton-response","128","2.0.0","5330745","20","<div class=""flex flex-row stim-length pb-8 md:pd-20 justify-evenly items-center""><div class=""circle""></div><div class=""circle""></div><div class=""circle""></div></div>","p","","matchness_test","match","圆","q","false","mismatch"
"","null","html-keynbutton-response","129","2.0.0","5331249","20","<div class=""pb-14 text-7xl"">+</div>","null","fixation","","","","","",""
"","488","html-keynbutton-response","130","2.0.0","5331738","20","<div class=""flex flex-row stim-length pb-8 md:pd-20 justify-evenly items-center""><div class=""circle""></div><div class=""square""></div><div class=""circle""></div></div>","p","","matchness_test","mismatch","方","p","true","mismatch"
"","null","html-keynbutton-response","131","2.0.0","5332248","20","<div class=""pb-14 text-7xl"">+</div>","null","fixation","","","","","",""
"","417","html-keynbutton-response","132","2.0.0","5332666","20","<div class=""flex flex-row stim-length pb-8 md:pd-20 justify-evenly items-center""><div class=""square""></div><div class=""circle""></div><div class=""square""></div></div>","p","","matchness_test","mismatch","圆","p","true","mismatch"
"","null","html-keynbutton-response","133","2.0.0","5333180","20","<div class=""pb-14 text-7xl"">+</div>","null","fixation","","","","","",""
"","460","html-keynbutton-response","134","2.0.0","5333642","20","<div class=""flex flex-row stim-length pb-8 md:pd-20 justify-evenly items-center""><div class=""square""></div><div class=""square""></div><div class=""square""></div></div>","q","","matchness_test","match","方","q","true","match"
"","null","html-keynbutton-response","135","2.0.0","5334148","20","<div class=""pb-14 text-7xl"">+</div>","null","fixation","","","","","",""
"","421","html-keynbutton-response","136","2.0.0","5334570","20","<div class=""flex flex-row stim-length pb-8 md:pd-20 justify-evenly items-center""><div class=""circle""></div><div class=""circle""></div><div class=""circle""></div></div>","p","","matchness_test","match","圆","q","false","mismatch"
"","null","html-keynbutton-response","137","2.0.0","5335080","20","<div class=""pb-14 text-7xl"">+</div>","null","fixation","","","","","",""
"","496","html-keynbutton-response","138","2.0.0","5335578","20","<div class=""flex flex-row stim-length pb-8 md:pd-20 justify-evenly items-center""><div class=""circle""></div><div class=""square""></div><div class=""circle""></div></div>","p","","matchness_test","mismatch","方","p","true","mismatch"
"","null","html-keynbutton-response","139","2.0.0","5336081","20","<div class=""pb-14 text-7xl"">+</div>","null","fixation","","","","","",""
"","439","html-keynbutton-response","140","2.0.0","5336521","20","<div class=""flex flex-row stim-length pb-8 md:pd-20 justify-evenly items-center""><div class=""square""></div><div class=""square""></div><div class=""square""></div></div>","q","","matchness_test","match","方","q","true","match"
"","null","html-keynbutton-response","141","2.0.0","5337031","20","<div class=""pb-14 text-7xl"">+</div>","null","fixation","","","","","",""
"","466","html-keynbutton-response","142","2.0.0","5337498","20","<div class=""flex flex-row stim-length pb-8 md:pd-20 justify-evenly items-center""><div class=""circle""></div><div class=""square""></div><div class=""circle""></div></div>","p","","matchness_test","mismatch","方","p","true","mismatch"
"","null","html-keynbutton-response","143","2.0.0","5338014","20","<div class=""pb-14 text-7xl"">+</div>","null","fixation","","","","","",""
"","395","html-keynbutton-response","144","2.0.0","5338410","20","<div class=""flex flex-row stim-length pb-8 md:pd-20 justify-evenly items-center""><div class=""circle""></div><div class=""circle""></div><div class=""circle""></div></div>","q","","matchness_test","match","圆","q","true","match"
"","null","html-keynbutton-response","145","2.0.0","5338915","20","<div class=""pb-14 text-7xl"">+</div>","null","fixation","","","","","",""
"","389","html-keynbutton-response","146","2.0.0","5339306","20","<div class=""flex flex-row stim-length pb-8 md:pd-20 justify-evenly items-center""><div class=""square""></div><div class=""circle""></div><div class=""square""></div></div>","p","","matchness_test","mismatch","圆","p","true","mismatch"
"","5662","html-keynbutton-response","147","2.0.0","5344969","20","<div class=""jp""><p>您已完成1/10部分</p><p>请休息一会儿</p>
    <p>您的正确率是：93%</p>
    <p>您的平均反应时间是：451毫秒</p></div>"," ","block_feedback","","","","","",""
"","null","html-keynbutton-response","148","2.0.0","5348178","20","<count-down title=""""></count-down>","null","countDown_trial","","","","","",""
"","null","html-keynbutton-response","149","2.0.0","5348683","20","<div class=""pb-14 text-7xl"">+</div>","null","fixation","","","","","",""
"","415","html-keynbutton-response","150","2.0.0","5349098","20","<div class=""flex flex-row stim-length pb-8 md:pd-20 justify-evenly items-center""><div class=""square""></div><div class=""square""></div><div class=""square""></div></div>","q","","matchness_test_1","match","方","q","true","match"
"","null","html-keynbutton-response","151","2.0.0","5349614","20","<div class=""pb-14 text-7xl"">+</div>","null","fixation","","","","","",""
"","538","html-keynbutton-response","152","2.0.0","5350153","20","<div class=""flex flex-row stim-length pb-8 md:pd-20 justify-evenly items-center""><div class=""circle""></div><div class=""square""></div><div class=""circle""></div></div>","p","","matchness_test_1","mismatch","方","p","true","mismatch"
"","null","html-keynbutton-response","153","2.0.0","5350664","20","<div class=""pb-14 text-7xl"">+</div>","null","fixation","","","","","",""
"","465","html-keynbutton-response","154","2.0.0","5351130","20","<div class=""flex flex-row stim-length pb-8 md:pd-20 justify-evenly items-center""><div class=""circle""></div><div class=""circle""></div><div class=""circle""></div></div>","q","","matchness_test_1","match","圆","q","true","match"
"","null","html-keynbutton-response","155","2.0.0","5351631","20","<div class=""pb-14 text-7xl"">+</div>","null","fixation","","","","","",""
"","426","html-keynbutton-response","156","2.0.0","5352058","20","<div class=""flex flex-row stim-length pb-8 md:pd-20 justify-evenly items-center""><div class=""square""></div><div class=""circle""></div><div class=""square""></div></div>","p","","matchness_test_1","mismatch","圆","p","true","mismatch"
"","null","html-keynbutton-response","157","2.0.0","5352565","20","<div class=""pb-14 text-7xl"">+</div>","null","fixation","","","","","",""
"","371","html-keynbutton-response","158","2.0.0","5352938","20","<div class=""flex flex-row stim-length pb-8 md:pd-20 justify-evenly items-center""><div class=""square""></div><div class=""square""></div><div class=""square""></div></div>","q","","matchness_test_1","match","方","q","true","match"
"","null","html-keynbutton-response","159","2.0.0","5353446","20","<div class=""pb-14 text-7xl"">+</div>","null","fixation","","","","","",""
"","419","html-keynbutton-response","160","2.0.0","5353866","20","<div class=""flex flex-row stim-length pb-8 md:pd-20 justify-evenly items-center""><div class=""circle""></div><div class=""square""></div><div class=""circle""></div></div>","p","","matchness_test_1","mismatch","方","p","true","mismatch"
"","null","html-keynbutton-response","161","2.0.0","5354381","20","<div class=""pb-14 text-7xl"">+</div>","null","fixation","","","","","",""
"","572","html-keynbutton-response","162","2.0.0","5354954","20","<div class=""flex flex-row stim-length pb-8 md:pd-20 justify-evenly items-center""><div class=""square""></div><div class=""circle""></div><div class=""square""></div></div>","p","","matchness_test_1","mismatch","圆","p","true","mismatch"
"","null","html-keynbutton-response","163","2.0.0","5355464","20","<div class=""pb-14 text-7xl"">+</div>","null","fixation","","","","","",""
"","433","html-keynbutton-response","164","2.0.0","5355898","20","<div class=""flex flex-row stim-length pb-8 md:pd-20 justify-evenly items-center""><div class=""circle""></div><div class=""circle""></div><div class=""circle""></div></div>","q","","matchness_test_1","match","圆","q","true","match"
"","null","html-keynbutton-response","165","2.0.0","5356414","20","<div class=""pb-14 text-7xl"">+</div>","null","fixation","","","","","",""
"","411","html-keynbutton-response","166","2.0.0","5356826","20","<div class=""flex flex-row stim-length pb-8 md:pd-20 justify-evenly items-center""><div class=""circle""></div><div class=""circle""></div><div class=""circle""></div></div>","q","","matchness_test_1","match","圆","q","true","match"
"","null","html-keynbutton-response","167","2.0.0","5357332","20","<div class=""pb-14 text-7xl"">+</div>","null","fixation","","","","","",""
"","404","html-keynbutton-response","168","2.0.0","5357737","20","<div class=""flex flex-row stim-length pb-8 md:pd-20 justify-evenly items-center""><div class=""circle""></div><div class=""square""></div><div class=""circle""></div></div>","p","","matchness_test_1","mismatch","方","p","true","mismatch"
"","null","html-keynbutton-response","169","2.0.0","5358248","20","<div class=""pb-14 text-7xl"">+</div>","null","fixation","","","","","",""
"","434","html-keynbutton-response","170","2.0.0","5358682","20","<div class=""flex flex-row stim-length pb-8 md:pd-20 justify-evenly items-center""><div class=""square""></div><div class=""square""></div><div class=""square""></div></div>","q","","matchness_test_1","match","方","q","true","match"
"","null","html-keynbutton-response","171","2.0.0","5359197","20","<div class=""pb-14 text-7xl"">+</div>","null","fixation","","","","","",""
"","428","html-keynbutton-response","172","2.0.0","5359626","20","<div class=""flex flex-row stim-length pb-8 md:pd-20 justify-evenly items-center""><div class=""square""></div><div class=""circle""></div><div class=""square""></div></div>","p","","matchness_test_1","mismatch","圆","p","true","mismatch"
"","null","html-keynbutton-response","173","2.0.0","5360133","20","<div class=""pb-14 text-7xl"">+</div>","null","fixation","","","","","",""
"","483","html-keynbutton-response","174","2.0.0","5360617","20","<div class=""flex flex-row stim-length pb-8 md:pd-20 justify-evenly items-center""><div class=""circle""></div><div class=""square""></div><div class=""circle""></div></div>","p","","matchness_test_1","mismatch","方","p","true","mismatch"
"","null","html-keynbutton-response","175","2.0.0","5361131","20","<div class=""pb-14 text-7xl"">+</div>","null","fixation","","","","","",""
"","478","html-keynbutton-response","176","2.0.0","5361600","20","<div class=""flex flex-row stim-length pb-8 md:pd-20 justify-evenly items-center""><div class=""circle""></div><div class=""circle""></div><div class=""circle""></div></div>","q","","matchness_test_1","match","圆","q","true","match"
"","null","html-keynbutton-response","177","2.0.0","5362106","20","<div class=""pb-14 text-7xl"">+</div>","null","fixation","","","","","",""
"","356","html-keynbutton-response","178","2.0.0","5362463","20","<div class=""flex flex-row stim-length pb-8 md:pd-20 justify-evenly items-center""><div class=""square""></div><div class=""circle""></div><div class=""square""></div></div>","p","","matchness_test_1","mismatch","圆","p","true","mismatch"
"","null","html-keynbutton-response","179","2.0.0","5362971","20","<div class=""pb-14 text-7xl"">+</div>","null","fixation","","","","","",""
"","468","html-keynbutton-response","180","2.0.0","5363440","20","<div class=""flex flex-row stim-length pb-8 md:pd-20 justify-evenly items-center""><div class=""square""></div><div class=""square""></div><div class=""square""></div></div>","q","","matchness_test_1","match","方","q","true","match"
"","null","html-keynbutton-response","181","2.0.0","5363954","20","<div class=""pb-14 text-7xl"">+</div>","null","fixation","","","","","",""
"","396","html-keynbutton-response","182","2.0.0","5364352","20","<div class=""flex flex-row stim-length pb-8 md:pd-20 justify-evenly items-center""><div class=""square""></div><div class=""circle""></div><div class=""square""></div></div>","p","","matchness_test_1","mismatch","圆","p","true","mismatch"
"","null","html-keynbutton-response","183","2.0.0","5364855","20","<div class=""pb-14 text-7xl"">+</div>","null","fixation","","","","","",""
"","408","html-keynbutton-response","184","2.0.0","5365264","20","<div class=""flex flex-row stim-length pb-8 md:pd-20 justify-evenly items-center""><div class=""square""></div><div class=""square""></div><div class=""square""></div></div>","q","","matchness_test_1","match","方","q","true","match"
"","null","html-keynbutton-response","185","2.0.0","5365771","20","<div class=""pb-14 text-7xl"">+</div>","null","fixation","","","","","",""
"","548","html-keynbutton-response","186","2.0.0","5366320","20","<div class=""flex flex-row stim-length pb-8 md:pd-20 justify-evenly items-center""><div class=""circle""></div><div class=""circle""></div><div class=""circle""></div></div>","q","","matchness_test_1","match","圆","q","true","match"
"","null","html-keynbutton-response","187","2.0.0","5366822","20","<div class=""pb-14 text-7xl"">+</div>","null","fixation","","","","","",""
"","378","html-keynbutton-response","188","2.0.0","5367200","20","<div class=""flex flex-row stim-length pb-8 md:pd-20 justify-evenly items-center""><div class=""circle""></div><div class=""square""></div><div class=""circle""></div></div>","p","","matchness_test_1","mismatch","方","p","true","mismatch"
"","null","html-keynbutton-response","189","2.0.0","5367705","20","<div class=""pb-14 text-7xl"">+</div>","null","fixation","","","","","",""
"","390","html-keynbutton-response","190","2.0.0","5368095","20","<div class=""flex flex-row stim-length pb-8 md:pd-20 justify-evenly items-center""><div class=""square""></div><div class=""square""></div><div class=""square""></div></div>","q","","matchness_test_1","match","方","q","true","match"
"","null","html-keynbutton-response","191","2.0.0","5368604","20","<div class=""pb-14 text-7xl"">+</div>","null","fixation","","","","","",""
"","418","html-keynbutton-response","192","2.0.0","5369022","20","<div class=""flex flex-row stim-length pb-8 md:pd-20 justify-evenly items-center""><div class=""circle""></div><div class=""square""></div><div class=""circle""></div></div>","p","","matchness_test_1","mismatch","方","p","true","mismatch"
"","null","html-keynbutton-response","193","2.0.0","5369537","20","<div class=""pb-14 text-7xl"">+</div>","null","fixation","","","","","",""
"","398","html-keynbutton-response","194","2.0.0","5369936","20","<div class=""flex flex-row stim-length pb-8 md:pd-20 justify-evenly items-center""><div class=""circle""></div><div class=""circle""></div><div class=""circle""></div></div>","q","","matchness_test_1","match","圆","q","true","match"
"","null","html-keynbutton-response","195","2.0.0","5370438","20","<div class=""pb-14 text-7xl"">+</div>","null","fixation","","","","","",""
"","505","html-keynbutton-response","196","2.0.0","5370944","20","<div class=""flex flex-row stim-length pb-8 md:pd-20 justify-evenly items-center""><div class=""square""></div><div class=""circle""></div><div class=""square""></div></div>","p","","matchness_test_1","mismatch","圆","p","true","mismatch"
"","null","html-keynbutton-response","197","2.0.0","5371452","20","<div class=""pb-14 text-7xl"">+</div>","null","fixation","","","","","",""
"","562","html-keynbutton-response","198","2.0.0","5372016","20","<div class=""flex flex-row stim-length pb-8 md:pd-20 justify-evenly items-center""><div class=""circle""></div><div class=""square""></div><div class=""circle""></div></div>","p","","matchness_test_1","mismatch","方","p","true","mismatch"
"","null","html-keynbutton-response","199","2.0.0","5372522","20","<div class=""pb-14 text-7xl"">+</div>","null","fixation","","","","","",""
"","564","html-keynbutton-response","200","2.0.0","5373088","20","<div class=""flex flex-row stim-length pb-8 md:pd-20 justify-evenly items-center""><div class=""square""></div><div class=""circle""></div><div class=""square""></div></div>","p","","matchness_test_1","mismatch","圆","p","true","mismatch"
"","null","html-keynbutton-response","201","2.0.0","5373604","20","<div class=""pb-14 text-7xl"">+</div>","null","fixation","","","","","",""
"","443","html-keynbutton-response","202","2.0.0","5374048","20","<div class=""flex flex-row stim-length pb-8 md:pd-20 justify-evenly items-center""><div class=""circle""></div><div class=""circle""></div><div class=""circle""></div></div>","q","","matchness_test_1","match","圆","q","true","match"
"","null","html-keynbutton-response","203","2.0.0","5374555","20","<div class=""pb-14 text-7xl"">+</div>","null","fixation","","","","","",""
"","580","html-keynbutton-response","204","2.0.0","5375136","20","<div class=""flex flex-row stim-length pb-8 md:pd-20 justify-evenly items-center""><div class=""square""></div><div class=""square""></div><div class=""square""></div></div>","q","","matchness_test_1","match","方","q","true","match"
"","null","html-keynbutton-response","205","2.0.0","5375642","20","<div class=""pb-14 text-7xl"">+</div>","null","fixation","","","","","",""
"","485","html-keynbutton-response","206","2.0.0","5376128","20","<div class=""flex flex-row stim-length pb-8 md:pd-20 justify-evenly items-center""><div class=""square""></div><div class=""square""></div><div class=""square""></div></div>","q","","matchness_test_1","match","方","q","true","match"
"","null","html-keynbutton-response","207","2.0.0","5376637","20","<div class=""pb-14 text-7xl"">+</div>","null","fixation","","","","","",""
"","514","html-keynbutton-response","208","2.0.0","5377152","20","<div class=""flex flex-row stim-length pb-8 md:pd-20 justify-evenly items-center""><div class=""circle""></div><div class=""square""></div><div class=""circle""></div></div>","p","","matchness_test_1","mismatch","方","p","true","mismatch"
"","null","html-keynbutton-response","209","2.0.0","5377655","20","<div class=""pb-14 text-7xl"">+</div>","null","fixation","","","","","",""
"","440","html-keynbutton-response","210","2.0.0","5378096","20","<div class=""flex flex-row stim-length pb-8 md:pd-20 justify-evenly items-center""><div class=""circle""></div><div class=""circle""></div><div class=""circle""></div></div>","q","","matchness_test_1","match","圆","q","true","match"
"","null","html-keynbutton-response","211","2.0.0","5378603","20","<div class=""pb-14 text-7xl"">+</div>","null","fixation","","","","","",""
"","372","html-keynbutton-response","212","2.0.0","5378976","20","<div class=""flex flex-row stim-length pb-8 md:pd-20 justify-evenly items-center""><div class=""square""></div><div class=""circle""></div><div class=""square""></div></div>","p","","matchness_test_1","mismatch","圆","p","true","mismatch"
"","null","html-keynbutton-response","213","2.0.0","5379488","20","<div class=""pb-14 text-7xl"">+</div>","null","fixation","","","","","",""
"","463","html-keynbutton-response","214","2.0.0","5379952","20","<div class=""flex flex-row stim-length pb-8 md:pd-20 justify-evenly items-center""><div class=""square""></div><div class=""circle""></div><div class=""square""></div></div>","p","","matchness_test_1","mismatch","圆","p","true","mismatch"
"","null","html-keynbutton-response","215","2.0.0","5380455","20","<div class=""pb-14 text-7xl"">+</div>","null","fixation","","","","","",""
"","616","html-keynbutton-response","216","2.0.0","5381072","20","<div class=""flex flex-row stim-length pb-8 md:pd-20 justify-evenly items-center""><div class=""square""></div><div class=""square""></div><div class=""square""></div></div>","q","","matchness_test_1","match","方","q","true","match"
"","null","html-keynbutton-response","217","2.0.0","5381588","20","<div class=""pb-14 text-7xl"">+</div>","null","fixation","","","","","",""
"","475","html-keynbutton-response","218","2.0.0","5382064","20","<div class=""flex flex-row stim-length pb-8 md:pd-20 justify-evenly items-center""><div class=""circle""></div><div class=""circle""></div><div class=""circle""></div></div>","q","","matchness_test_1","match","圆","q","true","match"
"","null","html-keynbutton-response","219","2.0.0","5382571","20","<div class=""pb-14 text-7xl"">+</div>","null","fixation","","","","","",""
"","451","html-keynbutton-response","220","2.0.0","5383024","20","<div class=""flex flex-row stim-length pb-8 md:pd-20 justify-evenly items-center""><div class=""circle""></div><div class=""square""></div><div class=""circle""></div></div>","p","","matchness_test_1","mismatch","方","p","true","mismatch"
"","null","html-keynbutton-response","221","2.0.0","5383537","20","<div class=""pb-14 text-7xl"">+</div>","null","fixation","","","","","",""
"","429","html-keynbutton-response","222","2.0.0","5383967","20","<div class=""flex flex-row stim-length pb-8 md:pd-20 justify-evenly items-center""><div class=""circle""></div><div class=""circle""></div><div class=""circle""></div></div>","q","","matchness_test_1","match","圆","q","true","match"
"","null","html-keynbutton-response","223","2.0.0","5384473","20","<div class=""pb-14 text-7xl"">+</div>","null","fixation","","","","","",""
"","358","html-keynbutton-response","224","2.0.0","5384832","20","<div class=""flex flex-row stim-length pb-8 md:pd-20 justify-evenly items-center""><div class=""circle""></div><div class=""square""></div><div class=""circle""></div></div>","p","","matchness_test_1","mismatch","方","p","true","mismatch"
"","null","html-keynbutton-response","225","2.0.0","5385338","20","<div class=""pb-14 text-7xl"">+</div>","null","fixation","","","","","",""
"","389","html-keynbutton-response","226","2.0.0","5385728","20","<div class=""flex flex-row stim-length pb-8 md:pd-20 justify-evenly items-center""><div class=""square""></div><div class=""square""></div><div class=""square""></div></div>","q","","matchness_test_1","match","方","q","true","match"
"","null","html-keynbutton-response","227","2.0.0","5386236","20","<div class=""pb-14 text-7xl"">+</div>","null","fixation","","","","","",""
"","435","html-keynbutton-response","228","2.0.0","5386672","20","<div class=""flex flex-row stim-length pb-8 md:pd-20 justify-evenly items-center""><div class=""square""></div><div class=""circle""></div><div class=""square""></div></div>","p","","matchness_test_1","mismatch","圆","p","true","mismatch"
"","3198","html-keynbutton-response","229","2.0.0","5389872","20","<div class=""jp""><p>您已完成2/10部分</p><p>请休息一会儿</p>
    <p>您的正确率是：100%</p>
    <p>您的平均反应时间是：453毫秒</p></div>"," ","block_feedback","","","","","",""
"","null","html-keynbutton-response","230","2.0.0","5393084","20","<count-down title=""""></count-down>","null","countDown_trial","","","","","",""
"","null","html-keynbutton-response","231","2.0.0","5393588","20","<div class=""pb-14 text-7xl"">+</div>","null","fixation","","","","","",""
"","394","html-keynbutton-response","232","2.0.0","5393984","20","<div class=""flex flex-row stim-length pb-8 md:pd-20 justify-evenly items-center""><div class=""circle""></div><div class=""circle""></div><div class=""circle""></div></div>","q","","matchness_test_2","match","圆","q","true","match"
"","null","html-keynbutton-response","233","2.0.0","5394490","20","<div class=""pb-14 text-7xl"">+</div>","null","fixation","","","","","",""
"","388","html-keynbutton-response","234","2.0.0","5394879","20","<div class=""flex flex-row stim-length pb-8 md:pd-20 justify-evenly items-center""><div class=""circle""></div><div class=""square""></div><div class=""circle""></div></div>","p","","matchness_test_2","mismatch","方","p","true","mismatch"
"","null","html-keynbutton-response","235","2.0.0","5395388","20","<div class=""pb-14 text-7xl"">+</div>","null","fixation","","","","","",""
"","355","html-keynbutton-response","236","2.0.0","5395744","20","<div class=""flex flex-row stim-length pb-8 md:pd-20 justify-evenly items-center""><div class=""square""></div><div class=""square""></div><div class=""square""></div></div>","q","","matchness_test_2","match","方","q","true","match"
"","null","html-keynbutton-response","237","2.0.0","5396254","20","<div class=""pb-14 text-7xl"">+</div>","null","fixation","","","","","",""
"","401","html-keynbutton-response","238","2.0.0","5396656","20","<div class=""flex flex-row stim-length pb-8 md:pd-20 justify-evenly items-center""><div class=""square""></div><div class=""circle""></div><div class=""square""></div></div>","p","","matchness_test_2","mismatch","圆","p","true","mismatch"
"","null","html-keynbutton-response","239","2.0.0","5397171","20","<div class=""pb-14 text-7xl"">+</div>","null","fixation","","","","","",""
"","412","html-keynbutton-response","240","2.0.0","5397584","20","<div class=""flex flex-row stim-length pb-8 md:pd-20 justify-evenly items-center""><div class=""square""></div><div class=""circle""></div><div class=""square""></div></div>","q","","matchness_test_2","mismatch","圆","p","false","match"
"","null","html-keynbutton-response","241","2.0.0","5398088","20","<div class=""pb-14 text-7xl"">+</div>","null","fixation","","","","","",""
"","440","html-keynbutton-response","242","2.0.0","5398528","20","<div class=""flex flex-row stim-length pb-8 md:pd-20 justify-evenly items-center""><div class=""circle""></div><div class=""circle""></div><div class=""circle""></div></div>","p","","matchness_test_2","match","圆","q","false","mismatch"
"","null","html-keynbutton-response","243","2.0.0","5399037","20","<div class=""pb-14 text-7xl"">+</div>","null","fixation","","","","","",""
"","466","html-keynbutton-response","244","2.0.0","5399504","20","<div class=""flex flex-row stim-length pb-8 md:pd-20 justify-evenly items-center""><div class=""circle""></div><div class=""square""></div><div class=""circle""></div></div>","p","","matchness_test_2","mismatch","方","p","true","mismatch"
"","null","html-keynbutton-response","245","2.0.0","5400005","20","<div class=""pb-14 text-7xl"">+</div>","null","fixation","","","","","",""
"","426","html-keynbutton-response","246","2.0.0","5400432","20","<div class=""flex flex-row stim-length pb-8 md:pd-20 justify-evenly items-center""><div class=""square""></div><div class=""square""></div><div class=""square""></div></div>","q","","matchness_test_2","match","方","q","true","match"
"","null","html-keynbutton-response","247","2.0.0","5400938","20","<div class=""pb-14 text-7xl"">+</div>","null","fixation","","","","","",""
"","660","html-keynbutton-response","248","2.0.0","5401600","20","<div class=""flex flex-row stim-length pb-8 md:pd-20 justify-evenly items-center""><div class=""circle""></div><div class=""square""></div><div class=""circle""></div></div>","p","","matchness_test_2","mismatch","方","p","true","mismatch"
"","null","html-keynbutton-response","249","2.0.0","5402105","20","<div class=""pb-14 text-7xl"">+</div>","null","fixation","","","","","",""
"","374","html-keynbutton-response","250","2.0.0","5402480","20","<div class=""flex flex-row stim-length pb-8 md:pd-20 justify-evenly items-center""><div class=""square""></div><div class=""square""></div><div class=""square""></div></div>","q","","matchness_test_2","match","方","q","true","match"
"","null","html-keynbutton-response","251","2.0.0","5402987","20","<div class=""pb-14 text-7xl"">+</div>","null","fixation","","","","","",""
"","372","html-keynbutton-response","252","2.0.0","5403360","20","<div class=""flex flex-row stim-length pb-8 md:pd-20 justify-evenly items-center""><div class=""circle""></div><div class=""circle""></div><div class=""circle""></div></div>","p","","matchness_test_2","match","圆","q","false","mismatch"
"","null","html-keynbutton-response","253","2.0.0","5403871","20","<div class=""pb-14 text-7xl"">+</div>","null","fixation","","","","","",""
"","688","html-keynbutton-response","254","2.0.0","5404560","20","<div class=""flex flex-row stim-length pb-8 md:pd-20 justify-evenly items-center""><div class=""square""></div><div class=""circle""></div><div class=""square""></div></div>","p","","matchness_test_2","mismatch","圆","p","true","mismatch"
"","null","html-keynbutton-response","255","2.0.0","5405071","20","<div class=""pb-14 text-7xl"">+</div>","null","fixation","","","","","",""
"","400","html-keynbutton-response","256","2.0.0","5405472","20","<div class=""flex flex-row stim-length pb-8 md:pd-20 justify-evenly items-center""><div class=""circle""></div><div class=""circle""></div><div class=""circle""></div></div>","q","","matchness_test_2","match","圆","q","true","match"
"","null","html-keynbutton-response","257","2.0.0","5405987","20","<div class=""pb-14 text-7xl"">+</div>","null","fixation","","","","","",""
"","363","html-keynbutton-response","258","2.0.0","5406352","20","<div class=""flex flex-row stim-length pb-8 md:pd-20 justify-evenly items-center""><div class=""square""></div><div class=""square""></div><div class=""square""></div></div>","q","","matchness_test_2","match","方","q","true","match"
"","null","html-keynbutton-response","259","2.0.0","5406855","20","<div class=""pb-14 text-7xl"">+</div>","null","fixation","","","","","",""
"","440","html-keynbutton-response","260","2.0.0","5407296","20","<div class=""flex flex-row stim-length pb-8 md:pd-20 justify-evenly items-center""><div class=""circle""></div><div class=""square""></div><div class=""circle""></div></div>","p","","matchness_test_2","mismatch","方","p","true","mismatch"
"","null","html-keynbutton-response","261","2.0.0","5407804","20","<div class=""pb-14 text-7xl"">+</div>","null","fixation","","","","","",""
"","563","html-keynbutton-response","262","2.0.0","5408368","20","<div class=""flex flex-row stim-length pb-8 md:pd-20 justify-evenly items-center""><div class=""square""></div><div class=""circle""></div><div class=""square""></div></div>","p","","matchness_test_2","mismatch","圆","p","true","mismatch"
"","null","html-keynbutton-response","263","2.0.0","5408872","20","<div class=""pb-14 text-7xl"">+</div>","null","fixation","","","","","",""
"","551","html-keynbutton-response","264","2.0.0","5409424","20","<div class=""flex flex-row stim-length pb-8 md:pd-20 justify-evenly items-center""><div class=""circle""></div><div class=""square""></div><div class=""circle""></div></div>","p","","matchness_test_2","mismatch","方","p","true","mismatch"
"","null","html-keynbutton-response","265","2.0.0","5409925","20","<div class=""pb-14 text-7xl"">+</div>","null","fixation","","","","","",""
"","474","html-keynbutton-response","266","2.0.0","5410400","20","<div class=""flex flex-row stim-length pb-8 md:pd-20 justify-evenly items-center""><div class=""circle""></div><div class=""circle""></div><div class=""circle""></div></div>","q","","matchness_test_2","match","圆","q","true","match"
"","null","html-keynbutton-response","267","2.0.0","5410907","20","<div class=""pb-14 text-7xl"">+</div>","null","fixation","","","","","",""
"","371","html-keynbutton-response","268","2.0.0","5411279","20","<div class=""flex flex-row stim-length pb-8 md:pd-20 justify-evenly items-center""><div class=""square""></div><div class=""square""></div><div class=""square""></div></div>","q","","matchness_test_2","match","方","q","true","match"
"","null","html-keynbutton-response","269","2.0.0","5411787","20","<div class=""pb-14 text-7xl"">+</div>","null","fixation","","","","","",""
"","435","html-keynbutton-response","270","2.0.0","5412223","20","<div class=""flex flex-row stim-length pb-8 md:pd-20 justify-evenly items-center""><div class=""square""></div><div class=""circle""></div><div class=""square""></div></div>","p","","matchness_test_2","mismatch","圆","p","true","mismatch"
"","null","html-keynbutton-response","271","2.0.0","5412738","20","<div class=""pb-14 text-7xl"">+</div>","null","fixation","","","","","",""
"","492","html-keynbutton-response","272","2.0.0","5413231","20","<div class=""flex flex-row stim-length pb-8 md:pd-20 justify-evenly items-center""><div class=""square""></div><div class=""square""></div><div class=""square""></div></div>","q","","matchness_test_2","match","方","q","true","match"
"","null","html-keynbutton-response","273","2.0.0","5413738","20","<div class=""pb-14 text-7xl"">+</div>","null","fixation","","","","","",""
"","373","html-keynbutton-response","274","2.0.0","5414112","20","<div class=""flex flex-row stim-length pb-8 md:pd-20 justify-evenly items-center""><div class=""circle""></div><div class=""circle""></div><div class=""circle""></div></div>","q","","matchness_test_2","match","圆","q","true","match"
"","null","html-keynbutton-response","275","2.0.0","5414619","20","<div class=""pb-14 text-7xl"">+</div>","null","fixation","","","","","",""
"","404","html-keynbutton-response","276","2.0.0","5415024","20","<div class=""flex flex-row stim-length pb-8 md:pd-20 justify-evenly items-center""><div class=""circle""></div><div class=""square""></div><div class=""circle""></div></div>","p","","matchness_test_2","mismatch","方","p","true","mismatch"
"","null","html-keynbutton-response","277","2.0.0","5415537","20","<div class=""pb-14 text-7xl"">+</div>","null","fixation","","","","","",""
"","414","html-keynbutton-response","278","2.0.0","5415952","20","<div class=""flex flex-row stim-length pb-8 md:pd-20 justify-evenly items-center""><div class=""square""></div><div class=""circle""></div><div class=""square""></div></div>","p","","matchness_test_2","mismatch","圆","p","true","mismatch"
"","null","html-keynbutton-response","279","2.0.0","5416455","20","<div class=""pb-14 text-7xl"">+</div>","null","fixation","","","","","",""
"","471","html-keynbutton-response","280","2.0.0","5416928","20","<div class=""flex flex-row stim-length pb-8 md:pd-20 justify-evenly items-center""><div class=""square""></div><div class=""circle""></div><div class=""square""></div></div>","p","","matchness_test_2","mismatch","圆","p","true","mismatch"
"","null","html-keynbutton-response","281","2.0.0","5417437","20","<div class=""pb-14 text-7xl"">+</div>","null","fixation","","","","","",""
"","371","html-keynbutton-response","282","2.0.0","5417808","20","<div class=""flex flex-row stim-length pb-8 md:pd-20 justify-evenly items-center""><div class=""circle""></div><div class=""circle""></div><div class=""circle""></div></div>","q","","matchness_test_2","match","圆","q","true","match"
"","null","html-keynbutton-response","283","2.0.0","5418321","20","<div class=""pb-14 text-7xl"">+</div>","null","fixation","","","","","",""
"","398","html-keynbutton-response","284","2.0.0","5418720","20","<div class=""flex flex-row stim-length pb-8 md:pd-20 justify-evenly items-center""><div class=""circle""></div><div class=""square""></div><div class=""circle""></div></div>","p","","matchness_test_2","mismatch","方","p","true","mismatch"
"","null","html-keynbutton-response","285","2.0.0","5419222","20","<div class=""pb-14 text-7xl"">+</div>","null","fixation","","","","","",""
"","345","html-keynbutton-response","286","2.0.0","5419568","20","<div class=""flex flex-row stim-length pb-8 md:pd-20 justify-evenly items-center""><div class=""square""></div><div class=""square""></div><div class=""square""></div></div>","q","","matchness_test_2","match","方","q","true","match"
"","null","html-keynbutton-response","287","2.0.0","5420071","20","<div class=""pb-14 text-7xl"">+</div>","null","fixation","","","","","",""
"","408","html-keynbutton-response","288","2.0.0","5420480","20","<div class=""flex flex-row stim-length pb-8 md:pd-20 justify-evenly items-center""><div class=""square""></div><div class=""square""></div><div class=""square""></div></div>","q","","matchness_test_2","match","方","q","true","match"
"","null","html-keynbutton-response","289","2.0.0","5420987","20","<div class=""pb-14 text-7xl"">+</div>","null","fixation","","","","","",""
"","388","html-keynbutton-response","290","2.0.0","5421376","20","<div class=""flex flex-row stim-length pb-8 md:pd-20 justify-evenly items-center""><div class=""circle""></div><div class=""square""></div><div class=""circle""></div></div>","p","","matchness_test_2","mismatch","方","p","true","mismatch"
"","null","html-keynbutton-response","291","2.0.0","5421897","20","<div class=""pb-14 text-7xl"">+</div>","null","fixation","","","","","",""
"","415","html-keynbutton-response","292","2.0.0","5422313","20","<div class=""flex flex-row stim-length pb-8 md:pd-20 justify-evenly items-center""><div class=""square""></div><div class=""circle""></div><div class=""square""></div></div>","p","","matchness_test_2","mismatch","圆","p","true","mismatch"
"","null","html-keynbutton-response","293","2.0.0","5422815","20","<div class=""pb-14 text-7xl"">+</div>","null","fixation","","","","","",""
"","442","html-keynbutton-response","294","2.0.0","5423258","20","<div class=""flex flex-row stim-length pb-8 md:pd-20 justify-evenly items-center""><div class=""circle""></div><div class=""circle""></div><div class=""circle""></div></div>","q","","matchness_test_2","match","圆","q","true","match"
"","null","html-keynbutton-response","295","2.0.0","5423765","20","<div class=""pb-14 text-7xl"">+</div>","null","fixation","","","","","",""
"","340","html-keynbutton-response","296","2.0.0","5424106","20","<div class=""flex flex-row stim-length pb-8 md:pd-20 justify-evenly items-center""><div class=""square""></div><div class=""square""></div><div class=""square""></div></div>","p","","matchness_test_2","match","方","q","false","mismatch"
"","null","html-keynbutton-response","297","2.0.0","5424614","20","<div class=""pb-14 text-7xl"">+</div>","null","fixation","","","","","",""
"","595","html-keynbutton-response","298","2.0.0","5425210","20","<div class=""flex flex-row stim-length pb-8 md:pd-20 justify-evenly items-center""><div class=""square""></div><div class=""circle""></div><div class=""square""></div></div>","p","","matchness_test_2","mismatch","圆","p","true","mismatch"
"","null","html-keynbutton-response","299","2.0.0","5425716","20","<div class=""pb-14 text-7xl"">+</div>","null","fixation","","","","","",""
"","437","html-keynbutton-response","300","2.0.0","5426153","20","<div class=""flex flex-row stim-length pb-8 md:pd-20 justify-evenly items-center""><div class=""circle""></div><div class=""circle""></div><div class=""circle""></div></div>","q","","matchness_test_2","match","圆","q","true","match"
"","null","html-keynbutton-response","301","2.0.0","5426663","20","<div class=""pb-14 text-7xl"">+</div>","null","fixation","","","","","",""
"","449","html-keynbutton-response","302","2.0.0","5427114","20","<div class=""flex flex-row stim-length pb-8 md:pd-20 justify-evenly items-center""><div class=""circle""></div><div class=""square""></div><div class=""circle""></div></div>","p","","matchness_test_2","mismatch","方","p","true","mismatch"
"","null","html-keynbutton-response","303","2.0.0","5427615","20","<div class=""pb-14 text-7xl"">+</div>","null","fixation","","","","","",""
"","410","html-keynbutton-response","304","2.0.0","5428026","20","<div class=""flex flex-row stim-length pb-8 md:pd-20 justify-evenly items-center""><div class=""square""></div><div class=""square""></div><div class=""square""></div></div>","q","","matchness_test_2","match","方","q","true","match"
"","null","html-keynbutton-response","305","2.0.0","5428532","20","<div class=""pb-14 text-7xl"">+</div>","null","fixation","","","","","",""
"","421","html-keynbutton-response","306","2.0.0","5428954","20","<div class=""flex flex-row stim-length pb-8 md:pd-20 justify-evenly items-center""><div class=""circle""></div><div class=""circle""></div><div class=""circle""></div></div>","p","","matchness_test_2","match","圆","q","false","mismatch"
"","null","html-keynbutton-response","307","2.0.0","5429464","20","<div class=""pb-14 text-7xl"">+</div>","null","fixation","","","","","",""
"","737","html-keynbutton-response","308","2.0.0","5430201","20","<div class=""flex flex-row stim-length pb-8 md:pd-20 justify-evenly items-center""><div class=""circle""></div><div class=""square""></div><div class=""circle""></div></div>","p","","matchness_test_2","mismatch","方","p","true","mismatch"
"","null","html-keynbutton-response","309","2.0.0","5430714","20","<div class=""pb-14 text-7xl"">+</div>","null","fixation","","","","","",""
"","431","html-keynbutton-response","310","2.0.0","5431146","20","<div class=""flex flex-row stim-length pb-8 md:pd-20 justify-evenly items-center""><div class=""square""></div><div class=""circle""></div><div class=""square""></div></div>","p","","matchness_test_2","mismatch","圆","p","true","mismatch"
"","1214","html-keynbutton-response","311","2.0.0","5432362","20","<div class=""jp""><p>您已完成3/10部分</p><p>请休息一会儿</p>
    <p>您的正确率是：88%</p>
    <p>您的平均反应时间是：443毫秒</p></div>"," ","block_feedback","","","","","",""
"","null","html-keynbutton-response","312","2.0.0","5435578","20","<count-down title=""""></count-down>","null","countDown_trial","","","","","",""
"","null","html-keynbutton-response","313","2.0.0","5436082","20","<div class=""pb-14 text-7xl"">+</div>","null","fixation","","","","","",""
"","519","html-keynbutton-response","314","2.0.0","5436601","20","<div class=""flex flex-row stim-length pb-8 md:pd-20 justify-evenly items-center""><div class=""square""></div><div class=""circle""></div><div class=""square""></div></div>","p","","matchness_test_3","mismatch","圆","p","true","mismatch"
"","null","html-keynbutton-response","315","2.0.0","5437114","20","<div class=""pb-14 text-7xl"">+</div>","null","fixation","","","","","",""
"","399","html-keynbutton-response","316","2.0.0","5437513","20","<div class=""flex flex-row stim-length pb-8 md:pd-20 justify-evenly items-center""><div class=""square""></div><div class=""square""></div><div class=""square""></div></div>","q","","matchness_test_3","match","方","q","true","match"
"","null","html-keynbutton-response","317","2.0.0","5438015","20","<div class=""pb-14 text-7xl"">+</div>","null","fixation","","","","","",""
"","474","html-keynbutton-response","318","2.0.0","5438490","20","<div class=""flex flex-row stim-length pb-8 md:pd-20 justify-evenly items-center""><div class=""circle""></div><div class=""circle""></div><div class=""circle""></div></div>","q","","matchness_test_3","match","圆","q","true","match"
"","null","html-keynbutton-response","319","2.0.0","5438995","20","<div class=""pb-14 text-7xl"">+</div>","null","fixation","","","","","",""
"","421","html-keynbutton-response","320","2.0.0","5439418","20","<div class=""flex flex-row stim-length pb-8 md:pd-20 justify-evenly items-center""><div class=""circle""></div><div class=""square""></div><div class=""circle""></div></div>","p","","matchness_test_3","mismatch","方","p","true","mismatch"
"","null","html-keynbutton-response","321","2.0.0","5439931","20","<div class=""pb-14 text-7xl"">+</div>","null","fixation","","","","","",""
"","446","html-keynbutton-response","322","2.0.0","5440378","20","<div class=""flex flex-row stim-length pb-8 md:pd-20 justify-evenly items-center""><div class=""circle""></div><div class=""circle""></div><div class=""circle""></div></div>","q","","matchness_test_3","match","圆","q","true","match"
"","null","html-keynbutton-response","323","2.0.0","5440882","20","<div class=""pb-14 text-7xl"">+</div>","null","fixation","","","","","",""
"","376","html-keynbutton-response","324","2.0.0","5441258","20","<div class=""flex flex-row stim-length pb-8 md:pd-20 justify-evenly items-center""><div class=""circle""></div><div class=""square""></div><div class=""circle""></div></div>","p","","matchness_test_3","mismatch","方","p","true","mismatch"
"","null","html-keynbutton-response","325","2.0.0","5441765","20","<div class=""pb-14 text-7xl"">+</div>","null","fixation","","","","","",""
"","420","html-keynbutton-response","326","2.0.0","5442186","20","<div class=""flex flex-row stim-length pb-8 md:pd-20 justify-evenly items-center""><div class=""square""></div><div class=""square""></div><div class=""square""></div></div>","q","","matchness_test_3","match","方","q","true","match"
"","null","html-keynbutton-response","327","2.0.0","5442698","20","<div class=""pb-14 text-7xl"">+</div>","null","fixation","","","","","",""
"","479","html-keynbutton-response","328","2.0.0","5443178","20","<div class=""flex flex-row stim-length pb-8 md:pd-20 justify-evenly items-center""><div class=""square""></div><div class=""circle""></div><div class=""square""></div></div>","p","","matchness_test_3","mismatch","圆","p","true","mismatch"
"","null","html-keynbutton-response","329","2.0.0","5443682","20","<div class=""pb-14 text-7xl"">+</div>","null","fixation","","","","","",""
"","423","html-keynbutton-response","330","2.0.0","5444106","20","<div class=""flex flex-row stim-length pb-8 md:pd-20 justify-evenly items-center""><div class=""circle""></div><div class=""square""></div><div class=""circle""></div></div>","p","","matchness_test_3","mismatch","方","p","true","mismatch"
"","null","html-keynbutton-response","331","2.0.0","5444612","20","<div class=""pb-14 text-7xl"">+</div>","null","fixation","","","","","",""
"","341","html-keynbutton-response","332","2.0.0","5444954","20","<div class=""flex flex-row stim-length pb-8 md:pd-20 justify-evenly items-center""><div class=""square""></div><div class=""circle""></div><div class=""square""></div></div>","p","","matchness_test_3","mismatch","圆","p","true","mismatch"
"","null","html-keynbutton-response","333","2.0.0","5445464","20","<div class=""pb-14 text-7xl"">+</div>","null","fixation","","","","","",""
"","369","html-keynbutton-response","334","2.0.0","5445834","20","<div class=""flex flex-row stim-length pb-8 md:pd-20 justify-evenly items-center""><div class=""square""></div><div class=""square""></div><div class=""square""></div></div>","p","","matchness_test_3","match","方","q","false","mismatch"
"","null","html-keynbutton-response","335","2.0.0","5446347","20","<div class=""pb-14 text-7xl"">+</div>","null","fixation","","","","","",""
"","446","html-keynbutton-response","336","2.0.0","5446794","20","<div class=""flex flex-row stim-length pb-8 md:pd-20 justify-evenly items-center""><div class=""circle""></div><div class=""circle""></div><div class=""circle""></div></div>","q","","matchness_test_3","match","圆","q","true","match"
"","null","html-keynbutton-response","337","2.0.0","5447299","20","<div class=""pb-14 text-7xl"">+</div>","null","fixation","","","","","",""
"","406","html-keynbutton-response","338","2.0.0","5447706","20","<div class=""flex flex-row stim-length pb-8 md:pd-20 justify-evenly items-center""><div class=""circle""></div><div class=""square""></div><div class=""circle""></div></div>","p","","matchness_test_3","mismatch","方","p","true","mismatch"
"","null","html-keynbutton-response","339","2.0.0","5448213","20","<div class=""pb-14 text-7xl"">+</div>","null","fixation","","","","","",""
"","419","html-keynbutton-response","340","2.0.0","5448633","20","<div class=""flex flex-row stim-length pb-8 md:pd-20 justify-evenly items-center""><div class=""circle""></div><div class=""circle""></div><div class=""circle""></div></div>","q","","matchness_test_3","match","圆","q","true","match"
"","null","html-keynbutton-response","341","2.0.0","5449148","20","<div class=""pb-14 text-7xl"">+</div>","null","fixation","","","","","",""
"","397","html-keynbutton-response","342","2.0.0","5449546","20","<div class=""flex flex-row stim-length pb-8 md:pd-20 justify-evenly items-center""><div class=""square""></div><div class=""square""></div><div class=""square""></div></div>","q","","matchness_test_3","match","方","q","true","match"
"","null","html-keynbutton-response","343","2.0.0","5450048","20","<div class=""pb-14 text-7xl"">+</div>","null","fixation","","","","","",""
"","425","html-keynbutton-response","344","2.0.0","5450474","20","<div class=""flex flex-row stim-length pb-8 md:pd-20 justify-evenly items-center""><div class=""square""></div><div class=""circle""></div><div class=""square""></div></div>","p","","matchness_test_3","mismatch","圆","p","true","mismatch"
"","null","html-keynbutton-response","345","2.0.0","5450982","20","<div class=""pb-14 text-7xl"">+</div>","null","fixation","","","","","",""
"","419","html-keynbutton-response","346","2.0.0","5451402","20","<div class=""flex flex-row stim-length pb-8 md:pd-20 justify-evenly items-center""><div class=""circle""></div><div class=""square""></div><div class=""circle""></div></div>","p","","matchness_test_3","mismatch","方","p","true","mismatch"
"","null","html-keynbutton-response","347","2.0.0","5451914","20","<div class=""pb-14 text-7xl"">+</div>","null","fixation","","","","","",""
"","431","html-keynbutton-response","348","2.0.0","5452346","20","<div class=""flex flex-row stim-length pb-8 md:pd-20 justify-evenly items-center""><div class=""square""></div><div class=""square""></div><div class=""square""></div></div>","q","","matchness_test_3","match","方","q","true","match"
"","null","html-keynbutton-response","349","2.0.0","5452848","20","<div class=""pb-14 text-7xl"">+</div>","null","fixation","","","","","",""
"","457","html-keynbutton-response","350","2.0.0","5453306","20","<div class=""flex flex-row stim-length pb-8 md:pd-20 justify-evenly items-center""><div class=""circle""></div><div class=""circle""></div><div class=""circle""></div></div>","q","","matchness_test_3","match","圆","q","true","match"
"","null","html-keynbutton-response","351","2.0.0","5453814","20","<div class=""pb-14 text-7xl"">+</div>","null","fixation","","","","","",""
"","451","html-keynbutton-response","352","2.0.0","5454266","20","<div class=""flex flex-row stim-length pb-8 md:pd-20 justify-evenly items-center""><div class=""square""></div><div class=""circle""></div><div class=""square""></div></div>","p","","matchness_test_3","mismatch","圆","p","true","mismatch"
"","null","html-keynbutton-response","353","2.0.0","5454781","20","<div class=""pb-14 text-7xl"">+</div>","null","fixation","","","","","",""
"","492","html-keynbutton-response","354","2.0.0","5455274","20","<div class=""flex flex-row stim-length pb-8 md:pd-20 justify-evenly items-center""><div class=""circle""></div><div class=""circle""></div><div class=""circle""></div></div>","q","","matchness_test_3","match","圆","q","true","match"
"","null","html-keynbutton-response","355","2.0.0","5455782","20","<div class=""pb-14 text-7xl"">+</div>","null","fixation","","","","","",""
"","355","html-keynbutton-response","356","2.0.0","5456138","20","<div class=""flex flex-row stim-length pb-8 md:pd-20 justify-evenly items-center""><div class=""square""></div><div class=""circle""></div><div class=""square""></div></div>","p","","matchness_test_3","mismatch","圆","p","true","mismatch"
"","null","html-keynbutton-response","357","2.0.0","5456646","20","<div class=""pb-14 text-7xl"">+</div>","null","fixation","","","","","",""
"","499","html-keynbutton-response","358","2.0.0","5457146","20","<div class=""flex flex-row stim-length pb-8 md:pd-20 justify-evenly items-center""><div class=""circle""></div><div class=""square""></div><div class=""circle""></div></div>","q","","matchness_test_3","mismatch","方","p","false","match"
"","null","html-keynbutton-response","359","2.0.0","5457648","20","<div class=""pb-14 text-7xl"">+</div>","null","fixation","","","","","",""
"","408","html-keynbutton-response","360","2.0.0","5458058","20","<div class=""flex flex-row stim-length pb-8 md:pd-20 justify-evenly items-center""><div class=""square""></div><div class=""square""></div><div class=""square""></div></div>","q","","matchness_test_3","match","方","q","true","match"
"","null","html-keynbutton-response","361","2.0.0","5458568","20","<div class=""pb-14 text-7xl"">+</div>","null","fixation","","","","","",""
"","401","html-keynbutton-response","362","2.0.0","5458970","20","<div class=""flex flex-row stim-length pb-8 md:pd-20 justify-evenly items-center""><div class=""circle""></div><div class=""square""></div><div class=""circle""></div></div>","p","","matchness_test_3","mismatch","方","p","true","mismatch"
"","null","html-keynbutton-response","363","2.0.0","5459481","20","<div class=""pb-14 text-7xl"">+</div>","null","fixation","","","","","",""
"","416","html-keynbutton-response","364","2.0.0","5459898","20","<div class=""flex flex-row stim-length pb-8 md:pd-20 justify-evenly items-center""><div class=""square""></div><div class=""circle""></div><div class=""square""></div></div>","p","","matchness_test_3","mismatch","圆","p","true","mismatch"
"","null","html-keynbutton-response","365","2.0.0","5460414","20","<div class=""pb-14 text-7xl"">+</div>","null","fixation","","","","","",""
"","459","html-keynbutton-response","366","2.0.0","5460874","20","<div class=""flex flex-row stim-length pb-8 md:pd-20 justify-evenly items-center""><div class=""circle""></div><div class=""circle""></div><div class=""circle""></div></div>","q","","matchness_test_3","match","圆","q","true","match"
"","null","html-keynbutton-response","367","2.0.0","5461382","20","<div class=""pb-14 text-7xl"">+</div>","null","fixation","","","","","",""
"","402","html-keynbutton-response","368","2.0.0","5461785","20","<div class=""flex flex-row stim-length pb-8 md:pd-20 justify-evenly items-center""><div class=""square""></div><div class=""square""></div><div class=""square""></div></div>","q","","matchness_test_3","match","方","q","true","match"
"","null","html-keynbutton-response","369","2.0.0","5462298","20","<div class=""pb-14 text-7xl"">+</div>","null","fixation","","","","","",""
"","383","html-keynbutton-response","370","2.0.0","5462682","20","<div class=""flex flex-row stim-length pb-8 md:pd-20 justify-evenly items-center""><div class=""square""></div><div class=""circle""></div><div class=""square""></div></div>","p","","matchness_test_3","mismatch","圆","p","true","mismatch"
"","null","html-keynbutton-response","371","2.0.0","5463197","20","<div class=""pb-14 text-7xl"">+</div>","null","fixation","","","","","",""
"","556","html-keynbutton-response","372","2.0.0","5463754","20","<div class=""flex flex-row stim-length pb-8 md:pd-20 justify-evenly items-center""><div class=""square""></div><div class=""square""></div><div class=""square""></div></div>","q","","matchness_test_3","match","方","q","true","match"
"","null","html-keynbutton-response","373","2.0.0","5464264","20","<div class=""pb-14 text-7xl"">+</div>","null","fixation","","","","","",""
"","433","html-keynbutton-response","374","2.0.0","5464698","20","<div class=""flex flex-row stim-length pb-8 md:pd-20 justify-evenly items-center""><div class=""circle""></div><div class=""square""></div><div class=""circle""></div></div>","p","","matchness_test_3","mismatch","方","p","true","mismatch"
"","null","html-keynbutton-response","375","2.0.0","5465214","20","<div class=""pb-14 text-7xl"">+</div>","null","fixation","","","","","",""
"","491","html-keynbutton-response","376","2.0.0","5465706","20","<div class=""flex flex-row stim-length pb-8 md:pd-20 justify-evenly items-center""><div class=""circle""></div><div class=""circle""></div><div class=""circle""></div></div>","q","","matchness_test_3","match","圆","q","true","match"
"","null","html-keynbutton-response","377","2.0.0","5466214","20","<div class=""pb-14 text-7xl"">+</div>","null","fixation","","","","","",""
"","323","html-keynbutton-response","378","2.0.0","5466538","20","<div class=""flex flex-row stim-length pb-8 md:pd-20 justify-evenly items-center""><div class=""circle""></div><div class=""circle""></div><div class=""circle""></div></div>","p","","matchness_test_3","match","圆","q","false","mismatch"
"","null","html-keynbutton-response","379","2.0.0","5467046","20","<div class=""pb-14 text-7xl"">+</div>","null","fixation","","","","","",""
"","627","html-keynbutton-response","380","2.0.0","5467674","20","<div class=""flex flex-row stim-length pb-8 md:pd-20 justify-evenly items-center""><div class=""square""></div><div class=""square""></div><div class=""square""></div></div>","q","","matchness_test_3","match","方","q","true","match"
"","null","html-keynbutton-response","381","2.0.0","5468182","20","<div class=""pb-14 text-7xl"">+</div>","null","fixation","","","","","",""
"","419","html-keynbutton-response","382","2.0.0","5468602","20","<div class=""flex flex-row stim-length pb-8 md:pd-20 justify-evenly items-center""><div class=""circle""></div><div class=""square""></div><div class=""circle""></div></div>","p","","matchness_test_3","mismatch","方","p","true","mismatch"
"","null","html-keynbutton-response","383","2.0.0","5469114","20","<div class=""pb-14 text-7xl"">+</div>","null","fixation","","","","","",""
"","383","html-keynbutton-response","384","2.0.0","5469498","20","<div class=""flex flex-row stim-length pb-8 md:pd-20 justify-evenly items-center""><div class=""square""></div><div class=""circle""></div><div class=""square""></div></div>","p","","matchness_test_3","mismatch","圆","p","true","mismatch"
"","null","html-keynbutton-response","385","2.0.0","5470003","20","<div class=""pb-14 text-7xl"">+</div>","null","fixation","","","","","",""
"","438","html-keynbutton-response","386","2.0.0","5470442","20","<div class=""flex flex-row stim-length pb-8 md:pd-20 justify-evenly items-center""><div class=""square""></div><div class=""circle""></div><div class=""square""></div></div>","p","","matchness_test_3","mismatch","圆","p","true","mismatch"
"","null","html-keynbutton-response","387","2.0.0","5470948","20","<div class=""pb-14 text-7xl"">+</div>","null","fixation","","","","","",""
"","629","html-keynbutton-response","388","2.0.0","5471578","20","<div class=""flex flex-row stim-length pb-8 md:pd-20 justify-evenly items-center""><div class=""square""></div><div class=""square""></div><div class=""square""></div></div>","q","","matchness_test_3","match","方","q","true","match"
"","null","html-keynbutton-response","389","2.0.0","5472082","20","<div class=""pb-14 text-7xl"">+</div>","null","fixation","","","","","",""
"","439","html-keynbutton-response","390","2.0.0","5472522","20","<div class=""flex flex-row stim-length pb-8 md:pd-20 justify-evenly items-center""><div class=""circle""></div><div class=""square""></div><div class=""circle""></div></div>","p","","matchness_test_3","mismatch","方","p","true","mismatch"
"","null","html-keynbutton-response","391","2.0.0","5473030","20","<div class=""pb-14 text-7xl"">+</div>","null","fixation","","","","","",""
"","418","html-keynbutton-response","392","2.0.0","5473450","20","<div class=""flex flex-row stim-length pb-8 md:pd-20 justify-evenly items-center""><div class=""circle""></div><div class=""circle""></div><div class=""circle""></div></div>","q","","matchness_test_3","match","圆","q","true","match"
"","928","html-keynbutton-response","393","2.0.0","5474380","20","<div class=""jp""><p>您已完成4/10部分</p><p>请休息一会儿</p>
    <p>您的正确率是：93%</p>
    <p>您的平均反应时间是：437毫秒</p></div>"," ","block_feedback","","","","","",""
"","null","html-keynbutton-response","394","2.0.0","5477595","20","<count-down title=""""></count-down>","null","countDown_trial","","","","","",""
"","null","html-keynbutton-response","395","2.0.0","5478099","20","<div class=""pb-14 text-7xl"">+</div>","null","fixation","","","","","",""
"","342","html-keynbutton-response","396","2.0.0","5478442","20","<div class=""flex flex-row stim-length pb-8 md:pd-20 justify-evenly items-center""><div class=""square""></div><div class=""square""></div><div class=""square""></div></div>","q","","matchness_test_4","match","方","q","true","match"
"","null","html-keynbutton-response","397","2.0.0","5478948","20","<div class=""pb-14 text-7xl"">+</div>","null","fixation","","","","","",""
"","502","html-keynbutton-response","398","2.0.0","5479450","20","<div class=""flex flex-row stim-length pb-8 md:pd-20 justify-evenly items-center""><div class=""circle""></div><div class=""circle""></div><div class=""circle""></div></div>","q","","matchness_test_4","match","圆","q","true","match"
"","null","html-keynbutton-response","399","2.0.0","5479964","20","<div class=""pb-14 text-7xl"">+</div>","null","fixation","","","","","",""
"","461","html-keynbutton-response","400","2.0.0","5480425","20","<div class=""flex flex-row stim-length pb-8 md:pd-20 justify-evenly items-center""><div class=""circle""></div><div class=""square""></div><div class=""circle""></div></div>","p","","matchness_test_4","mismatch","方","p","true","mismatch"
"","null","html-keynbutton-response","401","2.0.0","5480932","20","<div class=""pb-14 text-7xl"">+</div>","null","fixation","","","","","",""
"","389","html-keynbutton-response","402","2.0.0","5481322","20","<div class=""flex flex-row stim-length pb-8 md:pd-20 justify-evenly items-center""><div class=""square""></div><div class=""circle""></div><div class=""square""></div></div>","p","","matchness_test_4","mismatch","圆","p","true","mismatch"
"","null","html-keynbutton-response","403","2.0.0","5481830","20","<div class=""pb-14 text-7xl"">+</div>","null","fixation","","","","","",""
"","387","html-keynbutton-response","404","2.0.0","5482207","20","<div class=""flex flex-row stim-length pb-8 md:pd-20 justify-evenly items-center""><div class=""circle""></div><div class=""circle""></div><div class=""circle""></div></div>","p","","matchness_test_4","match","圆","q","false","mismatch"
"","null","html-keynbutton-response","405","2.0.0","5482720","20","<div class=""pb-14 text-7xl"">+</div>","null","fixation","","","","","",""
"","525","html-keynbutton-response","406","2.0.0","5483246","20","<div class=""flex flex-row stim-length pb-8 md:pd-20 justify-evenly items-center""><div class=""square""></div><div class=""square""></div><div class=""square""></div></div>","q","","matchness_test_4","match","方","q","true","match"
"","null","html-keynbutton-response","407","2.0.0","5483753","20","<div class=""pb-14 text-7xl"">+</div>","null","fixation","","","","","",""
"","421","html-keynbutton-response","408","2.0.0","5484175","20","<div class=""flex flex-row stim-length pb-8 md:pd-20 justify-evenly items-center""><div class=""circle""></div><div class=""square""></div><div class=""circle""></div></div>","p","","matchness_test_4","mismatch","方","p","true","mismatch"
"","null","html-keynbutton-response","409","2.0.0","5484690","20","<div class=""pb-14 text-7xl"">+</div>","null","fixation","","","","","",""
"","476","html-keynbutton-response","410","2.0.0","5485167","20","<div class=""flex flex-row stim-length pb-8 md:pd-20 justify-evenly items-center""><div class=""square""></div><div class=""circle""></div><div class=""square""></div></div>","p","","matchness_test_4","mismatch","圆","p","true","mismatch"
"","null","html-keynbutton-response","411","2.0.0","5485671","20","<div class=""pb-14 text-7xl"">+</div>","null","fixation","","","","","",""
"","407","html-keynbutton-response","412","2.0.0","5486079","20","<div class=""flex flex-row stim-length pb-8 md:pd-20 justify-evenly items-center""><div class=""square""></div><div class=""circle""></div><div class=""square""></div></div>","p","","matchness_test_4","mismatch","圆","p","true","mismatch"
"","null","html-keynbutton-response","413","2.0.0","5486585","20","<div class=""pb-14 text-7xl"">+</div>","null","fixation","","","","","",""
"","420","html-keynbutton-response","414","2.0.0","5487006","20","<div class=""flex flex-row stim-length pb-8 md:pd-20 justify-evenly items-center""><div class=""square""></div><div class=""square""></div><div class=""square""></div></div>","q","","matchness_test_4","match","方","q","true","match"
"","null","html-keynbutton-response","415","2.0.0","5487520","20","<div class=""pb-14 text-7xl"">+</div>","null","fixation","","","","","",""
"","430","html-keynbutton-response","416","2.0.0","5487951","20","<div class=""flex flex-row stim-length pb-8 md:pd-20 justify-evenly items-center""><div class=""circle""></div><div class=""circle""></div><div class=""circle""></div></div>","q","","matchness_test_4","match","圆","q","true","match"
"","null","html-keynbutton-response","417","2.0.0","5488454","20","<div class=""pb-14 text-7xl"">+</div>","null","fixation","","","","","",""
"","440","html-keynbutton-response","418","2.0.0","5488895","20","<div class=""flex flex-row stim-length pb-8 md:pd-20 justify-evenly items-center""><div class=""circle""></div><div class=""square""></div><div class=""circle""></div></div>","p","","matchness_test_4","mismatch","方","p","true","mismatch"
"","null","html-keynbutton-response","419","2.0.0","5489402","20","<div class=""pb-14 text-7xl"">+</div>","null","fixation","","","","","",""
"","372","html-keynbutton-response","420","2.0.0","5489775","20","<div class=""flex flex-row stim-length pb-8 md:pd-20 justify-evenly items-center""><div class=""circle""></div><div class=""square""></div><div class=""circle""></div></div>","p","","matchness_test_4","mismatch","方","p","true","mismatch"
"","null","html-keynbutton-response","421","2.0.0","5490287","20","<div class=""pb-14 text-7xl"">+</div>","null","fixation","","","","","",""
"","463","html-keynbutton-response","422","2.0.0","5490751","20","<div class=""flex flex-row stim-length pb-8 md:pd-20 justify-evenly items-center""><div class=""circle""></div><div class=""circle""></div><div class=""circle""></div></div>","q","","matchness_test_4","match","圆","q","true","match"
"","null","html-keynbutton-response","423","2.0.0","5491254","20","<div class=""pb-14 text-7xl"">+</div>","null","fixation","","","","","",""
"","408","html-keynbutton-response","424","2.0.0","5491663","20","<div class=""flex flex-row stim-length pb-8 md:pd-20 justify-evenly items-center""><div class=""square""></div><div class=""square""></div><div class=""square""></div></div>","q","","matchness_test_4","match","方","q","true","match"
"","null","html-keynbutton-response","425","2.0.0","5492169","20","<div class=""pb-14 text-7xl"">+</div>","null","fixation","","","","","",""
"","420","html-keynbutton-response","426","2.0.0","5492591","20","<div class=""flex flex-row stim-length pb-8 md:pd-20 justify-evenly items-center""><div class=""square""></div><div class=""circle""></div><div class=""square""></div></div>","p","","matchness_test_4","mismatch","圆","p","true","mismatch"
"","null","html-keynbutton-response","427","2.0.0","5493103","20","<div class=""pb-14 text-7xl"">+</div>","null","fixation","","","","","",""
"","415","html-keynbutton-response","428","2.0.0","5493518","20","<div class=""flex flex-row stim-length pb-8 md:pd-20 justify-evenly items-center""><div class=""circle""></div><div class=""square""></div><div class=""circle""></div></div>","p","","matchness_test_4","mismatch","方","p","true","mismatch"
"","null","html-keynbutton-response","429","2.0.0","5494021","20","<div class=""pb-14 text-7xl"">+</div>","null","fixation","","","","","",""
"","441","html-keynbutton-response","430","2.0.0","5494463","20","<div class=""flex flex-row stim-length pb-8 md:pd-20 justify-evenly items-center""><div class=""square""></div><div class=""square""></div><div class=""square""></div></div>","q","","matchness_test_4","match","方","q","true","match"
"","null","html-keynbutton-response","431","2.0.0","5494971","20","<div class=""pb-14 text-7xl"">+</div>","null","fixation","","","","","",""
"","531","html-keynbutton-response","432","2.0.0","5495503","20","<div class=""flex flex-row stim-length pb-8 md:pd-20 justify-evenly items-center""><div class=""square""></div><div class=""circle""></div><div class=""square""></div></div>","p","","matchness_test_4","mismatch","圆","p","true","mismatch"
"","null","html-keynbutton-response","433","2.0.0","5496008","20","<div class=""pb-14 text-7xl"">+</div>","null","fixation","","","","","",""
"","422","html-keynbutton-response","434","2.0.0","5496431","20","<div class=""flex flex-row stim-length pb-8 md:pd-20 justify-evenly items-center""><div class=""circle""></div><div class=""circle""></div><div class=""circle""></div></div>","q","","matchness_test_4","match","圆","q","true","match"
"","null","html-keynbutton-response","435","2.0.0","5496938","20","<div class=""pb-14 text-7xl"">+</div>","null","fixation","","","","","",""
"","467","html-keynbutton-response","436","2.0.0","5497406","20","<div class=""flex flex-row stim-length pb-8 md:pd-20 justify-evenly items-center""><div class=""square""></div><div class=""square""></div><div class=""square""></div></div>","q","","matchness_test_4","match","方","q","true","match"
"","null","html-keynbutton-response","437","2.0.0","5497920","20","<div class=""pb-14 text-7xl"">+</div>","null","fixation","","","","","",""
"","430","html-keynbutton-response","438","2.0.0","5498351","20","<div class=""flex flex-row stim-length pb-8 md:pd-20 justify-evenly items-center""><div class=""circle""></div><div class=""square""></div><div class=""circle""></div></div>","p","","matchness_test_4","mismatch","方","p","true","mismatch"
"","null","html-keynbutton-response","439","2.0.0","5498854","20","<div class=""pb-14 text-7xl"">+</div>","null","fixation","","","","","",""
"","440","html-keynbutton-response","440","2.0.0","5499295","20","<div class=""flex flex-row stim-length pb-8 md:pd-20 justify-evenly items-center""><div class=""circle""></div><div class=""circle""></div><div class=""circle""></div></div>","q","","matchness_test_4","match","圆","q","true","match"
"","null","html-keynbutton-response","441","2.0.0","5499803","20","<div class=""pb-14 text-7xl"">+</div>","null","fixation","","","","","",""
"","355","html-keynbutton-response","442","2.0.0","5500159","20","<div class=""flex flex-row stim-length pb-8 md:pd-20 justify-evenly items-center""><div class=""square""></div><div class=""circle""></div><div class=""square""></div></div>","p","","matchness_test_4","mismatch","圆","p","true","mismatch"
"","null","html-keynbutton-response","443","2.0.0","5500670","20","<div class=""pb-14 text-7xl"">+</div>","null","fixation","","","","","",""
"","368","html-keynbutton-response","444","2.0.0","5501039","20","<div class=""flex flex-row stim-length pb-8 md:pd-20 justify-evenly items-center""><div class=""square""></div><div class=""square""></div><div class=""square""></div></div>","q","","matchness_test_4","match","方","q","true","match"
"","null","html-keynbutton-response","445","2.0.0","5501553","20","<div class=""pb-14 text-7xl"">+</div>","null","fixation","","","","","",""
"","397","html-keynbutton-response","446","2.0.0","5501951","20","<div class=""flex flex-row stim-length pb-8 md:pd-20 justify-evenly items-center""><div class=""circle""></div><div class=""square""></div><div class=""circle""></div></div>","p","","matchness_test_4","mismatch","方","p","true","mismatch"
"","null","html-keynbutton-response","447","2.0.0","5502454","20","<div class=""pb-14 text-7xl"">+</div>","null","fixation","","","","","",""
"","472","html-keynbutton-response","448","2.0.0","5502927","20","<div class=""flex flex-row stim-length pb-8 md:pd-20 justify-evenly items-center""><div class=""circle""></div><div class=""circle""></div><div class=""circle""></div></div>","q","","matchness_test_4","match","圆","q","true","match"
"","null","html-keynbutton-response","449","2.0.0","5503437","20","<div class=""pb-14 text-7xl"">+</div>","null","fixation","","","","","",""
"","481","html-keynbutton-response","450","2.0.0","5503919","20","<div class=""flex flex-row stim-length pb-8 md:pd-20 justify-evenly items-center""><div class=""square""></div><div class=""circle""></div><div class=""square""></div></div>","p","","matchness_test_4","mismatch","圆","p","true","mismatch"
"","null","html-keynbutton-response","451","2.0.0","5504422","20","<div class=""pb-14 text-7xl"">+</div>","null","fixation","","","","","",""
"","456","html-keynbutton-response","452","2.0.0","5504879","20","<div class=""flex flex-row stim-length pb-8 md:pd-20 justify-evenly items-center""><div class=""circle""></div><div class=""circle""></div><div class=""circle""></div></div>","q","","matchness_test_4","match","圆","q","true","match"
"","null","html-keynbutton-response","453","2.0.0","5505386","20","<div class=""pb-14 text-7xl"">+</div>","null","fixation","","","","","",""
"","292","html-keynbutton-response","454","2.0.0","5505679","20","<div class=""flex flex-row stim-length pb-8 md:pd-20 justify-evenly items-center""><div class=""square""></div><div class=""circle""></div><div class=""square""></div></div>","p","","matchness_test_4","mismatch","圆","p","true","mismatch"
"","null","html-keynbutton-response","455","2.0.0","5506186","20","<div class=""pb-14 text-7xl"">+</div>","null","fixation","","","","","",""
"","437","html-keynbutton-response","456","2.0.0","5506623","20","<div class=""flex flex-row stim-length pb-8 md:pd-20 justify-evenly items-center""><div class=""square""></div><div class=""square""></div><div class=""square""></div></div>","q","","matchness_test_4","match","方","q","true","match"
