"success","rt","trial_type","trial_index","plugin_version","time_elapsed","subj_id","stimulus","response","trail_tag","task","ismatch","target","correct_key","correct","response_key"
"true","1447942","fullscreen","0","2.0.0","1448954","14","","","","","","","","",""
"","29532","html-keynbutton-response","1","2.0.0","1478492","14","
        <div class=""jp px-2 xxs:px-5 mx-auto"">
        <p class=""text-center text-red-600 text-[1.2em] pb-5"">欢迎您参加知觉
          <strong>匹配实验。</strong>
        </p>
        <p>接下来的任务中您将看到一排图形。</p>
        <p>(圆形●或方形■)</p><p>您需要专注于中间的图形，判断中间的图形和两侧的图形<strong>是否匹配</strong>。</p>
        <p>如果图形匹配，请按“q”；</p>
        <p>如果图形不匹配，请按“p”。</p>
        <p>请尽量又快又准地做出反应。</p>
      <p>请按空格键开始练习。</p>
      </div>"," ","","","","","","",""
"","null","html-keynbutton-response","2","2.0.0","1481706","14","<count-down title=""""></count-down>","null","countDown_trial","","","","","",""
"","null","html-keynbutton-response","3","2.0.0","1482211","14","<div class=""pb-14 text-7xl"">+</div>","null","fixation","","","","","",""
"","1367","html-keynbutton-response","4","2.0.0","1483580","14","<div class=""flex flex-row stim-length pb-8 md:pd-20 justify-evenly items-center""><div class=""circle""></div><div class=""circle""></div><div class=""circle""></div></div>","q","","matchness_practice","match","圆","q","true","match"
"","null","html-keynbutton-response","5","2.0.0","1484092","14","<span class='text-green-400 text-4xl md:text-5xl lg:text-6xl'>正确!</span>","null","trial_feedback","","","","","",""
"","null","html-keynbutton-response","6","2.0.0","1484608","14","<div class=""pb-14 text-7xl"">+</div>","null","fixation","","","","","",""
"","891","html-keynbutton-response","7","2.0.0","1485501","14","<div class=""flex flex-row stim-length pb-8 md:pd-20 justify-evenly items-center""><div class=""square""></div><div class=""circle""></div><div class=""square""></div></div>","p","","matchness_practice","mismatch","圆","p","true","mismatch"
"","null","html-keynbutton-response","8","2.0.0","1486007","14","<span class='text-green-400 text-4xl md:text-5xl lg:text-6xl'>正确!</span>","null","trial_feedback","","","","","",""
"","null","html-keynbutton-response","9","2.0.0","1486510","14","<div class=""pb-14 text-7xl"">+</div>","null","fixation","","","","","",""
"","636","html-keynbutton-response","10","2.0.0","1487147","14","<div class=""flex flex-row stim-length pb-8 md:pd-20 justify-evenly items-center""><div class=""square""></div><div class=""square""></div><div class=""square""></div></div>","q","","matchness_practice","match","方","q","true","match"
"","null","html-keynbutton-response","11","2.0.0","1487658","14","<span class='text-green-400 text-4xl md:text-5xl lg:text-6xl'>正确!</span>","null","trial_feedback","","","","","",""
"","null","html-keynbutton-response","12","2.0.0","1488161","14","<div class=""pb-14 text-7xl"">+</div>","null","fixation","","","","","",""
"","634","html-keynbutton-response","13","2.0.0","1488796","14","<div class=""flex flex-row stim-length pb-8 md:pd-20 justify-evenly items-center""><div class=""circle""></div><div class=""square""></div><div class=""circle""></div></div>","p","","matchness_practice","mismatch","方","p","true","mismatch"
"","null","html-keynbutton-response","14","2.0.0","1489308","14","<span class='text-green-400 text-4xl md:text-5xl lg:text-6xl'>正确!</span>","null","trial_feedback","","","","","",""
"","null","html-keynbutton-response","15","2.0.0","1489811","14","<div class=""pb-14 text-7xl"">+</div>","null","fixation","","","","","",""
"","632","html-keynbutton-response","16","2.0.0","1490444","14","<div class=""flex flex-row stim-length pb-8 md:pd-20 justify-evenly items-center""><div class=""circle""></div><div class=""square""></div><div class=""circle""></div></div>","p","","matchness_practice","mismatch","方","p","true","mismatch"
"","null","html-keynbutton-response","17","2.0.0","1490959","14","<span class='text-green-400 text-4xl md:text-5xl lg:text-6xl'>正确!</span>","null","trial_feedback","","","","","",""
"","null","html-keynbutton-response","18","2.0.0","1491475","14","<div class=""pb-14 text-7xl"">+</div>","null","fixation","","","","","",""
"","647","html-keynbutton-response","19","2.0.0","1492123","14","<div class=""flex flex-row stim-length pb-8 md:pd-20 justify-evenly items-center""><div class=""square""></div><div class=""circle""></div><div class=""square""></div></div>","p","","matchness_practice","mismatch","圆","p","true","mismatch"
"","null","html-keynbutton-response","20","2.0.0","1492629","14","<span class='text-green-400 text-4xl md:text-5xl lg:text-6xl'>正确!</span>","null","trial_feedback","","","","","",""
"","null","html-keynbutton-response","21","2.0.0","1493141","14","<div class=""pb-14 text-7xl"">+</div>","null","fixation","","","","","",""
"","519","html-keynbutton-response","22","2.0.0","1493661","14","<div class=""flex flex-row stim-length pb-8 md:pd-20 justify-evenly items-center""><div class=""circle""></div><div class=""circle""></div><div class=""circle""></div></div>","q","","matchness_practice","match","圆","q","true","match"
"","null","html-keynbutton-response","23","2.0.0","1494177","14","<span class='text-green-400 text-4xl md:text-5xl lg:text-6xl'>正确!</span>","null","trial_feedback","","","","","",""
"","null","html-keynbutton-response","24","2.0.0","1494692","14","<div class=""pb-14 text-7xl"">+</div>","null","fixation","","","","","",""
"","520","html-keynbutton-response","25","2.0.0","1495212","14","<div class=""flex flex-row stim-length pb-8 md:pd-20 justify-evenly items-center""><div class=""square""></div><div class=""square""></div><div class=""square""></div></div>","q","","matchness_practice","match","方","q","true","match"
"","null","html-keynbutton-response","26","2.0.0","1495725","14","<span class='text-green-400 text-4xl md:text-5xl lg:text-6xl'>正确!</span>","null","trial_feedback","","","","","",""
"","null","html-keynbutton-response","27","2.0.0","1496242","14","<div class=""pb-14 text-7xl"">+</div>","null","fixation","","","","","",""
"","393","html-keynbutton-response","28","2.0.0","1496636","14","<div class=""flex flex-row stim-length pb-8 md:pd-20 justify-evenly items-center""><div class=""square""></div><div class=""square""></div><div class=""square""></div></div>","q","","matchness_practice","match","方","q","true","match"
"","null","html-keynbutton-response","29","2.0.0","1497143","14","<span class='text-green-400 text-4xl md:text-5xl lg:text-6xl'>正确!</span>","null","trial_feedback","","","","","",""
"","null","html-keynbutton-response","30","2.0.0","1497659","14","<div class=""pb-14 text-7xl"">+</div>","null","fixation","","","","","",""
"","479","html-keynbutton-response","31","2.0.0","1498139","14","<div class=""flex flex-row stim-length pb-8 md:pd-20 justify-evenly items-center""><div class=""circle""></div><div class=""circle""></div><div class=""circle""></div></div>","q","","matchness_practice","match","圆","q","true","match"
"","null","html-keynbutton-response","32","2.0.0","1498643","14","<span class='text-green-400 text-4xl md:text-5xl lg:text-6xl'>正确!</span>","null","trial_feedback","","","","","",""
"","null","html-keynbutton-response","33","2.0.0","1499158","14","<div class=""pb-14 text-7xl"">+</div>","null","fixation","","","","","",""
"","613","html-keynbutton-response","34","2.0.0","1499772","14","<div class=""flex flex-row stim-length pb-8 md:pd-20 justify-evenly items-center""><div class=""circle""></div><div class=""square""></div><div class=""circle""></div></div>","p","","matchness_practice","mismatch","方","p","true","mismatch"
"","null","html-keynbutton-response","35","2.0.0","1500276","14","<span class='text-green-400 text-4xl md:text-5xl lg:text-6xl'>正确!</span>","null","trial_feedback","","","","","",""
"","null","html-keynbutton-response","36","2.0.0","1500792","14","<div class=""pb-14 text-7xl"">+</div>","null","fixation","","","","","",""
"","643","html-keynbutton-response","37","2.0.0","1501436","14","<div class=""flex flex-row stim-length pb-8 md:pd-20 justify-evenly items-center""><div class=""square""></div><div class=""circle""></div><div class=""square""></div></div>","p","","matchness_practice","mismatch","圆","p","true","mismatch"
"","null","html-keynbutton-response","38","2.0.0","1501943","14","<span class='text-green-400 text-4xl md:text-5xl lg:text-6xl'>正确!</span>","null","trial_feedback","","","","","",""
"","null","html-keynbutton-response","39","2.0.0","1502459","14","<div class=""pb-14 text-7xl"">+</div>","null","fixation","","","","","",""
"","735","html-keynbutton-response","40","2.0.0","1503195","14","<div class=""flex flex-row stim-length pb-8 md:pd-20 justify-evenly items-center""><div class=""circle""></div><div class=""square""></div><div class=""circle""></div></div>","p","","matchness_practice","mismatch","方","p","true","mismatch"
"","null","html-keynbutton-response","41","2.0.0","1503709","14","<span class='text-green-400 text-4xl md:text-5xl lg:text-6xl'>正确!</span>","null","trial_feedback","","","","","",""
"","null","html-keynbutton-response","42","2.0.0","1504214","14","<div class=""pb-14 text-7xl"">+</div>","null","fixation","","","","","",""
"","677","html-keynbutton-response","43","2.0.0","1504892","14","<div class=""flex flex-row stim-length pb-8 md:pd-20 justify-evenly items-center""><div class=""square""></div><div class=""circle""></div><div class=""square""></div></div>","p","","matchness_practice","mismatch","圆","p","true","mismatch"
"","null","html-keynbutton-response","44","2.0.0","1505408","14","<span class='text-green-400 text-4xl md:text-5xl lg:text-6xl'>正确!</span>","null","trial_feedback","","","","","",""
"","null","html-keynbutton-response","45","2.0.0","1505910","14","<div class=""pb-14 text-7xl"">+</div>","null","fixation","","","","","",""
"","613","html-keynbutton-response","46","2.0.0","1506524","14","<div class=""flex flex-row stim-length pb-8 md:pd-20 justify-evenly items-center""><div class=""square""></div><div class=""square""></div><div class=""square""></div></div>","q","","matchness_practice","match","方","q","true","match"
"","null","html-keynbutton-response","47","2.0.0","1507034","14","<span class='text-green-400 text-4xl md:text-5xl lg:text-6xl'>正确!</span>","null","trial_feedback","","","","","",""
"","null","html-keynbutton-response","48","2.0.0","1507541","14","<div class=""pb-14 text-7xl"">+</div>","null","fixation","","","","","",""
"","583","html-keynbutton-response","49","2.0.0","1508124","14","<div class=""flex flex-row stim-length pb-8 md:pd-20 justify-evenly items-center""><div class=""circle""></div><div class=""circle""></div><div class=""circle""></div></div>","q","","matchness_practice","match","圆","q","true","match"
"","null","html-keynbutton-response","50","2.0.0","1508627","14","<span class='text-green-400 text-4xl md:text-5xl lg:text-6xl'>正确!</span>","null","trial_feedback","","","","","",""
"","null","html-keynbutton-response","51","2.0.0","1509141","14","<div class=""pb-14 text-7xl"">+</div>","null","fixation","","","","","",""
"","550","html-keynbutton-response","52","2.0.0","1509692","14","<div class=""flex flex-row stim-length pb-8 md:pd-20 justify-evenly items-center""><div class=""circle""></div><div class=""square""></div><div class=""circle""></div></div>","p","","matchness_practice","mismatch","方","p","true","mismatch"
"","null","html-keynbutton-response","53","2.0.0","1510193","14","<span class='text-green-400 text-4xl md:text-5xl lg:text-6xl'>正确!</span>","null","trial_feedback","","","","","",""
"","null","html-keynbutton-response","54","2.0.0","1510709","14","<div class=""pb-14 text-7xl"">+</div>","null","fixation","","","","","",""
"","486","html-keynbutton-response","55","2.0.0","1511196","14","<div class=""flex flex-row stim-length pb-8 md:pd-20 justify-evenly items-center""><div class=""square""></div><div class=""circle""></div><div class=""square""></div></div>","p","","matchness_practice","mismatch","圆","p","true","mismatch"
"","null","html-keynbutton-response","56","2.0.0","1511709","14","<span class='text-green-400 text-4xl md:text-5xl lg:text-6xl'>正确!</span>","null","trial_feedback","","","","","",""
"","null","html-keynbutton-response","57","2.0.0","1512225","14","<div class=""pb-14 text-7xl"">+</div>","null","fixation","","","","","",""
"","507","html-keynbutton-response","58","2.0.0","1512732","14","<div class=""flex flex-row stim-length pb-8 md:pd-20 justify-evenly items-center""><div class=""circle""></div><div class=""circle""></div><div class=""circle""></div></div>","q","","matchness_practice","match","圆","q","true","match"
"","null","html-keynbutton-response","59","2.0.0","1513242","14","<span class='text-green-400 text-4xl md:text-5xl lg:text-6xl'>正确!</span>","null","trial_feedback","","","","","",""
"","null","html-keynbutton-response","60","2.0.0","1513743","14","<div class=""pb-14 text-7xl"">+</div>","null","fixation","","","","","",""
"","507","html-keynbutton-response","61","2.0.0","1514251","14","<div class=""flex flex-row stim-length pb-8 md:pd-20 justify-evenly items-center""><div class=""square""></div><div class=""square""></div><div class=""square""></div></div>","q","","matchness_practice","match","方","q","true","match"
"","null","html-keynbutton-response","62","2.0.0","1514760","14","<span class='text-green-400 text-4xl md:text-5xl lg:text-6xl'>正确!</span>","null","trial_feedback","","","","","",""
"","2077","html-keynbutton-response","64","2.0.0","1516844","14","<div class=""jp"">
    <p>您的正确率是：100%</p>
    <p>您的平均反应时间是：632毫秒</p></div>"," ","block_feedback","","","","","",""
"","2606","html-keynbutton-response","65","2.0.0","1519452","14","
        <div class=""jp px-2 xxs:px-5 mx-auto"">
        <p class=""text-center text-red-600 text-[1.2em] pb-5"">练习结束，现在开始正式实验</p>
        <p>请注意：正式实验中将不再会呈现反馈。</p>
        </div>
        "," ","","","","","","",""
"","null","html-keynbutton-response","66","2.0.0","1522656","14","<count-down title=""""></count-down>","null","countDown_trial","","","","","",""
"","null","html-keynbutton-response","67","2.0.0","1523159","14","<div class=""pb-14 text-7xl"">+</div>","null","fixation","","","","","",""
"","532","html-keynbutton-response","68","2.0.0","1523692","14","<div class=""flex flex-row stim-length pb-8 md:pd-20 justify-evenly items-center""><div class=""circle""></div><div class=""square""></div><div class=""circle""></div></div>","p","","matchness_test","mismatch","方","p","true","mismatch"
"","null","html-keynbutton-response","69","2.0.0","1524208","14","<div class=""pb-14 text-7xl"">+</div>","null","fixation","","","","","",""
"","523","html-keynbutton-response","70","2.0.0","1524732","14","<div class=""flex flex-row stim-length pb-8 md:pd-20 justify-evenly items-center""><div class=""square""></div><div class=""square""></div><div class=""square""></div></div>","q","","matchness_test","match","方","q","true","match"
"","null","html-keynbutton-response","71","2.0.0","1525242","14","<div class=""pb-14 text-7xl"">+</div>","null","fixation","","","","","",""
"","561","html-keynbutton-response","72","2.0.0","1525804","14","<div class=""flex flex-row stim-length pb-8 md:pd-20 justify-evenly items-center""><div class=""square""></div><div class=""circle""></div><div class=""square""></div></div>","p","","matchness_test","mismatch","圆","p","true","mismatch"
"","null","html-keynbutton-response","73","2.0.0","1526310","14","<div class=""pb-14 text-7xl"">+</div>","null","fixation","","","","","",""
"","533","html-keynbutton-response","74","2.0.0","1526844","14","<div class=""flex flex-row stim-length pb-8 md:pd-20 justify-evenly items-center""><div class=""circle""></div><div class=""circle""></div><div class=""circle""></div></div>","q","","matchness_test","match","圆","q","true","match"
"","null","html-keynbutton-response","75","2.0.0","1527358","14","<div class=""pb-14 text-7xl"">+</div>","null","fixation","","","","","",""
"","525","html-keynbutton-response","76","2.0.0","1527884","14","<div class=""flex flex-row stim-length pb-8 md:pd-20 justify-evenly items-center""><div class=""square""></div><div class=""circle""></div><div class=""square""></div></div>","p","","matchness_test","mismatch","圆","p","true","mismatch"
"","null","html-keynbutton-response","77","2.0.0","1528391","14","<div class=""pb-14 text-7xl"">+</div>","null","fixation","","","","","",""
"","500","html-keynbutton-response","78","2.0.0","1528892","14","<div class=""flex flex-row stim-length pb-8 md:pd-20 justify-evenly items-center""><div class=""circle""></div><div class=""circle""></div><div class=""circle""></div></div>","q","","matchness_test","match","圆","q","true","match"
"","null","html-keynbutton-response","79","2.0.0","1529393","14","<div class=""pb-14 text-7xl"">+</div>","null","fixation","","","","","",""
"","506","html-keynbutton-response","80","2.0.0","1529900","14","<div class=""flex flex-row stim-length pb-8 md:pd-20 justify-evenly items-center""><div class=""square""></div><div class=""square""></div><div class=""square""></div></div>","q","","matchness_test","match","方","q","true","match"
"","null","html-keynbutton-response","81","2.0.0","1530407","14","<div class=""pb-14 text-7xl"">+</div>","null","fixation","","","","","",""
"","532","html-keynbutton-response","82","2.0.0","1530939","14","<div class=""flex flex-row stim-length pb-8 md:pd-20 justify-evenly items-center""><div class=""circle""></div><div class=""square""></div><div class=""circle""></div></div>","p","","matchness_test","mismatch","方","p","true","mismatch"
"","null","html-keynbutton-response","83","2.0.0","1531443","14","<div class=""pb-14 text-7xl"">+</div>","null","fixation","","","","","",""
"","599","html-keynbutton-response","84","2.0.0","1532043","14","<div class=""flex flex-row stim-length pb-8 md:pd-20 justify-evenly items-center""><div class=""circle""></div><div class=""square""></div><div class=""circle""></div></div>","p","","matchness_test","mismatch","方","p","true","mismatch"
"","null","html-keynbutton-response","85","2.0.0","1532559","14","<div class=""pb-14 text-7xl"">+</div>","null","fixation","","","","","",""
"","620","html-keynbutton-response","86","2.0.0","1533180","14","<div class=""flex flex-row stim-length pb-8 md:pd-20 justify-evenly items-center""><div class=""circle""></div><div class=""circle""></div><div class=""circle""></div></div>","q","","matchness_test","match","圆","q","true","match"
"","null","html-keynbutton-response","87","2.0.0","1533692","14","<div class=""pb-14 text-7xl"">+</div>","null","fixation","","","","","",""
"","527","html-keynbutton-response","88","2.0.0","1534220","14","<div class=""flex flex-row stim-length pb-8 md:pd-20 justify-evenly items-center""><div class=""square""></div><div class=""square""></div><div class=""square""></div></div>","q","","matchness_test","match","方","q","true","match"
"","null","html-keynbutton-response","89","2.0.0","1534726","14","<div class=""pb-14 text-7xl"">+</div>","null","fixation","","","","","",""
"","565","html-keynbutton-response","90","2.0.0","1535292","14","<div class=""flex flex-row stim-length pb-8 md:pd-20 justify-evenly items-center""><div class=""square""></div><div class=""circle""></div><div class=""square""></div></div>","p","","matchness_test","mismatch","圆","p","true","mismatch"
"","null","html-keynbutton-response","91","2.0.0","1535793","14","<div class=""pb-14 text-7xl"">+</div>","null","fixation","","","","","",""
"","569","html-keynbutton-response","92","2.0.0","1536363","14","<div class=""flex flex-row stim-length pb-8 md:pd-20 justify-evenly items-center""><div class=""square""></div><div class=""square""></div><div class=""square""></div></div>","q","","matchness_test","match","方","q","true","match"
"","null","html-keynbutton-response","93","2.0.0","1536875","14","<div class=""pb-14 text-7xl"">+</div>","null","fixation","","","","","",""
"","576","html-keynbutton-response","94","2.0.0","1537452","14","<div class=""flex flex-row stim-length pb-8 md:pd-20 justify-evenly items-center""><div class=""circle""></div><div class=""circle""></div><div class=""circle""></div></div>","q","","matchness_test","match","圆","q","true","match"
"","null","html-keynbutton-response","95","2.0.0","1537959","14","<div class=""pb-14 text-7xl"">+</div>","null","fixation","","","","","",""
"","627","html-keynbutton-response","96","2.0.0","1538588","14","<div class=""flex flex-row stim-length pb-8 md:pd-20 justify-evenly items-center""><div class=""square""></div><div class=""circle""></div><div class=""square""></div></div>","p","","matchness_test","mismatch","圆","p","true","mismatch"
"","null","html-keynbutton-response","97","2.0.0","1539094","14","<div class=""pb-14 text-7xl"">+</div>","null","fixation","","","","","",""
"","677","html-keynbutton-response","98","2.0.0","1539772","14","<div class=""flex flex-row stim-length pb-8 md:pd-20 justify-evenly items-center""><div class=""circle""></div><div class=""square""></div><div class=""circle""></div></div>","p","","matchness_test","mismatch","方","p","true","mismatch"
"","null","html-keynbutton-response","99","2.0.0","1540281","14","<div class=""pb-14 text-7xl"">+</div>","null","fixation","","","","","",""
"","577","html-keynbutton-response","100","2.0.0","1540859","14","<div class=""flex flex-row stim-length pb-8 md:pd-20 justify-evenly items-center""><div class=""square""></div><div class=""square""></div><div class=""square""></div></div>","q","","matchness_test","match","方","q","true","match"
"","null","html-keynbutton-response","101","2.0.0","1541365","14","<div class=""pb-14 text-7xl"">+</div>","null","fixation","","","","","",""
"","550","html-keynbutton-response","102","2.0.0","1541916","14","<div class=""flex flex-row stim-length pb-8 md:pd-20 justify-evenly items-center""><div class=""square""></div><div class=""circle""></div><div class=""square""></div></div>","p","","matchness_test","mismatch","圆","p","true","mismatch"
"","null","html-keynbutton-response","103","2.0.0","1542425","14","<div class=""pb-14 text-7xl"">+</div>","null","fixation","","","","","",""
"","514","html-keynbutton-response","104","2.0.0","1542940","14","<div class=""flex flex-row stim-length pb-8 md:pd-20 justify-evenly items-center""><div class=""circle""></div><div class=""square""></div><div class=""circle""></div></div>","q","","matchness_test","mismatch","方","p","false","match"
"","null","html-keynbutton-response","105","2.0.0","1543443","14","<div class=""pb-14 text-7xl"">+</div>","null","fixation","","","","","",""
"","505","html-keynbutton-response","106","2.0.0","1543948","14","<div class=""flex flex-row stim-length pb-8 md:pd-20 justify-evenly items-center""><div class=""circle""></div><div class=""circle""></div><div class=""circle""></div></div>","q","","matchness_test","match","圆","q","true","match"
"","null","html-keynbutton-response","107","2.0.0","1544459","14","<div class=""pb-14 text-7xl"">+</div>","null","fixation","","","","","",""
"","529","html-keynbutton-response","108","2.0.0","1544988","14","<div class=""flex flex-row stim-length pb-8 md:pd-20 justify-evenly items-center""><div class=""square""></div><div class=""square""></div><div class=""square""></div></div>","q","","matchness_test","match","方","q","true","match"
"","null","html-keynbutton-response","109","2.0.0","1545494","14","<div class=""pb-14 text-7xl"">+</div>","null","fixation","","","","","",""
"","565","html-keynbutton-response","110","2.0.0","1546060","14","<div class=""flex flex-row stim-length pb-8 md:pd-20 justify-evenly items-center""><div class=""circle""></div><div class=""square""></div><div class=""circle""></div></div>","p","","matchness_test","mismatch","方","p","true","mismatch"
"","null","html-keynbutton-response","111","2.0.0","1546575","14","<div class=""pb-14 text-7xl"">+</div>","null","fixation","","","","","",""
"","667","html-keynbutton-response","112","2.0.0","1547244","14","<div class=""flex flex-row stim-length pb-8 md:pd-20 justify-evenly items-center""><div class=""circle""></div><div class=""circle""></div><div class=""circle""></div></div>","q","","matchness_test","match","圆","q","true","match"
"","null","html-keynbutton-response","113","2.0.0","1547759","14","<div class=""pb-14 text-7xl"">+</div>","null","fixation","","","","","",""
"","652","html-keynbutton-response","114","2.0.0","1548412","14","<div class=""flex flex-row stim-length pb-8 md:pd-20 justify-evenly items-center""><div class=""square""></div><div class=""circle""></div><div class=""square""></div></div>","p","","matchness_test","mismatch","圆","p","true","mismatch"
"","null","html-keynbutton-response","115","2.0.0","1548925","14","<div class=""pb-14 text-7xl"">+</div>","null","fixation","","","","","",""
"","605","html-keynbutton-response","116","2.0.0","1549531","14","<div class=""flex flex-row stim-length pb-8 md:pd-20 justify-evenly items-center""><div class=""circle""></div><div class=""circle""></div><div class=""circle""></div></div>","q","","matchness_test","match","圆","q","true","match"
"","null","html-keynbutton-response","117","2.0.0","1550042","14","<div class=""pb-14 text-7xl"">+</div>","null","fixation","","","","","",""
"","657","html-keynbutton-response","118","2.0.0","1550700","14","<div class=""flex flex-row stim-length pb-8 md:pd-20 justify-evenly items-center""><div class=""circle""></div><div class=""square""></div><div class=""circle""></div></div>","p","","matchness_test","mismatch","方","p","true","mismatch"
"","null","html-keynbutton-response","119","2.0.0","1551208","14","<div class=""pb-14 text-7xl"">+</div>","null","fixation","","","","","",""
"","611","html-keynbutton-response","120","2.0.0","1551820","14","<div class=""flex flex-row stim-length pb-8 md:pd-20 justify-evenly items-center""><div class=""square""></div><div class=""square""></div><div class=""square""></div></div>","q","","matchness_test","match","方","q","true","match"
"","null","html-keynbutton-response","121","2.0.0","1552327","14","<div class=""pb-14 text-7xl"">+</div>","null","fixation","","","","","",""
"","580","html-keynbutton-response","122","2.0.0","1552908","14","<div class=""flex flex-row stim-length pb-8 md:pd-20 justify-evenly items-center""><div class=""square""></div><div class=""circle""></div><div class=""square""></div></div>","p","","matchness_test","mismatch","圆","p","true","mismatch"
"","null","html-keynbutton-response","123","2.0.0","1553409","14","<div class=""pb-14 text-7xl"">+</div>","null","fixation","","","","","",""
"","634","html-keynbutton-response","124","2.0.0","1554044","14","<div class=""flex flex-row stim-length pb-8 md:pd-20 justify-evenly items-center""><div class=""circle""></div><div class=""square""></div><div class=""circle""></div></div>","p","","matchness_test","mismatch","方","p","true","mismatch"
"","null","html-keynbutton-response","125","2.0.0","1554559","14","<div class=""pb-14 text-7xl"">+</div>","null","fixation","","","","","",""
"","588","html-keynbutton-response","126","2.0.0","1555148","14","<div class=""flex flex-row stim-length pb-8 md:pd-20 justify-evenly items-center""><div class=""circle""></div><div class=""circle""></div><div class=""circle""></div></div>","q","","matchness_test","match","圆","q","true","match"
"","null","html-keynbutton-response","127","2.0.0","1555658","14","<div class=""pb-14 text-7xl"">+</div>","null","fixation","","","","","",""
"","673","html-keynbutton-response","128","2.0.0","1556332","14","<div class=""flex flex-row stim-length pb-8 md:pd-20 justify-evenly items-center""><div class=""square""></div><div class=""square""></div><div class=""square""></div></div>","q","","matchness_test","match","方","q","true","match"
"","null","html-keynbutton-response","129","2.0.0","1556842","14","<div class=""pb-14 text-7xl"">+</div>","null","fixation","","","","","",""
"","577","html-keynbutton-response","130","2.0.0","1557420","14","<div class=""flex flex-row stim-length pb-8 md:pd-20 justify-evenly items-center""><div class=""square""></div><div class=""circle""></div><div class=""square""></div></div>","p","","matchness_test","mismatch","圆","p","true","mismatch"
"","null","html-keynbutton-response","131","2.0.0","1557926","14","<div class=""pb-14 text-7xl"">+</div>","null","fixation","","","","","",""
"","629","html-keynbutton-response","132","2.0.0","1558556","14","<div class=""flex flex-row stim-length pb-8 md:pd-20 justify-evenly items-center""><div class=""square""></div><div class=""square""></div><div class=""square""></div></div>","q","","matchness_test","match","方","q","true","match"
"","null","html-keynbutton-response","133","2.0.0","1559061","14","<div class=""pb-14 text-7xl"">+</div>","null","fixation","","","","","",""
"","598","html-keynbutton-response","134","2.0.0","1559660","14","<div class=""flex flex-row stim-length pb-8 md:pd-20 justify-evenly items-center""><div class=""square""></div><div class=""circle""></div><div class=""square""></div></div>","p","","matchness_test","mismatch","圆","p","true","mismatch"
"","null","html-keynbutton-response","135","2.0.0","1560175","14","<div class=""pb-14 text-7xl"">+</div>","null","fixation","","","","","",""
"","683","html-keynbutton-response","136","2.0.0","1560846","14","<div class=""flex flex-row stim-length pb-8 md:pd-20 justify-evenly items-center""><div class=""circle""></div><div class=""circle""></div><div class=""circle""></div></div>","q","","matchness_test","match","圆","q","true","match"
"","null","html-keynbutton-response","137","2.0.0","1561347","14","<div class=""pb-14 text-7xl"">+</div>","null","fixation","","","","","",""
"","587","html-keynbutton-response","138","2.0.0","1561935","14","<div class=""flex flex-row stim-length pb-8 md:pd-20 justify-evenly items-center""><div class=""circle""></div><div class=""square""></div><div class=""circle""></div></div>","p","","matchness_test","mismatch","方","p","true","mismatch"
"","null","html-keynbutton-response","139","2.0.0","1562446","14","<div class=""pb-14 text-7xl"">+</div>","null","fixation","","","","","",""
"","528","html-keynbutton-response","140","2.0.0","1562975","14","<div class=""flex flex-row stim-length pb-8 md:pd-20 justify-evenly items-center""><div class=""circle""></div><div class=""circle""></div><div class=""circle""></div></div>","q","","matchness_test","match","圆","q","true","match"
"","null","html-keynbutton-response","141","2.0.0","1563482","14","<div class=""pb-14 text-7xl"">+</div>","null","fixation","","","","","",""
"","565","html-keynbutton-response","142","2.0.0","1564047","14","<div class=""flex flex-row stim-length pb-8 md:pd-20 justify-evenly items-center""><div class=""square""></div><div class=""circle""></div><div class=""square""></div></div>","p","","matchness_test","mismatch","圆","p","true","mismatch"
"","null","html-keynbutton-response","143","2.0.0","1564563","14","<div class=""pb-14 text-7xl"">+</div>","null","fixation","","","","","",""
"","539","html-keynbutton-response","144","2.0.0","1565103","14","<div class=""flex flex-row stim-length pb-8 md:pd-20 justify-evenly items-center""><div class=""square""></div><div class=""square""></div><div class=""square""></div></div>","q","","matchness_test","match","方","q","true","match"
"","null","html-keynbutton-response","145","2.0.0","1565613","14","<div class=""pb-14 text-7xl"">+</div>","null","fixation","","","","","",""
"","546","html-keynbutton-response","146","2.0.0","1566159","14","<div class=""flex flex-row stim-length pb-8 md:pd-20 justify-evenly items-center""><div class=""circle""></div><div class=""square""></div><div class=""circle""></div></div>","p","","matchness_test","mismatch","方","p","true","mismatch"
"","9550","html-keynbutton-response","147","2.0.0","1575711","14","<div class=""jp""><p>您已完成1/10部分</p><p>请休息一会儿</p>
    <p>您的正确率是：98%</p>
    <p>您的平均反应时间是：578毫秒</p></div>"," ","block_feedback","","","","","",""
"","null","html-keynbutton-response","148","2.0.0","1578926","14","<count-down title=""""></count-down>","null","countDown_trial","","","","","",""
"","null","html-keynbutton-response","149","2.0.0","1579430","14","<div class=""pb-14 text-7xl"">+</div>","null","fixation","","","","","",""
"","504","html-keynbutton-response","150","2.0.0","1579935","14","<div class=""flex flex-row stim-length pb-8 md:pd-20 justify-evenly items-center""><div class=""circle""></div><div class=""circle""></div><div class=""circle""></div></div>","q","","matchness_test_1","match","圆","q","true","match"
"","null","html-keynbutton-response","151","2.0.0","1580445","14","<div class=""pb-14 text-7xl"">+</div>","null","fixation","","","","","",""
"","545","html-keynbutton-response","152","2.0.0","1580991","14","<div class=""flex flex-row stim-length pb-8 md:pd-20 justify-evenly items-center""><div class=""square""></div><div class=""circle""></div><div class=""square""></div></div>","p","","matchness_test_1","mismatch","圆","p","true","mismatch"
"","null","html-keynbutton-response","153","2.0.0","1581498","14","<div class=""pb-14 text-7xl"">+</div>","null","fixation","","","","","",""
"","500","html-keynbutton-response","154","2.0.0","1581999","14","<div class=""flex flex-row stim-length pb-8 md:pd-20 justify-evenly items-center""><div class=""square""></div><div class=""square""></div><div class=""square""></div></div>","q","","matchness_test_1","match","方","q","true","match"
"","null","html-keynbutton-response","155","2.0.0","1582513","14","<div class=""pb-14 text-7xl"">+</div>","null","fixation","","","","","",""
"","541","html-keynbutton-response","156","2.0.0","1583055","14","<div class=""flex flex-row stim-length pb-8 md:pd-20 justify-evenly items-center""><div class=""circle""></div><div class=""square""></div><div class=""circle""></div></div>","p","","matchness_test_1","mismatch","方","p","true","mismatch"
"","null","html-keynbutton-response","157","2.0.0","1583562","14","<div class=""pb-14 text-7xl"">+</div>","null","fixation","","","","","",""
"","581","html-keynbutton-response","158","2.0.0","1584144","14","<div class=""flex flex-row stim-length pb-8 md:pd-20 justify-evenly items-center""><div class=""circle""></div><div class=""circle""></div><div class=""circle""></div></div>","q","","matchness_test_1","match","圆","q","true","match"
"","null","html-keynbutton-response","159","2.0.0","1584647","14","<div class=""pb-14 text-7xl"">+</div>","null","fixation","","","","","",""
"","552","html-keynbutton-response","160","2.0.0","1585200","14","<div class=""flex flex-row stim-length pb-8 md:pd-20 justify-evenly items-center""><div class=""square""></div><div class=""circle""></div><div class=""square""></div></div>","p","","matchness_test_1","mismatch","圆","p","true","mismatch"
"","null","html-keynbutton-response","161","2.0.0","1585712","14","<div class=""pb-14 text-7xl"">+</div>","null","fixation","","","","","",""
"","622","html-keynbutton-response","162","2.0.0","1586335","14","<div class=""flex flex-row stim-length pb-8 md:pd-20 justify-evenly items-center""><div class=""circle""></div><div class=""square""></div><div class=""circle""></div></div>","p","","matchness_test_1","mismatch","方","p","true","mismatch"
"","null","html-keynbutton-response","163","2.0.0","1586846","14","<div class=""pb-14 text-7xl"">+</div>","null","fixation","","","","","",""
"","449","html-keynbutton-response","164","2.0.0","1587295","14","<div class=""flex flex-row stim-length pb-8 md:pd-20 justify-evenly items-center""><div class=""square""></div><div class=""square""></div><div class=""square""></div></div>","q","","matchness_test_1","match","方","q","true","match"
"","null","html-keynbutton-response","165","2.0.0","1587797","14","<div class=""pb-14 text-7xl"">+</div>","null","fixation","","","","","",""
"","490","html-keynbutton-response","166","2.0.0","1588287","14","<div class=""flex flex-row stim-length pb-8 md:pd-20 justify-evenly items-center""><div class=""square""></div><div class=""square""></div><div class=""square""></div></div>","q","","matchness_test_1","match","方","q","true","match"
"","null","html-keynbutton-response","167","2.0.0","1588796","14","<div class=""pb-14 text-7xl"">+</div>","null","fixation","","","","","",""
"","499","html-keynbutton-response","168","2.0.0","1589295","14","<div class=""flex flex-row stim-length pb-8 md:pd-20 justify-evenly items-center""><div class=""circle""></div><div class=""square""></div><div class=""circle""></div></div>","p","","matchness_test_1","mismatch","方","p","true","mismatch"
"","null","html-keynbutton-response","169","2.0.0","1589798","14","<div class=""pb-14 text-7xl"">+</div>","null","fixation","","","","","",""
"","489","html-keynbutton-response","170","2.0.0","1590287","14","<div class=""flex flex-row stim-length pb-8 md:pd-20 justify-evenly items-center""><div class=""circle""></div><div class=""circle""></div><div class=""circle""></div></div>","q","","matchness_test_1","match","圆","q","true","match"
"","null","html-keynbutton-response","171","2.0.0","1590796","14","<div class=""pb-14 text-7xl"">+</div>","null","fixation","","","","","",""
"","515","html-keynbutton-response","172","2.0.0","1591311","14","<div class=""flex flex-row stim-length pb-8 md:pd-20 justify-evenly items-center""><div class=""square""></div><div class=""circle""></div><div class=""square""></div></div>","p","","matchness_test_1","mismatch","圆","p","true","mismatch"
"","null","html-keynbutton-response","173","2.0.0","1591813","14","<div class=""pb-14 text-7xl"">+</div>","null","fixation","","","","","",""
"","601","html-keynbutton-response","174","2.0.0","1592414","14","<div class=""flex flex-row stim-length pb-8 md:pd-20 justify-evenly items-center""><div class=""circle""></div><div class=""square""></div><div class=""circle""></div></div>","p","","matchness_test_1","mismatch","方","p","true","mismatch"
"","null","html-keynbutton-response","175","2.0.0","1592930","14","<div class=""pb-14 text-7xl"">+</div>","null","fixation","","","","","",""
"","444","html-keynbutton-response","176","2.0.0","1593375","14","<div class=""flex flex-row stim-length pb-8 md:pd-20 justify-evenly items-center""><div class=""circle""></div><div class=""circle""></div><div class=""circle""></div></div>","q","","matchness_test_1","match","圆","q","true","match"
"","null","html-keynbutton-response","177","2.0.0","1593878","14","<div class=""pb-14 text-7xl"">+</div>","null","fixation","","","","","",""
"","568","html-keynbutton-response","178","2.0.0","1594447","14","<div class=""flex flex-row stim-length pb-8 md:pd-20 justify-evenly items-center""><div class=""square""></div><div class=""circle""></div><div class=""square""></div></div>","p","","matchness_test_1","mismatch","圆","p","true","mismatch"
"","null","html-keynbutton-response","179","2.0.0","1594962","14","<div class=""pb-14 text-7xl"">+</div>","null","fixation","","","","","",""
"","571","html-keynbutton-response","180","2.0.0","1595534","14","<div class=""flex flex-row stim-length pb-8 md:pd-20 justify-evenly items-center""><div class=""square""></div><div class=""square""></div><div class=""square""></div></div>","q","","matchness_test_1","match","方","q","true","match"
"","null","html-keynbutton-response","181","2.0.0","1596046","14","<div class=""pb-14 text-7xl"">+</div>","null","fixation","","","","","",""
"","528","html-keynbutton-response","182","2.0.0","1596575","14","<div class=""flex flex-row stim-length pb-8 md:pd-20 justify-evenly items-center""><div class=""circle""></div><div class=""circle""></div><div class=""circle""></div></div>","q","","matchness_test_1","match","圆","q","true","match"
"","null","html-keynbutton-response","183","2.0.0","1597081","14","<div class=""pb-14 text-7xl"">+</div>","null","fixation","","","","","",""
"","581","html-keynbutton-response","184","2.0.0","1597663","14","<div class=""flex flex-row stim-length pb-8 md:pd-20 justify-evenly items-center""><div class=""circle""></div><div class=""square""></div><div class=""circle""></div></div>","p","","matchness_test_1","mismatch","方","p","true","mismatch"
"","null","html-keynbutton-response","185","2.0.0","1598179","14","<div class=""pb-14 text-7xl"">+</div>","null","fixation","","","","","",""
"","618","html-keynbutton-response","186","2.0.0","1598798","14","<div class=""flex flex-row stim-length pb-8 md:pd-20 justify-evenly items-center""><div class=""square""></div><div class=""circle""></div><div class=""square""></div></div>","p","","matchness_test_1","mismatch","圆","p","true","mismatch"
"","null","html-keynbutton-response","187","2.0.0","1599313","14","<div class=""pb-14 text-7xl"">+</div>","null","fixation","","","","","",""
"","525","html-keynbutton-response","188","2.0.0","1599838","14","<div class=""flex flex-row stim-length pb-8 md:pd-20 justify-evenly items-center""><div class=""square""></div><div class=""square""></div><div class=""square""></div></div>","q","","matchness_test_1","match","方","q","true","match"
"","null","html-keynbutton-response","189","2.0.0","1600349","14","<div class=""pb-14 text-7xl"">+</div>","null","fixation","","","","","",""
"","464","html-keynbutton-response","190","2.0.0","1600814","14","<div class=""flex flex-row stim-length pb-8 md:pd-20 justify-evenly items-center""><div class=""circle""></div><div class=""square""></div><div class=""circle""></div></div>","p","","matchness_test_1","mismatch","方","p","true","mismatch"
"","null","html-keynbutton-response","191","2.0.0","1601329","14","<div class=""pb-14 text-7xl"">+</div>","null","fixation","","","","","",""
"","588","html-keynbutton-response","192","2.0.0","1601918","14","<div class=""flex flex-row stim-length pb-8 md:pd-20 justify-evenly items-center""><div class=""square""></div><div class=""square""></div><div class=""square""></div></div>","q","","matchness_test_1","match","方","q","true","match"
"","null","html-keynbutton-response","193","2.0.0","1602429","14","<div class=""pb-14 text-7xl"">+</div>","null","fixation","","","","","",""
"","497","html-keynbutton-response","194","2.0.0","1602927","14","<div class=""flex flex-row stim-length pb-8 md:pd-20 justify-evenly items-center""><div class=""square""></div><div class=""circle""></div><div class=""square""></div></div>","p","","matchness_test_1","mismatch","圆","p","true","mismatch"
"","null","html-keynbutton-response","195","2.0.0","1603430","14","<div class=""pb-14 text-7xl"">+</div>","null","fixation","","","","","",""
"","504","html-keynbutton-response","196","2.0.0","1603935","14","<div class=""flex flex-row stim-length pb-8 md:pd-20 justify-evenly items-center""><div class=""circle""></div><div class=""circle""></div><div class=""circle""></div></div>","q","","matchness_test_1","match","圆","q","true","match"
"","null","html-keynbutton-response","197","2.0.0","1604446","14","<div class=""pb-14 text-7xl"">+</div>","null","fixation","","","","","",""
"","447","html-keynbutton-response","198","2.0.0","1604894","14","<div class=""flex flex-row stim-length pb-8 md:pd-20 justify-evenly items-center""><div class=""square""></div><div class=""square""></div><div class=""square""></div></div>","q","","matchness_test_1","match","方","q","true","match"
"","null","html-keynbutton-response","199","2.0.0","1605397","14","<div class=""pb-14 text-7xl"">+</div>","null","fixation","","","","","",""
"","505","html-keynbutton-response","200","2.0.0","1605902","14","<div class=""flex flex-row stim-length pb-8 md:pd-20 justify-evenly items-center""><div class=""square""></div><div class=""circle""></div><div class=""square""></div></div>","p","","matchness_test_1","mismatch","圆","p","true","mismatch"
"","null","html-keynbutton-response","201","2.0.0","1606413","14","<div class=""pb-14 text-7xl"">+</div>","null","fixation","","","","","",""
"","561","html-keynbutton-response","202","2.0.0","1606975","14","<div class=""flex flex-row stim-length pb-8 md:pd-20 justify-evenly items-center""><div class=""circle""></div><div class=""circle""></div><div class=""circle""></div></div>","q","","matchness_test_1","match","圆","q","true","match"
"","null","html-keynbutton-response","203","2.0.0","1607481","14","<div class=""pb-14 text-7xl"">+</div>","null","fixation","","","","","",""
"","485","html-keynbutton-response","204","2.0.0","1607966","14","<div class=""flex flex-row stim-length pb-8 md:pd-20 justify-evenly items-center""><div class=""circle""></div><div class=""square""></div><div class=""circle""></div></div>","p","","matchness_test_1","mismatch","方","p","true","mismatch"
"","null","html-keynbutton-response","205","2.0.0","1608479","14","<div class=""pb-14 text-7xl"">+</div>","null","fixation","","","","","",""
"","527","html-keynbutton-response","206","2.0.0","1609007","14","<div class=""flex flex-row stim-length pb-8 md:pd-20 justify-evenly items-center""><div class=""square""></div><div class=""circle""></div><div class=""square""></div></div>","p","","matchness_test_1","mismatch","圆","p","true","mismatch"
"","null","html-keynbutton-response","207","2.0.0","1609513","14","<div class=""pb-14 text-7xl"">+</div>","null","fixation","","","","","",""
"","533","html-keynbutton-response","208","2.0.0","1610047","14","<div class=""flex flex-row stim-length pb-8 md:pd-20 justify-evenly items-center""><div class=""square""></div><div class=""square""></div><div class=""square""></div></div>","q","","matchness_test_1","match","方","q","true","match"
"","null","html-keynbutton-response","209","2.0.0","1610562","14","<div class=""pb-14 text-7xl"">+</div>","null","fixation","","","","","",""
"","540","html-keynbutton-response","210","2.0.0","1611103","14","<div class=""flex flex-row stim-length pb-8 md:pd-20 justify-evenly items-center""><div class=""circle""></div><div class=""square""></div><div class=""circle""></div></div>","p","","matchness_test_1","mismatch","方","p","true","mismatch"
"","null","html-keynbutton-response","211","2.0.0","1611612","14","<div class=""pb-14 text-7xl"">+</div>","null","fixation","","","","","",""
"","563","html-keynbutton-response","212","2.0.0","1612175","14","<div class=""flex flex-row stim-length pb-8 md:pd-20 justify-evenly items-center""><div class=""circle""></div><div class=""circle""></div><div class=""circle""></div></div>","q","","matchness_test_1","match","圆","q","true","match"
"","null","html-keynbutton-response","213","2.0.0","1612681","14","<div class=""pb-14 text-7xl"">+</div>","null","fixation","","","","","",""
"","485","html-keynbutton-response","214","2.0.0","1613167","14","<div class=""flex flex-row stim-length pb-8 md:pd-20 justify-evenly items-center""><div class=""circle""></div><div class=""circle""></div><div class=""circle""></div></div>","q","","matchness_test_1","match","圆","q","true","match"
"","null","html-keynbutton-response","215","2.0.0","1613680","14","<div class=""pb-14 text-7xl"">+</div>","null","fixation","","","","","",""
"","543","html-keynbutton-response","216","2.0.0","1614223","14","<div class=""flex flex-row stim-length pb-8 md:pd-20 justify-evenly items-center""><div class=""square""></div><div class=""square""></div><div class=""square""></div></div>","q","","matchness_test_1","match","方","q","true","match"
"","null","html-keynbutton-response","217","2.0.0","1614730","14","<div class=""pb-14 text-7xl"">+</div>","null","fixation","","","","","",""
"","532","html-keynbutton-response","218","2.0.0","1615263","14","<div class=""flex flex-row stim-length pb-8 md:pd-20 justify-evenly items-center""><div class=""square""></div><div class=""circle""></div><div class=""square""></div></div>","p","","matchness_test_1","mismatch","圆","p","true","mismatch"
"","null","html-keynbutton-response","219","2.0.0","1615779","14","<div class=""pb-14 text-7xl"">+</div>","null","fixation","","","","","",""
"","603","html-keynbutton-response","220","2.0.0","1616383","14","<div class=""flex flex-row stim-length pb-8 md:pd-20 justify-evenly items-center""><div class=""circle""></div><div class=""square""></div><div class=""circle""></div></div>","p","","matchness_test_1","mismatch","方","p","true","mismatch"
"","null","html-keynbutton-response","221","2.0.0","1616895","14","<div class=""pb-14 text-7xl"">+</div>","null","fixation","","","","","",""
"","543","html-keynbutton-response","222","2.0.0","1617439","14","<div class=""flex flex-row stim-length pb-8 md:pd-20 justify-evenly items-center""><div class=""circle""></div><div class=""square""></div><div class=""circle""></div></div>","p","","matchness_test_1","mismatch","方","p","true","mismatch"
"","null","html-keynbutton-response","223","2.0.0","1617947","14","<div class=""pb-14 text-7xl"">+</div>","null","fixation","","","","","",""
"","532","html-keynbutton-response","224","2.0.0","1618480","14","<div class=""flex flex-row stim-length pb-8 md:pd-20 justify-evenly items-center""><div class=""square""></div><div class=""circle""></div><div class=""square""></div></div>","p","","matchness_test_1","mismatch","圆","p","true","mismatch"
"","null","html-keynbutton-response","225","2.0.0","1618981","14","<div class=""pb-14 text-7xl"">+</div>","null","fixation","","","","","",""
"","554","html-keynbutton-response","226","2.0.0","1619535","14","<div class=""flex flex-row stim-length pb-8 md:pd-20 justify-evenly items-center""><div class=""square""></div><div class=""square""></div><div class=""square""></div></div>","q","","matchness_test_1","match","方","q","true","match"
"","null","html-keynbutton-response","227","2.0.0","1620045","14","<div class=""pb-14 text-7xl"">+</div>","null","fixation","","","","","",""
"","497","html-keynbutton-response","228","2.0.0","1620543","14","<div class=""flex flex-row stim-length pb-8 md:pd-20 justify-evenly items-center""><div class=""circle""></div><div class=""circle""></div><div class=""circle""></div></div>","q","","matchness_test_1","match","圆","q","true","match"
"","3998","html-keynbutton-response","229","2.0.0","1624543","14","<div class=""jp""><p>您已完成2/10部分</p><p>请休息一会儿</p>
    <p>您的正确率是：100%</p>
    <p>您的平均反应时间是：531毫秒</p></div>"," ","block_feedback","","","","","",""
"","null","html-keynbutton-response","230","2.0.0","1627760","14","<count-down title=""""></count-down>","null","countDown_trial","","","","","",""
"","null","html-keynbutton-response","231","2.0.0","1628264","14","<div class=""pb-14 text-7xl"">+</div>","null","fixation","","","","","",""
"","503","html-keynbutton-response","232","2.0.0","1628767","14","<div class=""flex flex-row stim-length pb-8 md:pd-20 justify-evenly items-center""><div class=""square""></div><div class=""circle""></div><div class=""square""></div></div>","p","","matchness_test_2","mismatch","圆","p","true","mismatch"
"","null","html-keynbutton-response","233","2.0.0","1629279","14","<div class=""pb-14 text-7xl"">+</div>","null","fixation","","","","","",""
"","575","html-keynbutton-response","234","2.0.0","1629855","14","<div class=""flex flex-row stim-length pb-8 md:pd-20 justify-evenly items-center""><div class=""circle""></div><div class=""square""></div><div class=""circle""></div></div>","p","","matchness_test_2","mismatch","方","p","true","mismatch"
"","null","html-keynbutton-response","235","2.0.0","1630362","14","<div class=""pb-14 text-7xl"">+</div>","null","fixation","","","","","",""
"","484","html-keynbutton-response","236","2.0.0","1630847","14","<div class=""flex flex-row stim-length pb-8 md:pd-20 justify-evenly items-center""><div class=""circle""></div><div class=""circle""></div><div class=""circle""></div></div>","q","","matchness_test_2","match","圆","q","true","match"
"","null","html-keynbutton-response","237","2.0.0","1631363","14","<div class=""pb-14 text-7xl"">+</div>","null","fixation","","","","","",""
"","459","html-keynbutton-response","238","2.0.0","1631823","14","<div class=""flex flex-row stim-length pb-8 md:pd-20 justify-evenly items-center""><div class=""square""></div><div class=""square""></div><div class=""square""></div></div>","q","","matchness_test_2","match","方","q","true","match"
"","null","html-keynbutton-response","239","2.0.0","1632330","14","<div class=""pb-14 text-7xl"">+</div>","null","fixation","","","","","",""
"","500","html-keynbutton-response","240","2.0.0","1632831","14","<div class=""flex flex-row stim-length pb-8 md:pd-20 justify-evenly items-center""><div class=""circle""></div><div class=""square""></div><div class=""circle""></div></div>","p","","matchness_test_2","mismatch","方","p","true","mismatch"
"","null","html-keynbutton-response","241","2.0.0","1633346","14","<div class=""pb-14 text-7xl"">+</div>","null","fixation","","","","","",""
"","476","html-keynbutton-response","242","2.0.0","1633823","14","<div class=""flex flex-row stim-length pb-8 md:pd-20 justify-evenly items-center""><div class=""square""></div><div class=""circle""></div><div class=""square""></div></div>","p","","matchness_test_2","mismatch","圆","p","true","mismatch"
"","null","html-keynbutton-response","243","2.0.0","1634330","14","<div class=""pb-14 text-7xl"">+</div>","null","fixation","","","","","",""
"","500","html-keynbutton-response","244","2.0.0","1634832","14","<div class=""flex flex-row stim-length pb-8 md:pd-20 justify-evenly items-center""><div class=""circle""></div><div class=""circle""></div><div class=""circle""></div></div>","q","","matchness_test_2","match","圆","q","true","match"
"","null","html-keynbutton-response","245","2.0.0","1635346","14","<div class=""pb-14 text-7xl"">+</div>","null","fixation","","","","","",""
"","460","html-keynbutton-response","246","2.0.0","1635807","14","<div class=""flex flex-row stim-length pb-8 md:pd-20 justify-evenly items-center""><div class=""square""></div><div class=""square""></div><div class=""square""></div></div>","q","","matchness_test_2","match","方","q","true","match"
"","null","html-keynbutton-response","247","2.0.0","1636313","14","<div class=""pb-14 text-7xl"">+</div>","null","fixation","","","","","",""
"","421","html-keynbutton-response","248","2.0.0","1636735","14","<div class=""flex flex-row stim-length pb-8 md:pd-20 justify-evenly items-center""><div class=""square""></div><div class=""square""></div><div class=""square""></div></div>","q","","matchness_test_2","match","方","q","true","match"
"","null","html-keynbutton-response","249","2.0.0","1637247","14","<div class=""pb-14 text-7xl"">+</div>","null","fixation","","","","","",""
"","496","html-keynbutton-response","250","2.0.0","1637743","14","<div class=""flex flex-row stim-length pb-8 md:pd-20 justify-evenly items-center""><div class=""square""></div><div class=""circle""></div><div class=""square""></div></div>","p","","matchness_test_2","mismatch","圆","p","true","mismatch"
"","null","html-keynbutton-response","251","2.0.0","1638247","14","<div class=""pb-14 text-7xl"">+</div>","null","fixation","","","","","",""
"","520","html-keynbutton-response","252","2.0.0","1638767","14","<div class=""flex flex-row stim-length pb-8 md:pd-20 justify-evenly items-center""><div class=""circle""></div><div class=""square""></div><div class=""circle""></div></div>","p","","matchness_test_2","mismatch","方","p","true","mismatch"
"","null","html-keynbutton-response","253","2.0.0","1639274","14","<div class=""pb-14 text-7xl"">+</div>","null","fixation","","","","","",""
"","548","html-keynbutton-response","254","2.0.0","1639823","14","<div class=""flex flex-row stim-length pb-8 md:pd-20 justify-evenly items-center""><div class=""circle""></div><div class=""circle""></div><div class=""circle""></div></div>","q","","matchness_test_2","match","圆","q","true","match"
"","null","html-keynbutton-response","255","2.0.0","1640330","14","<div class=""pb-14 text-7xl"">+</div>","null","fixation","","","","","",""
"","547","html-keynbutton-response","256","2.0.0","1640878","14","<div class=""flex flex-row stim-length pb-8 md:pd-20 justify-evenly items-center""><div class=""square""></div><div class=""circle""></div><div class=""square""></div></div>","p","","matchness_test_2","mismatch","圆","p","true","mismatch"
"","null","html-keynbutton-response","257","2.0.0","1641380","14","<div class=""pb-14 text-7xl"">+</div>","null","fixation","","","","","",""
"","538","html-keynbutton-response","258","2.0.0","1641919","14","<div class=""flex flex-row stim-length pb-8 md:pd-20 justify-evenly items-center""><div class=""square""></div><div class=""square""></div><div class=""square""></div></div>","q","","matchness_test_2","match","方","q","true","match"
"","null","html-keynbutton-response","259","2.0.0","1642430","14","<div class=""pb-14 text-7xl"">+</div>","null","fixation","","","","","",""
"","529","html-keynbutton-response","260","2.0.0","1642959","14","<div class=""flex flex-row stim-length pb-8 md:pd-20 justify-evenly items-center""><div class=""circle""></div><div class=""square""></div><div class=""circle""></div></div>","p","","matchness_test_2","mismatch","方","p","true","mismatch"
"","null","html-keynbutton-response","261","2.0.0","1643463","14","<div class=""pb-14 text-7xl"">+</div>","null","fixation","","","","","",""
"","454","html-keynbutton-response","262","2.0.0","1643919","14","<div class=""flex flex-row stim-length pb-8 md:pd-20 justify-evenly items-center""><div class=""circle""></div><div class=""circle""></div><div class=""circle""></div></div>","q","","matchness_test_2","match","圆","q","true","match"
"","null","html-keynbutton-response","263","2.0.0","1644429","14","<div class=""pb-14 text-7xl"">+</div>","null","fixation","","","","","",""
"","673","html-keynbutton-response","264","2.0.0","1645102","14","<div class=""flex flex-row stim-length pb-8 md:pd-20 justify-evenly items-center""><div class=""square""></div><div class=""square""></div><div class=""square""></div></div>","q","","matchness_test_2","match","方","q","true","match"
"","null","html-keynbutton-response","265","2.0.0","1645612","14","<div class=""pb-14 text-7xl"">+</div>","null","fixation","","","","","",""
"","513","html-keynbutton-response","266","2.0.0","1646126","14","<div class=""flex flex-row stim-length pb-8 md:pd-20 justify-evenly items-center""><div class=""circle""></div><div class=""square""></div><div class=""circle""></div></div>","p","","matchness_test_2","mismatch","方","p","true","mismatch"
"","null","html-keynbutton-response","267","2.0.0","1646630","14","<div class=""pb-14 text-7xl"">+</div>","null","fixation","","","","","",""
"","535","html-keynbutton-response","268","2.0.0","1647166","14","<div class=""flex flex-row stim-length pb-8 md:pd-20 justify-evenly items-center""><div class=""circle""></div><div class=""circle""></div><div class=""circle""></div></div>","q","","matchness_test_2","match","圆","q","true","match"
"","null","html-keynbutton-response","269","2.0.0","1647679","14","<div class=""pb-14 text-7xl"">+</div>","null","fixation","","","","","",""
"","494","html-keynbutton-response","270","2.0.0","1648174","14","<div class=""flex flex-row stim-length pb-8 md:pd-20 justify-evenly items-center""><div class=""square""></div><div class=""circle""></div><div class=""square""></div></div>","p","","matchness_test_2","mismatch","圆","p","true","mismatch"
"","null","html-keynbutton-response","271","2.0.0","1648687","14","<div class=""pb-14 text-7xl"">+</div>","null","fixation","","","","","",""
"","527","html-keynbutton-response","272","2.0.0","1649215","14","<div class=""flex flex-row stim-length pb-8 md:pd-20 justify-evenly items-center""><div class=""square""></div><div class=""circle""></div><div class=""square""></div></div>","p","","matchness_test_2","mismatch","圆","p","true","mismatch"
"","null","html-keynbutton-response","273","2.0.0","1649730","14","<div class=""pb-14 text-7xl"">+</div>","null","fixation","","","","","",""
"","524","html-keynbutton-response","274","2.0.0","1650255","14","<div class=""flex flex-row stim-length pb-8 md:pd-20 justify-evenly items-center""><div class=""circle""></div><div class=""circle""></div><div class=""circle""></div></div>","q","","matchness_test_2","match","圆","q","true","match"
"","null","html-keynbutton-response","275","2.0.0","1650762","14","<div class=""pb-14 text-7xl"">+</div>","null","fixation","","","","","",""
"","501","html-keynbutton-response","276","2.0.0","1651263","14","<div class=""flex flex-row stim-length pb-8 md:pd-20 justify-evenly items-center""><div class=""square""></div><div class=""square""></div><div class=""square""></div></div>","q","","matchness_test_2","match","方","q","true","match"
"","null","html-keynbutton-response","277","2.0.0","1651779","14","<div class=""pb-14 text-7xl"">+</div>","null","fixation","","","","","",""
"","523","html-keynbutton-response","278","2.0.0","1652303","14","<div class=""flex flex-row stim-length pb-8 md:pd-20 justify-evenly items-center""><div class=""circle""></div><div class=""square""></div><div class=""circle""></div></div>","p","","matchness_test_2","mismatch","方","p","true","mismatch"
"","null","html-keynbutton-response","279","2.0.0","1652813","14","<div class=""pb-14 text-7xl"">+</div>","null","fixation","","","","","",""
"","593","html-keynbutton-response","280","2.0.0","1653407","14","<div class=""flex flex-row stim-length pb-8 md:pd-20 justify-evenly items-center""><div class=""circle""></div><div class=""square""></div><div class=""circle""></div></div>","p","","matchness_test_2","mismatch","方","p","true","mismatch"
"","null","html-keynbutton-response","281","2.0.0","1653914","14","<div class=""pb-14 text-7xl"">+</div>","null","fixation","","","","","",""
"","804","html-keynbutton-response","282","2.0.0","1654719","14","<div class=""flex flex-row stim-length pb-8 md:pd-20 justify-evenly items-center""><div class=""square""></div><div class=""circle""></div><div class=""square""></div></div>","p","","matchness_test_2","mismatch","圆","p","true","mismatch"
"","null","html-keynbutton-response","283","2.0.0","1655229","14","<div class=""pb-14 text-7xl"">+</div>","null","fixation","","","","","",""
"","482","html-keynbutton-response","284","2.0.0","1655711","14","<div class=""flex flex-row stim-length pb-8 md:pd-20 justify-evenly items-center""><div class=""square""></div><div class=""square""></div><div class=""square""></div></div>","q","","matchness_test_2","match","方","q","true","match"
"","null","html-keynbutton-response","285","2.0.0","1656213","14","<div class=""pb-14 text-7xl"">+</div>","null","fixation","","","","","",""
"","442","html-keynbutton-response","286","2.0.0","1656655","14","<div class=""flex flex-row stim-length pb-8 md:pd-20 justify-evenly items-center""><div class=""circle""></div><div class=""circle""></div><div class=""circle""></div></div>","q","","matchness_test_2","match","圆","q","true","match"
"","null","html-keynbutton-response","287","2.0.0","1657163","14","<div class=""pb-14 text-7xl"">+</div>","null","fixation","","","","","",""
"","515","html-keynbutton-response","288","2.0.0","1657679","14","<div class=""flex flex-row stim-length pb-8 md:pd-20 justify-evenly items-center""><div class=""circle""></div><div class=""square""></div><div class=""circle""></div></div>","p","","matchness_test_2","mismatch","方","p","true","mismatch"
"","null","html-keynbutton-response","289","2.0.0","1658195","14","<div class=""pb-14 text-7xl"">+</div>","null","fixation","","","","","",""
"","475","html-keynbutton-response","290","2.0.0","1658671","14","<div class=""flex flex-row stim-length pb-8 md:pd-20 justify-evenly items-center""><div class=""square""></div><div class=""square""></div><div class=""square""></div></div>","q","","matchness_test_2","match","方","q","true","match"
"","null","html-keynbutton-response","291","2.0.0","1659179","14","<div class=""pb-14 text-7xl"">+</div>","null","fixation","","","","","",""
"","515","html-keynbutton-response","292","2.0.0","1659695","14","<div class=""flex flex-row stim-length pb-8 md:pd-20 justify-evenly items-center""><div class=""square""></div><div class=""circle""></div><div class=""square""></div></div>","p","","matchness_test_2","mismatch","圆","p","true","mismatch"
"","null","html-keynbutton-response","293","2.0.0","1660212","14","<div class=""pb-14 text-7xl"">+</div>","null","fixation","","","","","",""
"","443","html-keynbutton-response","294","2.0.0","1660655","14","<div class=""flex flex-row stim-length pb-8 md:pd-20 justify-evenly items-center""><div class=""circle""></div><div class=""circle""></div><div class=""circle""></div></div>","q","","matchness_test_2","match","圆","q","true","match"
"","null","html-keynbutton-response","295","2.0.0","1661162","14","<div class=""pb-14 text-7xl"">+</div>","null","fixation","","","","","",""
"","563","html-keynbutton-response","296","2.0.0","1661726","14","<div class=""flex flex-row stim-length pb-8 md:pd-20 justify-evenly items-center""><div class=""circle""></div><div class=""square""></div><div class=""circle""></div></div>","p","","matchness_test_2","mismatch","方","p","true","mismatch"
"","null","html-keynbutton-response","297","2.0.0","1662230","14","<div class=""pb-14 text-7xl"">+</div>","null","fixation","","","","","",""
"","440","html-keynbutton-response","298","2.0.0","1662671","14","<div class=""flex flex-row stim-length pb-8 md:pd-20 justify-evenly items-center""><div class=""square""></div><div class=""square""></div><div class=""square""></div></div>","q","","matchness_test_2","match","方","q","true","match"
"","null","html-keynbutton-response","299","2.0.0","1663179","14","<div class=""pb-14 text-7xl"">+</div>","null","fixation","","","","","",""
"","484","html-keynbutton-response","300","2.0.0","1663663","14","<div class=""flex flex-row stim-length pb-8 md:pd-20 justify-evenly items-center""><div class=""square""></div><div class=""circle""></div><div class=""square""></div></div>","p","","matchness_test_2","mismatch","圆","p","true","mismatch"
"","null","html-keynbutton-response","301","2.0.0","1664164","14","<div class=""pb-14 text-7xl"">+</div>","null","fixation","","","","","",""
"","426","html-keynbutton-response","302","2.0.0","1664591","14","<div class=""flex flex-row stim-length pb-8 md:pd-20 justify-evenly items-center""><div class=""circle""></div><div class=""circle""></div><div class=""circle""></div></div>","q","","matchness_test_2","match","圆","q","true","match"
"","null","html-keynbutton-response","303","2.0.0","1665098","14","<div class=""pb-14 text-7xl"">+</div>","null","fixation","","","","","",""
"","516","html-keynbutton-response","304","2.0.0","1665615","14","<div class=""flex flex-row stim-length pb-8 md:pd-20 justify-evenly items-center""><div class=""circle""></div><div class=""square""></div><div class=""circle""></div></div>","p","","matchness_test_2","mismatch","方","p","true","mismatch"
"","null","html-keynbutton-response","305","2.0.0","1666130","14","<div class=""pb-14 text-7xl"">+</div>","null","fixation","","","","","",""
"","508","html-keynbutton-response","306","2.0.0","1666639","14","<div class=""flex flex-row stim-length pb-8 md:pd-20 justify-evenly items-center""><div class=""square""></div><div class=""circle""></div><div class=""square""></div></div>","q","","matchness_test_2","mismatch","圆","p","false","match"
"","null","html-keynbutton-response","307","2.0.0","1667147","14","<div class=""pb-14 text-7xl"">+</div>","null","fixation","","","","","",""
"","531","html-keynbutton-response","308","2.0.0","1667679","14","<div class=""flex flex-row stim-length pb-8 md:pd-20 justify-evenly items-center""><div class=""circle""></div><div class=""circle""></div><div class=""circle""></div></div>","q","","matchness_test_2","match","圆","q","true","match"
"","null","html-keynbutton-response","309","2.0.0","1668181","14","<div class=""pb-14 text-7xl"">+</div>","null","fixation","","","","","",""
"","521","html-keynbutton-response","310","2.0.0","1668703","14","<div class=""flex flex-row stim-length pb-8 md:pd-20 justify-evenly items-center""><div class=""square""></div><div class=""square""></div><div class=""square""></div></div>","q","","matchness_test_2","match","方","q","true","match"
"","2558","html-keynbutton-response","311","2.0.0","1671263","14","<div class=""jp""><p>您已完成3/10部分</p><p>请休息一会儿</p>
    <p>您的正确率是：98%</p>
    <p>您的平均反应时间是：514毫秒</p></div>"," ","block_feedback","","","","","",""
"","null","html-keynbutton-response","312","2.0.0","1674477","14","<count-down title=""""></count-down>","null","countDown_trial","","","","","",""
"","null","html-keynbutton-response","313","2.0.0","1674980","14","<div class=""pb-14 text-7xl"">+</div>","null","fixation","","","","","",""
"","586","html-keynbutton-response","314","2.0.0","1675567","14","<div class=""flex flex-row stim-length pb-8 md:pd-20 justify-evenly items-center""><div class=""circle""></div><div class=""square""></div><div class=""circle""></div></div>","p","","matchness_test_3","mismatch","方","p","true","mismatch"
"","null","html-keynbutton-response","315","2.0.0","1676079","14","<div class=""pb-14 text-7xl"">+</div>","null","fixation","","","","","",""
"","479","html-keynbutton-response","316","2.0.0","1676559","14","<div class=""flex flex-row stim-length pb-8 md:pd-20 justify-evenly items-center""><div class=""circle""></div><div class=""circle""></div><div class=""circle""></div></div>","q","","matchness_test_3","match","圆","q","true","match"
"","null","html-keynbutton-response","317","2.0.0","1677064","14","<div class=""pb-14 text-7xl"">+</div>","null","fixation","","","","","",""
"","551","html-keynbutton-response","318","2.0.0","1677615","14","<div class=""flex flex-row stim-length pb-8 md:pd-20 justify-evenly items-center""><div class=""square""></div><div class=""circle""></div><div class=""square""></div></div>","p","","matchness_test_3","mismatch","圆","p","true","mismatch"
"","null","html-keynbutton-response","319","2.0.0","1678130","14","<div class=""pb-14 text-7xl"">+</div>","null","fixation","","","","","",""
"","476","html-keynbutton-response","320","2.0.0","1678607","14","<div class=""flex flex-row stim-length pb-8 md:pd-20 justify-evenly items-center""><div class=""square""></div><div class=""square""></div><div class=""square""></div></div>","q","","matchness_test_3","match","方","q","true","match"
"","null","html-keynbutton-response","321","2.0.0","1679114","14","<div class=""pb-14 text-7xl"">+</div>","null","fixation","","","","","",""
"","580","html-keynbutton-response","322","2.0.0","1679695","14","<div class=""flex flex-row stim-length pb-8 md:pd-20 justify-evenly items-center""><div class=""square""></div><div class=""circle""></div><div class=""square""></div></div>","p","","matchness_test_3","mismatch","圆","p","true","mismatch"
"","null","html-keynbutton-response","323","2.0.0","1680197","14","<div class=""pb-14 text-7xl"">+</div>","null","fixation","","","","","",""
"","585","html-keynbutton-response","324","2.0.0","1680783","14","<div class=""flex flex-row stim-length pb-8 md:pd-20 justify-evenly items-center""><div class=""circle""></div><div class=""square""></div><div class=""circle""></div></div>","p","","matchness_test_3","mismatch","方","p","true","mismatch"
"","null","html-keynbutton-response","325","2.0.0","1681296","14","<div class=""pb-14 text-7xl"">+</div>","null","fixation","","","","","",""
"","590","html-keynbutton-response","326","2.0.0","1681887","14","<div class=""flex flex-row stim-length pb-8 md:pd-20 justify-evenly items-center""><div class=""circle""></div><div class=""circle""></div><div class=""circle""></div></div>","q","","matchness_test_3","match","圆","q","true","match"
"","null","html-keynbutton-response","327","2.0.0","1682396","14","<div class=""pb-14 text-7xl"">+</div>","null","fixation","","","","","",""
"","691","html-keynbutton-response","328","2.0.0","1683086","14","<div class=""flex flex-row stim-length pb-8 md:pd-20 justify-evenly items-center""><div class=""square""></div><div class=""square""></div><div class=""square""></div></div>","q","","matchness_test_3","match","方","q","true","match"
"","null","html-keynbutton-response","329","2.0.0","1683596","14","<div class=""pb-14 text-7xl"">+</div>","null","fixation","","","","","",""
"","530","html-keynbutton-response","330","2.0.0","1684127","14","<div class=""flex flex-row stim-length pb-8 md:pd-20 justify-evenly items-center""><div class=""square""></div><div class=""square""></div><div class=""square""></div></div>","q","","matchness_test_3","match","方","q","true","match"
"","null","html-keynbutton-response","331","2.0.0","1684643","14","<div class=""pb-14 text-7xl"">+</div>","null","fixation","","","","","",""
"","472","html-keynbutton-response","332","2.0.0","1685116","14","<div class=""flex flex-row stim-length pb-8 md:pd-20 justify-evenly items-center""><div class=""square""></div><div class=""circle""></div><div class=""square""></div></div>","p","","matchness_test_3","mismatch","圆","p","true","mismatch"
"","null","html-keynbutton-response","333","2.0.0","1685626","14","<div class=""pb-14 text-7xl"">+</div>","null","fixation","","","","","",""
"","593","html-keynbutton-response","334","2.0.0","1686220","14","<div class=""flex flex-row stim-length pb-8 md:pd-20 justify-evenly items-center""><div class=""circle""></div><div class=""square""></div><div class=""circle""></div></div>","p","","matchness_test_3","mismatch","方","p","true","mismatch"
"","null","html-keynbutton-response","335","2.0.0","1686726","14","<div class=""pb-14 text-7xl"">+</div>","null","fixation","","","","","",""
"","597","html-keynbutton-response","336","2.0.0","1687324","14","<div class=""flex flex-row stim-length pb-8 md:pd-20 justify-evenly items-center""><div class=""circle""></div><div class=""circle""></div><div class=""circle""></div></div>","q","","matchness_test_3","match","圆","q","true","match"
"","null","html-keynbutton-response","337","2.0.0","1687827","14","<div class=""pb-14 text-7xl"">+</div>","null","fixation","","","","","",""
"","535","html-keynbutton-response","338","2.0.0","1688363","14","<div class=""flex flex-row stim-length pb-8 md:pd-20 justify-evenly items-center""><div class=""circle""></div><div class=""circle""></div><div class=""circle""></div></div>","q","","matchness_test_3","match","圆","q","true","match"
"","null","html-keynbutton-response","339","2.0.0","1688875","14","<div class=""pb-14 text-7xl"">+</div>","null","fixation","","","","","",""
"","608","html-keynbutton-response","340","2.0.0","1689483","14","<div class=""flex flex-row stim-length pb-8 md:pd-20 justify-evenly items-center""><div class=""square""></div><div class=""circle""></div><div class=""square""></div></div>","p","","matchness_test_3","mismatch","圆","p","true","mismatch"
"","null","html-keynbutton-response","341","2.0.0","1689993","14","<div class=""pb-14 text-7xl"">+</div>","null","fixation","","","","","",""
"","739","html-keynbutton-response","342","2.0.0","1690732","14","<div class=""flex flex-row stim-length pb-8 md:pd-20 justify-evenly items-center""><div class=""circle""></div><div class=""square""></div><div class=""circle""></div></div>","p","","matchness_test_3","mismatch","方","p","true","mismatch"
"","null","html-keynbutton-response","343","2.0.0","1691243","14","<div class=""pb-14 text-7xl"">+</div>","null","fixation","","","","","",""
"","545","html-keynbutton-response","344","2.0.0","1691788","14","<div class=""flex flex-row stim-length pb-8 md:pd-20 justify-evenly items-center""><div class=""square""></div><div class=""square""></div><div class=""square""></div></div>","q","","matchness_test_3","match","方","q","true","match"
"","null","html-keynbutton-response","345","2.0.0","1692294","14","<div class=""pb-14 text-7xl"">+</div>","null","fixation","","","","","",""
"","469","html-keynbutton-response","346","2.0.0","1692764","14","<div class=""flex flex-row stim-length pb-8 md:pd-20 justify-evenly items-center""><div class=""square""></div><div class=""square""></div><div class=""square""></div></div>","q","","matchness_test_3","match","方","q","true","match"
"","null","html-keynbutton-response","347","2.0.0","1693275","14","<div class=""pb-14 text-7xl"">+</div>","null","fixation","","","","","",""
"","544","html-keynbutton-response","348","2.0.0","1693820","14","<div class=""flex flex-row stim-length pb-8 md:pd-20 justify-evenly items-center""><div class=""circle""></div><div class=""square""></div><div class=""circle""></div></div>","p","","matchness_test_3","mismatch","方","p","true","mismatch"
"","null","html-keynbutton-response","349","2.0.0","1694326","14","<div class=""pb-14 text-7xl"">+</div>","null","fixation","","","","","",""
"","533","html-keynbutton-response","350","2.0.0","1694860","14","<div class=""flex flex-row stim-length pb-8 md:pd-20 justify-evenly items-center""><div class=""circle""></div><div class=""circle""></div><div class=""circle""></div></div>","q","","matchness_test_3","match","圆","q","true","match"
"","null","html-keynbutton-response","351","2.0.0","1695376","14","<div class=""pb-14 text-7xl"">+</div>","null","fixation","","","","","",""
"","523","html-keynbutton-response","352","2.0.0","1695900","14","<div class=""flex flex-row stim-length pb-8 md:pd-20 justify-evenly items-center""><div class=""square""></div><div class=""circle""></div><div class=""square""></div></div>","p","","matchness_test_3","mismatch","圆","p","true","mismatch"
"","null","html-keynbutton-response","353","2.0.0","1696408","14","<div class=""pb-14 text-7xl"">+</div>","null","fixation","","","","","",""
"","532","html-keynbutton-response","354","2.0.0","1696940","14","<div class=""flex flex-row stim-length pb-8 md:pd-20 justify-evenly items-center""><div class=""square""></div><div class=""circle""></div><div class=""square""></div></div>","p","","matchness_test_3","mismatch","圆","p","true","mismatch"
"","null","html-keynbutton-response","355","2.0.0","1697444","14","<div class=""pb-14 text-7xl"">+</div>","null","fixation","","","","","",""
"","616","html-keynbutton-response","356","2.0.0","1698060","14","<div class=""flex flex-row stim-length pb-8 md:pd-20 justify-evenly items-center""><div class=""circle""></div><div class=""square""></div><div class=""circle""></div></div>","p","","matchness_test_3","mismatch","方","p","true","mismatch"
"","null","html-keynbutton-response","357","2.0.0","1698576","14","<div class=""pb-14 text-7xl"">+</div>","null","fixation","","","","","",""
"","651","html-keynbutton-response","358","2.0.0","1699228","14","<div class=""flex flex-row stim-length pb-8 md:pd-20 justify-evenly items-center""><div class=""square""></div><div class=""square""></div><div class=""square""></div></div>","q","","matchness_test_3","match","方","q","true","match"
"","null","html-keynbutton-response","359","2.0.0","1699743","14","<div class=""pb-14 text-7xl"">+</div>","null","fixation","","","","","",""
"","461","html-keynbutton-response","360","2.0.0","1700204","14","<div class=""flex flex-row stim-length pb-8 md:pd-20 justify-evenly items-center""><div class=""circle""></div><div class=""circle""></div><div class=""circle""></div></div>","q","","matchness_test_3","match","圆","q","true","match"
"","null","html-keynbutton-response","361","2.0.0","1700711","14","<div class=""pb-14 text-7xl"">+</div>","null","fixation","","","","","",""
"","500","html-keynbutton-response","362","2.0.0","1701212","14","<div class=""flex flex-row stim-length pb-8 md:pd-20 justify-evenly items-center""><div class=""circle""></div><div class=""square""></div><div class=""circle""></div></div>","p","","matchness_test_3","mismatch","方","p","true","mismatch"
"","null","html-keynbutton-response","363","2.0.0","1701726","14","<div class=""pb-14 text-7xl"">+</div>","null","fixation","","","","","",""
"","541","html-keynbutton-response","364","2.0.0","1702268","14","<div class=""flex flex-row stim-length pb-8 md:pd-20 justify-evenly items-center""><div class=""square""></div><div class=""square""></div><div class=""square""></div></div>","q","","matchness_test_3","match","方","q","true","match"
"","null","html-keynbutton-response","365","2.0.0","1702775","14","<div class=""pb-14 text-7xl"">+</div>","null","fixation","","","","","",""
"","612","html-keynbutton-response","366","2.0.0","1703388","14","<div class=""flex flex-row stim-length pb-8 md:pd-20 justify-evenly items-center""><div class=""square""></div><div class=""circle""></div><div class=""square""></div></div>","p","","matchness_test_3","mismatch","圆","p","true","mismatch"
"","null","html-keynbutton-response","367","2.0.0","1703894","14","<div class=""pb-14 text-7xl"">+</div>","null","fixation","","","","","",""
"","581","html-keynbutton-response","368","2.0.0","1704476","14","<div class=""flex flex-row stim-length pb-8 md:pd-20 justify-evenly items-center""><div class=""circle""></div><div class=""circle""></div><div class=""circle""></div></div>","q","","matchness_test_3","match","圆","q","true","match"
"","null","html-keynbutton-response","369","2.0.0","1704981","14","<div class=""pb-14 text-7xl"">+</div>","null","fixation","","","","","",""
"","598","html-keynbutton-response","370","2.0.0","1705579","14","<div class=""flex flex-row stim-length pb-8 md:pd-20 justify-evenly items-center""><div class=""square""></div><div class=""circle""></div><div class=""square""></div></div>","p","","matchness_test_3","mismatch","圆","p","true","mismatch"
"","null","html-keynbutton-response","371","2.0.0","1706092","14","<div class=""pb-14 text-7xl"">+</div>","null","fixation","","","","","",""
"","526","html-keynbutton-response","372","2.0.0","1706619","14","<div class=""flex flex-row stim-length pb-8 md:pd-20 justify-evenly items-center""><div class=""square""></div><div class=""square""></div><div class=""square""></div></div>","q","","matchness_test_3","match","方","q","true","match"
"","null","html-keynbutton-response","373","2.0.0","1707125","14","<div class=""pb-14 text-7xl"">+</div>","null","fixation","","","","","",""
"","501","html-keynbutton-response","374","2.0.0","1707627","14","<div class=""flex flex-row stim-length pb-8 md:pd-20 justify-evenly items-center""><div class=""circle""></div><div class=""circle""></div><div class=""circle""></div></div>","q","","matchness_test_3","match","圆","q","true","match"
"","null","html-keynbutton-response","375","2.0.0","1708132","14","<div class=""pb-14 text-7xl"">+</div>","null","fixation","","","","","",""
"","519","html-keynbutton-response","376","2.0.0","1708651","14","<div class=""flex flex-row stim-length pb-8 md:pd-20 justify-evenly items-center""><div class=""circle""></div><div class=""square""></div><div class=""circle""></div></div>","p","","matchness_test_3","mismatch","方","p","true","mismatch"
"","null","html-keynbutton-response","377","2.0.0","1709159","14","<div class=""pb-14 text-7xl"">+</div>","null","fixation","","","","","",""
"","724","html-keynbutton-response","378","2.0.0","1709884","14","<div class=""flex flex-row stim-length pb-8 md:pd-20 justify-evenly items-center""><div class=""square""></div><div class=""square""></div><div class=""square""></div></div>","q","","matchness_test_3","match","方","q","true","match"
"","null","html-keynbutton-response","379","2.0.0","1710392","14","<div class=""pb-14 text-7xl"">+</div>","null","fixation","","","","","",""
"","563","html-keynbutton-response","380","2.0.0","1710955","14","<div class=""flex flex-row stim-length pb-8 md:pd-20 justify-evenly items-center""><div class=""circle""></div><div class=""square""></div><div class=""circle""></div></div>","p","","matchness_test_3","mismatch","方","p","true","mismatch"
"","null","html-keynbutton-response","381","2.0.0","1711461","14","<div class=""pb-14 text-7xl"">+</div>","null","fixation","","","","","",""
"","693","html-keynbutton-response","382","2.0.0","1712155","14","<div class=""flex flex-row stim-length pb-8 md:pd-20 justify-evenly items-center""><div class=""circle""></div><div class=""circle""></div><div class=""circle""></div></div>","q","","matchness_test_3","match","圆","q","true","match"
"","null","html-keynbutton-response","383","2.0.0","1712661","14","<div class=""pb-14 text-7xl"">+</div>","null","fixation","","","","","",""
"","647","html-keynbutton-response","384","2.0.0","1713308","14","<div class=""flex flex-row stim-length pb-8 md:pd-20 justify-evenly items-center""><div class=""square""></div><div class=""circle""></div><div class=""square""></div></div>","p","","matchness_test_3","mismatch","圆","p","true","mismatch"
"","null","html-keynbutton-response","385","2.0.0","1713810","14","<div class=""pb-14 text-7xl"">+</div>","null","fixation","","","","","",""
"","872","html-keynbutton-response","386","2.0.0","1714683","14","<div class=""flex flex-row stim-length pb-8 md:pd-20 justify-evenly items-center""><div class=""circle""></div><div class=""circle""></div><div class=""circle""></div></div>","q","","matchness_test_3","match","圆","q","true","match"
"","null","html-keynbutton-response","387","2.0.0","1715193","14","<div class=""pb-14 text-7xl"">+</div>","null","fixation","","","","","",""
"","578","html-keynbutton-response","388","2.0.0","1715772","14","<div class=""flex flex-row stim-length pb-8 md:pd-20 justify-evenly items-center""><div class=""square""></div><div class=""square""></div><div class=""square""></div></div>","q","","matchness_test_3","match","方","q","true","match"
"","null","html-keynbutton-response","389","2.0.0","1716277","14","<div class=""pb-14 text-7xl"">+</div>","null","fixation","","","","","",""
"","582","html-keynbutton-response","390","2.0.0","1716860","14","<div class=""flex flex-row stim-length pb-8 md:pd-20 justify-evenly items-center""><div class=""circle""></div><div class=""square""></div><div class=""circle""></div></div>","p","","matchness_test_3","mismatch","方","p","true","mismatch"
"","null","html-keynbutton-response","391","2.0.0","1717376","14","<div class=""pb-14 text-7xl"">+</div>","null","fixation","","","","","",""
"","651","html-keynbutton-response","392","2.0.0","1718028","14","<div class=""flex flex-row stim-length pb-8 md:pd-20 justify-evenly items-center""><div class=""square""></div><div class=""circle""></div><div class=""square""></div></div>","p","","matchness_test_3","mismatch","圆","p","true","mismatch"
"","2318","html-keynbutton-response","393","2.0.0","1720348","14","<div class=""jp""><p>您已完成4/10部分</p><p>请休息一会儿</p>
    <p>您的正确率是：100%</p>
    <p>您的平均反应时间是：579毫秒</p></div>"," ","block_feedback","","","","","",""
"","null","html-keynbutton-response","394","2.0.0","1723556","14","<count-down title=""""></count-down>","null","countDown_trial","","","","","",""
"","null","html-keynbutton-response","395","2.0.0","1724060","14","<div class=""pb-14 text-7xl"">+</div>","null","fixation","","","","","",""
"","495","html-keynbutton-response","396","2.0.0","1724556","14","<div class=""flex flex-row stim-length pb-8 md:pd-20 justify-evenly items-center""><div class=""circle""></div><div class=""circle""></div><div class=""circle""></div></div>","q","","matchness_test_4","match","圆","q","true","match"
"","null","html-keynbutton-response","397","2.0.0","1725061","14","<div class=""pb-14 text-7xl"">+</div>","null","fixation","","","","","",""
"","519","html-keynbutton-response","398","2.0.0","1725580","14","<div class=""flex flex-row stim-length pb-8 md:pd-20 justify-evenly items-center""><div class=""circle""></div><div class=""square""></div><div class=""circle""></div></div>","p","","matchness_test_4","mismatch","方","p","true","mismatch"
"","null","html-keynbutton-response","399","2.0.0","1726093","14","<div class=""pb-14 text-7xl"">+</div>","null","fixation","","","","","",""
"","494","html-keynbutton-response","400","2.0.0","1726588","14","<div class=""flex flex-row stim-length pb-8 md:pd-20 justify-evenly items-center""><div class=""square""></div><div class=""circle""></div><div class=""square""></div></div>","p","","matchness_test_4","mismatch","圆","p","true","mismatch"
"","null","html-keynbutton-response","401","2.0.0","1727099","14","<div class=""pb-14 text-7xl"">+</div>","null","fixation","","","","","",""
"","497","html-keynbutton-response","402","2.0.0","1727597","14","<div class=""flex flex-row stim-length pb-8 md:pd-20 justify-evenly items-center""><div class=""square""></div><div class=""square""></div><div class=""square""></div></div>","q","","matchness_test_4","match","方","q","true","match"
"","null","html-keynbutton-response","403","2.0.0","1728109","14","<div class=""pb-14 text-7xl"">+</div>","null","fixation","","","","","",""
"","414","html-keynbutton-response","404","2.0.0","1728524","14","<div class=""flex flex-row stim-length pb-8 md:pd-20 justify-evenly items-center""><div class=""circle""></div><div class=""circle""></div><div class=""circle""></div></div>","q","","matchness_test_4","match","圆","q","true","match"
"","null","html-keynbutton-response","405","2.0.0","1729027","14","<div class=""pb-14 text-7xl"">+</div>","null","fixation","","","","","",""
"","472","html-keynbutton-response","406","2.0.0","1729500","14","<div class=""flex flex-row stim-length pb-8 md:pd-20 justify-evenly items-center""><div class=""circle""></div><div class=""square""></div><div class=""circle""></div></div>","p","","matchness_test_4","mismatch","方","p","true","mismatch"
"","null","html-keynbutton-response","407","2.0.0","1730009","14","<div class=""pb-14 text-7xl"">+</div>","null","fixation","","","","","",""
"","514","html-keynbutton-response","408","2.0.0","1730524","14","<div class=""flex flex-row stim-length pb-8 md:pd-20 justify-evenly items-center""><div class=""square""></div><div class=""square""></div><div class=""square""></div></div>","q","","matchness_test_4","match","方","q","true","match"
"","null","html-keynbutton-response","409","2.0.0","1731026","14","<div class=""pb-14 text-7xl"">+</div>","null","fixation","","","","","",""
"","473","html-keynbutton-response","410","2.0.0","1731500","14","<div class=""flex flex-row stim-length pb-8 md:pd-20 justify-evenly items-center""><div class=""square""></div><div class=""circle""></div><div class=""square""></div></div>","p","","matchness_test_4","mismatch","圆","p","true","mismatch"
"","null","html-keynbutton-response","411","2.0.0","1732009","14","<div class=""pb-14 text-7xl"">+</div>","null","fixation","","","","","",""
"","466","html-keynbutton-response","412","2.0.0","1732476","14","<div class=""flex flex-row stim-length pb-8 md:pd-20 justify-evenly items-center""><div class=""circle""></div><div class=""circle""></div><div class=""circle""></div></div>","q","","matchness_test_4","match","圆","q","true","match"
"","null","html-keynbutton-response","413","2.0.0","1732993","14","<div class=""pb-14 text-7xl"">+</div>","null","fixation","","","","","",""
"","491","html-keynbutton-response","414","2.0.0","1733484","14","<div class=""flex flex-row stim-length pb-8 md:pd-20 justify-evenly items-center""><div class=""circle""></div><div class=""square""></div><div class=""circle""></div></div>","p","","matchness_test_4","mismatch","方","p","true","mismatch"
"","null","html-keynbutton-response","415","2.0.0","1733992","14","<div class=""pb-14 text-7xl"">+</div>","null","fixation","","","","","",""
"","580","html-keynbutton-response","416","2.0.0","1734573","14","<div class=""flex flex-row stim-length pb-8 md:pd-20 justify-evenly items-center""><div class=""square""></div><div class=""circle""></div><div class=""square""></div></div>","p","","matchness_test_4","mismatch","圆","p","true","mismatch"
"","null","html-keynbutton-response","417","2.0.0","1735077","14","<div class=""pb-14 text-7xl"">+</div>","null","fixation","","","","","",""
"","439","html-keynbutton-response","418","2.0.0","1735516","14","<div class=""flex flex-row stim-length pb-8 md:pd-20 justify-evenly items-center""><div class=""square""></div><div class=""square""></div><div class=""square""></div></div>","q","","matchness_test_4","match","方","q","true","match"
"","null","html-keynbutton-response","419","2.0.0","1736025","14","<div class=""pb-14 text-7xl"">+</div>","null","fixation","","","","","",""
"","498","html-keynbutton-response","420","2.0.0","1736524","14","<div class=""flex flex-row stim-length pb-8 md:pd-20 justify-evenly items-center""><div class=""circle""></div><div class=""square""></div><div class=""circle""></div></div>","p","","matchness_test_4","mismatch","方","p","true","mismatch"
"","null","html-keynbutton-response","421","2.0.0","1737034","14","<div class=""pb-14 text-7xl"">+</div>","null","fixation","","","","","",""
"","594","html-keynbutton-response","422","2.0.0","1737628","14","<div class=""flex flex-row stim-length pb-8 md:pd-20 justify-evenly items-center""><div class=""circle""></div><div class=""circle""></div><div class=""circle""></div></div>","q","","matchness_test_4","match","圆","q","true","match"
"","null","html-keynbutton-response","423","2.0.0","1738142","14","<div class=""pb-14 text-7xl"">+</div>","null","fixation","","","","","",""
"","509","html-keynbutton-response","424","2.0.0","1738652","14","<div class=""flex flex-row stim-length pb-8 md:pd-20 justify-evenly items-center""><div class=""square""></div><div class=""square""></div><div class=""square""></div></div>","q","","matchness_test_4","match","方","q","true","match"
"","null","html-keynbutton-response","425","2.0.0","1739161","14","<div class=""pb-14 text-7xl"">+</div>","null","fixation","","","","","",""
"","499","html-keynbutton-response","426","2.0.0","1739660","14","<div class=""flex flex-row stim-length pb-8 md:pd-20 justify-evenly items-center""><div class=""square""></div><div class=""circle""></div><div class=""square""></div></div>","p","","matchness_test_4","mismatch","圆","p","true","mismatch"
"","null","html-keynbutton-response","427","2.0.0","1740176","14","<div class=""pb-14 text-7xl"">+</div>","null","fixation","","","","","",""
"","476","html-keynbutton-response","428","2.0.0","1740652","14","<div class=""flex flex-row stim-length pb-8 md:pd-20 justify-evenly items-center""><div class=""square""></div><div class=""square""></div><div class=""square""></div></div>","q","","matchness_test_4","match","方","q","true","match"
"","null","html-keynbutton-response","429","2.0.0","1741160","14","<div class=""pb-14 text-7xl"">+</div>","null","fixation","","","","","",""
"","434","html-keynbutton-response","430","2.0.0","1741595","14","<div class=""flex flex-row stim-length pb-8 md:pd-20 justify-evenly items-center""><div class=""circle""></div><div class=""square""></div><div class=""circle""></div></div>","p","","matchness_test_4","mismatch","方","p","true","mismatch"
"","null","html-keynbutton-response","431","2.0.0","1742109","14","<div class=""pb-14 text-7xl"">+</div>","null","fixation","","","","","",""
"","510","html-keynbutton-response","432","2.0.0","1742620","14","<div class=""flex flex-row stim-length pb-8 md:pd-20 justify-evenly items-center""><div class=""circle""></div><div class=""circle""></div><div class=""circle""></div></div>","q","","matchness_test_4","match","圆","q","true","match"
"","null","html-keynbutton-response","433","2.0.0","1743130","14","<div class=""pb-14 text-7xl"">+</div>","null","fixation","","","","","",""
"","545","html-keynbutton-response","434","2.0.0","1743676","14","<div class=""flex flex-row stim-length pb-8 md:pd-20 justify-evenly items-center""><div class=""square""></div><div class=""circle""></div><div class=""square""></div></div>","p","","matchness_test_4","mismatch","圆","p","true","mismatch"
"","null","html-keynbutton-response","435","2.0.0","1744178","14","<div class=""pb-14 text-7xl"">+</div>","null","fixation","","","","","",""
"","458","html-keynbutton-response","436","2.0.0","1744636","14","<div class=""flex flex-row stim-length pb-8 md:pd-20 justify-evenly items-center""><div class=""circle""></div><div class=""circle""></div><div class=""circle""></div></div>","q","","matchness_test_4","match","圆","q","true","match"
"","null","html-keynbutton-response","437","2.0.0","1745143","14","<div class=""pb-14 text-7xl"">+</div>","null","fixation","","","","","",""
"","484","html-keynbutton-response","438","2.0.0","1745628","14","<div class=""flex flex-row stim-length pb-8 md:pd-20 justify-evenly items-center""><div class=""circle""></div><div class=""square""></div><div class=""circle""></div></div>","p","","matchness_test_4","mismatch","方","p","true","mismatch"
"","null","html-keynbutton-response","439","2.0.0","1746143","14","<div class=""pb-14 text-7xl"">+</div>","null","fixation","","","","","",""
"","508","html-keynbutton-response","440","2.0.0","1746652","14","<div class=""flex flex-row stim-length pb-8 md:pd-20 justify-evenly items-center""><div class=""square""></div><div class=""circle""></div><div class=""square""></div></div>","p","","matchness_test_4","mismatch","圆","p","true","mismatch"
"","null","html-keynbutton-response","441","2.0.0","1747160","14","<div class=""pb-14 text-7xl"">+</div>","null","fixation","","","","","",""
"","467","html-keynbutton-response","442","2.0.0","1747628","14","<div class=""flex flex-row stim-length pb-8 md:pd-20 justify-evenly items-center""><div class=""square""></div><div class=""square""></div><div class=""square""></div></div>","q","","matchness_test_4","match","方","q","true","match"
"","null","html-keynbutton-response","443","2.0.0","1748143","14","<div class=""pb-14 text-7xl"">+</div>","null","fixation","","","","","",""
"","492","html-keynbutton-response","444","2.0.0","1748636","14","<div class=""flex flex-row stim-length pb-8 md:pd-20 justify-evenly items-center""><div class=""circle""></div><div class=""circle""></div><div class=""circle""></div></div>","q","","matchness_test_4","match","圆","q","true","match"
"","null","html-keynbutton-response","445","2.0.0","1749143","14","<div class=""pb-14 text-7xl"">+</div>","null","fixation","","","","","",""
"","533","html-keynbutton-response","446","2.0.0","1749677","14","<div class=""flex flex-row stim-length pb-8 md:pd-20 justify-evenly items-center""><div class=""square""></div><div class=""square""></div><div class=""square""></div></div>","q","","matchness_test_4","match","方","q","true","match"
"","null","html-keynbutton-response","447","2.0.0","1750193","14","<div class=""pb-14 text-7xl"">+</div>","null","fixation","","","","","",""
"","506","html-keynbutton-response","448","2.0.0","1750700","14","<div class=""flex flex-row stim-length pb-8 md:pd-20 justify-evenly items-center""><div class=""square""></div><div class=""circle""></div><div class=""square""></div></div>","p","","matchness_test_4","mismatch","圆","p","true","mismatch"
"","null","html-keynbutton-response","449","2.0.0","1751209","14","<div class=""pb-14 text-7xl"">+</div>","null","fixation","","","","","",""
"","482","html-keynbutton-response","450","2.0.0","1751692","14","<div class=""flex flex-row stim-length pb-8 md:pd-20 justify-evenly items-center""><div class=""circle""></div><div class=""square""></div><div class=""circle""></div></div>","q","","matchness_test_4","mismatch","方","p","false","match"
"","null","html-keynbutton-response","451","2.0.0","1752193","14","<div class=""pb-14 text-7xl"">+</div>","null","fixation","","","","","",""
"","538","html-keynbutton-response","452","2.0.0","1752732","14","<div class=""flex flex-row stim-length pb-8 md:pd-20 justify-evenly items-center""><div class=""square""></div><div class=""square""></div><div class=""square""></div></div>","q","","matchness_test_4","match","方","q","true","match"
"","null","html-keynbutton-response","453","2.0.0","1753243","14","<div class=""pb-14 text-7xl"">+</div>","null","fixation","","","","","",""
"","497","html-keynbutton-response","454","2.0.0","1753740","14","<div class=""flex flex-row stim-length pb-8 md:pd-20 justify-evenly items-center""><div class=""circle""></div><div class=""square""></div><div class=""circle""></div></div>","p","","matchness_test_4","mismatch","方","p","true","mismatch"
"","null","html-keynbutton-response","455","2.0.0","1754244","14","<div class=""pb-14 text-7xl"">+</div>","null","fixation","","","","","",""
"","456","html-keynbutton-response","456","2.0.0","1754700","14","<div class=""flex flex-row stim-length pb-8 md:pd-20 justify-evenly items-center""><div class=""square""></div><div class=""circle""></div><div class=""square""></div></div>","p","","matchness_test_4","mismatch","圆","p","true","mismatch"
