"success","rt","trial_type","trial_index","plugin_version","time_elapsed","subj_id","stimulus","response","trail_tag","task","ismatch","target","correct_key","correct","response_key"
"true","1877","fullscreen","0","2.0.0","2882","24","","","","","","","","",""
"","100622","html-keynbutton-response","1","2.0.0","103492","24","
        <div class=""jp px-2 xxs:px-5 mx-auto"">
        <p class=""text-center text-red-600 text-[1.2em] pb-5"">欢迎您参加知觉
          <strong>判断实验。</strong>
        </p>
        <p>接下来的任务中您将看到一排图形。</p>
        <p>(圆形●或方形■)</p><p>您的任务是<strong>忽略两侧的图形，专注于中间的图形</strong>。</p>
        <p>如果中间的图形是圆，请按“q”；</p>
        <p>如果是方，请按“p”。</p><p>请尽量又快又准地做出反应。</p>
      <p>请按空格键开始练习。</p>
      </div>"," ","","","","","","",""
"","null","html-keynbutton-response","2","2.0.0","106697","24","<count-down title=""""></count-down>","null","countDown_trial","","","","","",""
"","null","html-keynbutton-response","3","2.0.0","107200","24","<div class=""pb-14 text-7xl"">+</div>","null","fixation","","","","","",""
"","929","html-keynbutton-response","4","2.0.0","108131","24","<div class=""flex flex-row stim-length pb-8 md:pd-20 justify-evenly items-center""><div class=""circle""></div><div class=""circle""></div><div class=""circle""></div></div>","q","","shape_practice","match","圆","q","true","圆"
"","null","html-keynbutton-response","5","2.0.0","108650","24","<span class='text-green-400 text-4xl md:text-5xl lg:text-6xl'>正确!</span>","null","trial_feedback","","","","","",""
"","null","html-keynbutton-response","6","2.0.0","109165","24","<div class=""pb-14 text-7xl"">+</div>","null","fixation","","","","","",""
"","452","html-keynbutton-response","7","2.0.0","109619","24","<div class=""flex flex-row stim-length pb-8 md:pd-20 justify-evenly items-center""><div class=""square""></div><div class=""circle""></div><div class=""square""></div></div>","q","","shape_practice","mismatch","圆","q","true","圆"
"","null","html-keynbutton-response","8","2.0.0","110133","24","<span class='text-green-400 text-4xl md:text-5xl lg:text-6xl'>正确!</span>","null","trial_feedback","","","","","",""
"","null","html-keynbutton-response","9","2.0.0","110649","24","<div class=""pb-14 text-7xl"">+</div>","null","fixation","","","","","",""
"","314","html-keynbutton-response","10","2.0.0","110964","24","<div class=""flex flex-row stim-length pb-8 md:pd-20 justify-evenly items-center""><div class=""square""></div><div class=""square""></div><div class=""square""></div></div>","p","","shape_practice","match","方","p","true","方"
"","null","html-keynbutton-response","11","2.0.0","111467","24","<span class='text-green-400 text-4xl md:text-5xl lg:text-6xl'>正确!</span>","null","trial_feedback","","","","","",""
"","null","html-keynbutton-response","12","2.0.0","111982","24","<div class=""pb-14 text-7xl"">+</div>","null","fixation","","","","","",""
"","356","html-keynbutton-response","13","2.0.0","112339","24","<div class=""flex flex-row stim-length pb-8 md:pd-20 justify-evenly items-center""><div class=""circle""></div><div class=""square""></div><div class=""circle""></div></div>","p","","shape_practice","mismatch","方","p","true","方"
"","null","html-keynbutton-response","14","2.0.0","112853","24","<span class='text-green-400 text-4xl md:text-5xl lg:text-6xl'>正确!</span>","null","trial_feedback","","","","","",""
"","null","html-keynbutton-response","15","2.0.0","113366","24","<div class=""pb-14 text-7xl"">+</div>","null","fixation","","","","","",""
"","396","html-keynbutton-response","16","2.0.0","113763","24","<div class=""flex flex-row stim-length pb-8 md:pd-20 justify-evenly items-center""><div class=""square""></div><div class=""circle""></div><div class=""square""></div></div>","q","","shape_practice","mismatch","圆","q","true","圆"
"","null","html-keynbutton-response","17","2.0.0","114266","24","<span class='text-green-400 text-4xl md:text-5xl lg:text-6xl'>正确!</span>","null","trial_feedback","","","","","",""
"","null","html-keynbutton-response","18","2.0.0","114782","24","<div class=""pb-14 text-7xl"">+</div>","null","fixation","","","","","",""
"","548","html-keynbutton-response","19","2.0.0","115331","24","<div class=""flex flex-row stim-length pb-8 md:pd-20 justify-evenly items-center""><div class=""circle""></div><div class=""circle""></div><div class=""circle""></div></div>","q","","shape_practice","match","圆","q","true","圆"
"","null","html-keynbutton-response","20","2.0.0","115833","24","<span class='text-green-400 text-4xl md:text-5xl lg:text-6xl'>正确!</span>","null","trial_feedback","","","","","",""
"","null","html-keynbutton-response","21","2.0.0","116349","24","<div class=""pb-14 text-7xl"">+</div>","null","fixation","","","","","",""
"","500","html-keynbutton-response","22","2.0.0","116851","24","<div class=""flex flex-row stim-length pb-8 md:pd-20 justify-evenly items-center""><div class=""circle""></div><div class=""square""></div><div class=""circle""></div></div>","p","","shape_practice","mismatch","方","p","true","方"
"","null","html-keynbutton-response","23","2.0.0","117366","24","<span class='text-green-400 text-4xl md:text-5xl lg:text-6xl'>正确!</span>","null","trial_feedback","","","","","",""
"","null","html-keynbutton-response","24","2.0.0","117882","24","<div class=""pb-14 text-7xl"">+</div>","null","fixation","","","","","",""
"","296","html-keynbutton-response","25","2.0.0","118179","24","<div class=""flex flex-row stim-length pb-8 md:pd-20 justify-evenly items-center""><div class=""square""></div><div class=""square""></div><div class=""square""></div></div>","q","","shape_practice","match","方","p","false","圆"
"","null","html-keynbutton-response","26","2.0.0","118683","24","<span class='text-red-500 text-4xl md:text-5xl lg:text-6xl'>错误!</span>","null","trial_feedback","","","","","",""
"","null","html-keynbutton-response","27","2.0.0","119199","24","<div class=""pb-14 text-7xl"">+</div>","null","fixation","","","","","",""
"","435","html-keynbutton-response","28","2.0.0","119635","24","<div class=""flex flex-row stim-length pb-8 md:pd-20 justify-evenly items-center""><div class=""circle""></div><div class=""square""></div><div class=""circle""></div></div>","p","","shape_practice","mismatch","方","p","true","方"
"","null","html-keynbutton-response","29","2.0.0","120150","24","<span class='text-green-400 text-4xl md:text-5xl lg:text-6xl'>正确!</span>","null","trial_feedback","","","","","",""
"","null","html-keynbutton-response","30","2.0.0","120666","24","<div class=""pb-14 text-7xl"">+</div>","null","fixation","","","","","",""
"","408","html-keynbutton-response","31","2.0.0","121075","24","<div class=""flex flex-row stim-length pb-8 md:pd-20 justify-evenly items-center""><div class=""circle""></div><div class=""circle""></div><div class=""circle""></div></div>","q","","shape_practice","match","圆","q","true","圆"
"","null","html-keynbutton-response","32","2.0.0","121583","24","<span class='text-green-400 text-4xl md:text-5xl lg:text-6xl'>正确!</span>","null","trial_feedback","","","","","",""
"","null","html-keynbutton-response","33","2.0.0","122099","24","<div class=""pb-14 text-7xl"">+</div>","null","fixation","","","","","",""
"","496","html-keynbutton-response","34","2.0.0","122595","24","<div class=""flex flex-row stim-length pb-8 md:pd-20 justify-evenly items-center""><div class=""square""></div><div class=""square""></div><div class=""square""></div></div>","p","","shape_practice","match","方","p","true","方"
"","null","html-keynbutton-response","35","2.0.0","123101","24","<span class='text-green-400 text-4xl md:text-5xl lg:text-6xl'>正确!</span>","null","trial_feedback","","","","","",""
"","null","html-keynbutton-response","36","2.0.0","123615","24","<div class=""pb-14 text-7xl"">+</div>","null","fixation","","","","","",""
"","482","html-keynbutton-response","37","2.0.0","124098","24","<div class=""flex flex-row stim-length pb-8 md:pd-20 justify-evenly items-center""><div class=""square""></div><div class=""circle""></div><div class=""square""></div></div>","q","","shape_practice","mismatch","圆","q","true","圆"
"","null","html-keynbutton-response","38","2.0.0","124600","24","<span class='text-green-400 text-4xl md:text-5xl lg:text-6xl'>正确!</span>","null","trial_feedback","","","","","",""
"","null","html-keynbutton-response","39","2.0.0","125116","24","<div class=""pb-14 text-7xl"">+</div>","null","fixation","","","","","",""
"","471","html-keynbutton-response","40","2.0.0","125587","24","<div class=""flex flex-row stim-length pb-8 md:pd-20 justify-evenly items-center""><div class=""square""></div><div class=""square""></div><div class=""square""></div></div>","p","","shape_practice","match","方","p","true","方"
"","null","html-keynbutton-response","41","2.0.0","126099","24","<span class='text-green-400 text-4xl md:text-5xl lg:text-6xl'>正确!</span>","null","trial_feedback","","","","","",""
"","null","html-keynbutton-response","42","2.0.0","126600","24","<div class=""pb-14 text-7xl"">+</div>","null","fixation","","","","","",""
"","345","html-keynbutton-response","43","2.0.0","126947","24","<div class=""flex flex-row stim-length pb-8 md:pd-20 justify-evenly items-center""><div class=""circle""></div><div class=""square""></div><div class=""circle""></div></div>","p","","shape_practice","mismatch","方","p","true","方"
"","null","html-keynbutton-response","44","2.0.0","127450","24","<span class='text-green-400 text-4xl md:text-5xl lg:text-6xl'>正确!</span>","null","trial_feedback","","","","","",""
"","null","html-keynbutton-response","45","2.0.0","127965","24","<div class=""pb-14 text-7xl"">+</div>","null","fixation","","","","","",""
"","357","html-keynbutton-response","46","2.0.0","128323","24","<div class=""flex flex-row stim-length pb-8 md:pd-20 justify-evenly items-center""><div class=""circle""></div><div class=""circle""></div><div class=""circle""></div></div>","q","","shape_practice","match","圆","q","true","圆"
"","null","html-keynbutton-response","47","2.0.0","128832","24","<span class='text-green-400 text-4xl md:text-5xl lg:text-6xl'>正确!</span>","null","trial_feedback","","","","","",""
"","null","html-keynbutton-response","48","2.0.0","129349","24","<div class=""pb-14 text-7xl"">+</div>","null","fixation","","","","","",""
"","445","html-keynbutton-response","49","2.0.0","129795","24","<div class=""flex flex-row stim-length pb-8 md:pd-20 justify-evenly items-center""><div class=""square""></div><div class=""circle""></div><div class=""square""></div></div>","q","","shape_practice","mismatch","圆","q","true","圆"
"","null","html-keynbutton-response","50","2.0.0","130301","24","<span class='text-green-400 text-4xl md:text-5xl lg:text-6xl'>正确!</span>","null","trial_feedback","","","","","",""
"","null","html-keynbutton-response","51","2.0.0","130816","24","<div class=""pb-14 text-7xl"">+</div>","null","fixation","","","","","",""
"","466","html-keynbutton-response","52","2.0.0","131283","24","<div class=""flex flex-row stim-length pb-8 md:pd-20 justify-evenly items-center""><div class=""circle""></div><div class=""circle""></div><div class=""circle""></div></div>","q","","shape_practice","match","圆","q","true","圆"
"","null","html-keynbutton-response","53","2.0.0","131799","24","<span class='text-green-400 text-4xl md:text-5xl lg:text-6xl'>正确!</span>","null","trial_feedback","","","","","",""
"","null","html-keynbutton-response","54","2.0.0","132315","24","<div class=""pb-14 text-7xl"">+</div>","null","fixation","","","","","",""
"","375","html-keynbutton-response","55","2.0.0","132691","24","<div class=""flex flex-row stim-length pb-8 md:pd-20 justify-evenly items-center""><div class=""circle""></div><div class=""square""></div><div class=""circle""></div></div>","p","","shape_practice","mismatch","方","p","true","方"
"","null","html-keynbutton-response","56","2.0.0","133199","24","<span class='text-green-400 text-4xl md:text-5xl lg:text-6xl'>正确!</span>","null","trial_feedback","","","","","",""
"","null","html-keynbutton-response","57","2.0.0","133700","24","<div class=""pb-14 text-7xl"">+</div>","null","fixation","","","","","",""
"","445","html-keynbutton-response","58","2.0.0","134146","24","<div class=""flex flex-row stim-length pb-8 md:pd-20 justify-evenly items-center""><div class=""square""></div><div class=""circle""></div><div class=""square""></div></div>","q","","shape_practice","mismatch","圆","q","true","圆"
"","null","html-keynbutton-response","59","2.0.0","134650","24","<span class='text-green-400 text-4xl md:text-5xl lg:text-6xl'>正确!</span>","null","trial_feedback","","","","","",""
"","null","html-keynbutton-response","60","2.0.0","135166","24","<div class=""pb-14 text-7xl"">+</div>","null","fixation","","","","","",""
"","533","html-keynbutton-response","61","2.0.0","135699","24","<div class=""flex flex-row stim-length pb-8 md:pd-20 justify-evenly items-center""><div class=""square""></div><div class=""square""></div><div class=""square""></div></div>","p","","shape_practice","match","方","p","true","方"
"","null","html-keynbutton-response","62","2.0.0","136215","24","<span class='text-green-400 text-4xl md:text-5xl lg:text-6xl'>正确!</span>","null","trial_feedback","","","","","",""
"","2727","html-keynbutton-response","64","2.0.0","138947","24","<div class=""jp"">
    <p>您的正确率是：95%</p>
    <p>您的平均反应时间是：452毫秒</p></div>"," ","block_feedback","","","","","",""
"","1598","html-keynbutton-response","65","2.0.0","140547","24","
        <div class=""jp px-2 xxs:px-5 mx-auto"">
        <p class=""text-center text-red-600 text-[1.2em] pb-5"">练习结束，现在开始正式实验</p>
        <p>请注意：正式实验中将不再会呈现反馈。</p>
        </div>
        "," ","","","","","","",""
"","null","html-keynbutton-response","66","2.0.0","143763","24","<count-down title=""""></count-down>","null","countDown_trial","","","","","",""
"","null","html-keynbutton-response","67","2.0.0","144267","24","<div class=""pb-14 text-7xl"">+</div>","null","fixation","","","","","",""
"","567","html-keynbutton-response","68","2.0.0","144835","24","<div class=""flex flex-row stim-length pb-8 md:pd-20 justify-evenly items-center""><div class=""square""></div><div class=""square""></div><div class=""square""></div></div>","p","","shape_test","match","方","p","true","方"
"","null","html-keynbutton-response","69","2.0.0","145349","24","<div class=""pb-14 text-7xl"">+</div>","null","fixation","","","","","",""
"","477","html-keynbutton-response","70","2.0.0","145826","24","<div class=""flex flex-row stim-length pb-8 md:pd-20 justify-evenly items-center""><div class=""circle""></div><div class=""circle""></div><div class=""circle""></div></div>","q","","shape_test","match","圆","q","true","圆"
"","null","html-keynbutton-response","71","2.0.0","146333","24","<div class=""pb-14 text-7xl"">+</div>","null","fixation","","","","","",""
"","486","html-keynbutton-response","72","2.0.0","146819","24","<div class=""flex flex-row stim-length pb-8 md:pd-20 justify-evenly items-center""><div class=""square""></div><div class=""circle""></div><div class=""square""></div></div>","q","","shape_test","mismatch","圆","q","true","圆"
"","null","html-keynbutton-response","73","2.0.0","147333","24","<div class=""pb-14 text-7xl"">+</div>","null","fixation","","","","","",""
"","414","html-keynbutton-response","74","2.0.0","147747","24","<div class=""flex flex-row stim-length pb-8 md:pd-20 justify-evenly items-center""><div class=""circle""></div><div class=""square""></div><div class=""circle""></div></div>","p","","shape_test","mismatch","方","p","true","方"
"","null","html-keynbutton-response","75","2.0.0","148250","24","<div class=""pb-14 text-7xl"">+</div>","null","fixation","","","","","",""
"","344","html-keynbutton-response","76","2.0.0","148596","24","<div class=""flex flex-row stim-length pb-8 md:pd-20 justify-evenly items-center""><div class=""circle""></div><div class=""square""></div><div class=""circle""></div></div>","p","","shape_test","mismatch","方","p","true","方"
"","null","html-keynbutton-response","77","2.0.0","149100","24","<div class=""pb-14 text-7xl"">+</div>","null","fixation","","","","","",""
"","405","html-keynbutton-response","78","2.0.0","149506","24","<div class=""flex flex-row stim-length pb-8 md:pd-20 justify-evenly items-center""><div class=""square""></div><div class=""circle""></div><div class=""square""></div></div>","q","","shape_test","mismatch","圆","q","true","圆"
"","null","html-keynbutton-response","79","2.0.0","150016","24","<div class=""pb-14 text-7xl"">+</div>","null","fixation","","","","","",""
"","482","html-keynbutton-response","80","2.0.0","150499","24","<div class=""flex flex-row stim-length pb-8 md:pd-20 justify-evenly items-center""><div class=""circle""></div><div class=""circle""></div><div class=""circle""></div></div>","q","","shape_test","match","圆","q","true","圆"
"","null","html-keynbutton-response","81","2.0.0","151015","24","<div class=""pb-14 text-7xl"">+</div>","null","fixation","","","","","",""
"","394","html-keynbutton-response","82","2.0.0","151411","24","<div class=""flex flex-row stim-length pb-8 md:pd-20 justify-evenly items-center""><div class=""square""></div><div class=""square""></div><div class=""square""></div></div>","p","","shape_test","match","方","p","true","方"
"","null","html-keynbutton-response","83","2.0.0","151917","24","<div class=""pb-14 text-7xl"">+</div>","null","fixation","","","","","",""
"","581","html-keynbutton-response","84","2.0.0","152499","24","<div class=""flex flex-row stim-length pb-8 md:pd-20 justify-evenly items-center""><div class=""circle""></div><div class=""circle""></div><div class=""circle""></div></div>","q","","shape_test","match","圆","q","true","圆"
"","null","html-keynbutton-response","85","2.0.0","153015","24","<div class=""pb-14 text-7xl"">+</div>","null","fixation","","","","","",""
"","491","html-keynbutton-response","86","2.0.0","153507","24","<div class=""flex flex-row stim-length pb-8 md:pd-20 justify-evenly items-center""><div class=""square""></div><div class=""square""></div><div class=""square""></div></div>","p","","shape_test","match","方","p","true","方"
"","null","html-keynbutton-response","87","2.0.0","154015","24","<div class=""pb-14 text-7xl"">+</div>","null","fixation","","","","","",""
"","482","html-keynbutton-response","88","2.0.0","154499","24","<div class=""flex flex-row stim-length pb-8 md:pd-20 justify-evenly items-center""><div class=""circle""></div><div class=""square""></div><div class=""circle""></div></div>","p","","shape_test","mismatch","方","p","true","方"
"","null","html-keynbutton-response","89","2.0.0","155000","24","<div class=""pb-14 text-7xl"">+</div>","null","fixation","","","","","",""
"","409","html-keynbutton-response","90","2.0.0","155410","24","<div class=""flex flex-row stim-length pb-8 md:pd-20 justify-evenly items-center""><div class=""square""></div><div class=""circle""></div><div class=""square""></div></div>","q","","shape_test","mismatch","圆","q","true","圆"
"","null","html-keynbutton-response","91","2.0.0","155917","24","<div class=""pb-14 text-7xl"">+</div>","null","fixation","","","","","",""
"","405","html-keynbutton-response","92","2.0.0","156323","24","<div class=""flex flex-row stim-length pb-8 md:pd-20 justify-evenly items-center""><div class=""circle""></div><div class=""circle""></div><div class=""circle""></div></div>","q","","shape_test","match","圆","q","true","圆"
"","null","html-keynbutton-response","93","2.0.0","156831","24","<div class=""pb-14 text-7xl"">+</div>","null","fixation","","","","","",""
"","483","html-keynbutton-response","94","2.0.0","157315","24","<div class=""flex flex-row stim-length pb-8 md:pd-20 justify-evenly items-center""><div class=""circle""></div><div class=""square""></div><div class=""circle""></div></div>","p","","shape_test","mismatch","方","p","true","方"
"","null","html-keynbutton-response","95","2.0.0","157817","24","<div class=""pb-14 text-7xl"">+</div>","null","fixation","","","","","",""
"","457","html-keynbutton-response","96","2.0.0","158275","24","<div class=""flex flex-row stim-length pb-8 md:pd-20 justify-evenly items-center""><div class=""square""></div><div class=""circle""></div><div class=""square""></div></div>","q","","shape_test","mismatch","圆","q","true","圆"
"","null","html-keynbutton-response","97","2.0.0","158782","24","<div class=""pb-14 text-7xl"">+</div>","null","fixation","","","","","",""
"","484","html-keynbutton-response","98","2.0.0","159267","24","<div class=""flex flex-row stim-length pb-8 md:pd-20 justify-evenly items-center""><div class=""square""></div><div class=""square""></div><div class=""square""></div></div>","p","","shape_test","match","方","p","true","方"
"","null","html-keynbutton-response","99","2.0.0","159783","24","<div class=""pb-14 text-7xl"">+</div>","null","fixation","","","","","",""
"","522","html-keynbutton-response","100","2.0.0","160306","24","<div class=""flex flex-row stim-length pb-8 md:pd-20 justify-evenly items-center""><div class=""circle""></div><div class=""circle""></div><div class=""circle""></div></div>","q","","shape_test","match","圆","q","true","圆"
"","null","html-keynbutton-response","101","2.0.0","160816","24","<div class=""pb-14 text-7xl"">+</div>","null","fixation","","","","","",""
"","466","html-keynbutton-response","102","2.0.0","161283","24","<div class=""flex flex-row stim-length pb-8 md:pd-20 justify-evenly items-center""><div class=""square""></div><div class=""square""></div><div class=""square""></div></div>","p","","shape_test","match","方","p","true","方"
"","null","html-keynbutton-response","103","2.0.0","161799","24","<div class=""pb-14 text-7xl"">+</div>","null","fixation","","","","","",""
"","459","html-keynbutton-response","104","2.0.0","162259","24","<div class=""flex flex-row stim-length pb-8 md:pd-20 justify-evenly items-center""><div class=""circle""></div><div class=""square""></div><div class=""circle""></div></div>","p","","shape_test","mismatch","方","p","true","方"
"","null","html-keynbutton-response","105","2.0.0","162767","24","<div class=""pb-14 text-7xl"">+</div>","null","fixation","","","","","",""
"","579","html-keynbutton-response","106","2.0.0","163347","24","<div class=""flex flex-row stim-length pb-8 md:pd-20 justify-evenly items-center""><div class=""square""></div><div class=""circle""></div><div class=""square""></div></div>","q","","shape_test","mismatch","圆","q","true","圆"
"","null","html-keynbutton-response","107","2.0.0","163864","24","<div class=""pb-14 text-7xl"">+</div>","null","fixation","","","","","",""
"","424","html-keynbutton-response","108","2.0.0","164289","24","<div class=""flex flex-row stim-length pb-8 md:pd-20 justify-evenly items-center""><div class=""square""></div><div class=""square""></div><div class=""square""></div></div>","p","","shape_test","match","方","p","true","方"
"","null","html-keynbutton-response","109","2.0.0","164795","24","<div class=""pb-14 text-7xl"">+</div>","null","fixation","","","","","",""
"","420","html-keynbutton-response","110","2.0.0","165217","24","<div class=""flex flex-row stim-length pb-8 md:pd-20 justify-evenly items-center""><div class=""circle""></div><div class=""circle""></div><div class=""circle""></div></div>","q","","shape_test","match","圆","q","true","圆"
"","null","html-keynbutton-response","111","2.0.0","165729","24","<div class=""pb-14 text-7xl"">+</div>","null","fixation","","","","","",""
"","431","html-keynbutton-response","112","2.0.0","166161","24","<div class=""flex flex-row stim-length pb-8 md:pd-20 justify-evenly items-center""><div class=""square""></div><div class=""circle""></div><div class=""square""></div></div>","q","","shape_test","mismatch","圆","q","true","圆"
"","null","html-keynbutton-response","113","2.0.0","166664","24","<div class=""pb-14 text-7xl"">+</div>","null","fixation","","","","","",""
"","520","html-keynbutton-response","114","2.0.0","167185","24","<div class=""flex flex-row stim-length pb-8 md:pd-20 justify-evenly items-center""><div class=""circle""></div><div class=""square""></div><div class=""circle""></div></div>","p","","shape_test","mismatch","方","p","true","方"
"","null","html-keynbutton-response","115","2.0.0","167696","24","<div class=""pb-14 text-7xl"">+</div>","null","fixation","","","","","",""
"","352","html-keynbutton-response","116","2.0.0","168049","24","<div class=""flex flex-row stim-length pb-8 md:pd-20 justify-evenly items-center""><div class=""circle""></div><div class=""square""></div><div class=""circle""></div></div>","p","","shape_test","mismatch","方","p","true","方"
"","null","html-keynbutton-response","117","2.0.0","168562","24","<div class=""pb-14 text-7xl"">+</div>","null","fixation","","","","","",""
"","414","html-keynbutton-response","118","2.0.0","168977","24","<div class=""flex flex-row stim-length pb-8 md:pd-20 justify-evenly items-center""><div class=""square""></div><div class=""circle""></div><div class=""square""></div></div>","q","","shape_test","mismatch","圆","q","true","圆"
"","null","html-keynbutton-response","119","2.0.0","169481","24","<div class=""pb-14 text-7xl"">+</div>","null","fixation","","","","","",""
"","454","html-keynbutton-response","120","2.0.0","169937","24","<div class=""flex flex-row stim-length pb-8 md:pd-20 justify-evenly items-center""><div class=""circle""></div><div class=""circle""></div><div class=""circle""></div></div>","q","","shape_test","match","圆","q","true","圆"
"","null","html-keynbutton-response","121","2.0.0","170446","24","<div class=""pb-14 text-7xl"">+</div>","null","fixation","","","","","",""
"","369","html-keynbutton-response","122","2.0.0","170817","24","<div class=""flex flex-row stim-length pb-8 md:pd-20 justify-evenly items-center""><div class=""square""></div><div class=""square""></div><div class=""square""></div></div>","p","","shape_test","match","方","p","true","方"
"","null","html-keynbutton-response","123","2.0.0","171329","24","<div class=""pb-14 text-7xl"">+</div>","null","fixation","","","","","",""
"","414","html-keynbutton-response","124","2.0.0","171745","24","<div class=""flex flex-row stim-length pb-8 md:pd-20 justify-evenly items-center""><div class=""square""></div><div class=""circle""></div><div class=""square""></div></div>","p","","shape_test","mismatch","圆","q","false","方"
"","null","html-keynbutton-response","125","2.0.0","172248","24","<div class=""pb-14 text-7xl"">+</div>","null","fixation","","","","","",""
"","952","html-keynbutton-response","126","2.0.0","173201","24","<div class=""flex flex-row stim-length pb-8 md:pd-20 justify-evenly items-center""><div class=""circle""></div><div class=""square""></div><div class=""circle""></div></div>","p","","shape_test","mismatch","方","p","true","方"
"","null","html-keynbutton-response","127","2.0.0","173713","24","<div class=""pb-14 text-7xl"">+</div>","null","fixation","","","","","",""
"","383","html-keynbutton-response","128","2.0.0","174097","24","<div class=""flex flex-row stim-length pb-8 md:pd-20 justify-evenly items-center""><div class=""square""></div><div class=""square""></div><div class=""square""></div></div>","q","","shape_test","match","方","p","false","圆"
"","null","html-keynbutton-response","129","2.0.0","174613","24","<div class=""pb-14 text-7xl"">+</div>","null","fixation","","","","","",""
"","571","html-keynbutton-response","130","2.0.0","175185","24","<div class=""flex flex-row stim-length pb-8 md:pd-20 justify-evenly items-center""><div class=""circle""></div><div class=""circle""></div><div class=""circle""></div></div>","q","","shape_test","match","圆","q","true","圆"
"","null","html-keynbutton-response","131","2.0.0","175696","24","<div class=""pb-14 text-7xl"">+</div>","null","fixation","","","","","",""
"","384","html-keynbutton-response","132","2.0.0","176081","24","<div class=""flex flex-row stim-length pb-8 md:pd-20 justify-evenly items-center""><div class=""circle""></div><div class=""circle""></div><div class=""circle""></div></div>","q","","shape_test","match","圆","q","true","圆"
"","null","html-keynbutton-response","133","2.0.0","176596","24","<div class=""pb-14 text-7xl"">+</div>","null","fixation","","","","","",""
"","316","html-keynbutton-response","134","2.0.0","176913","24","<div class=""flex flex-row stim-length pb-8 md:pd-20 justify-evenly items-center""><div class=""square""></div><div class=""circle""></div><div class=""square""></div></div>","q","","shape_test","mismatch","圆","q","true","圆"
"","null","html-keynbutton-response","135","2.0.0","177429","24","<div class=""pb-14 text-7xl"">+</div>","null","fixation","","","","","",""
"","363","html-keynbutton-response","136","2.0.0","177792","24","<div class=""flex flex-row stim-length pb-8 md:pd-20 justify-evenly items-center""><div class=""square""></div><div class=""square""></div><div class=""square""></div></div>","q","","shape_test","match","方","p","false","圆"
"","null","html-keynbutton-response","137","2.0.0","178298","24","<div class=""pb-14 text-7xl"">+</div>","null","fixation","","","","","",""
"","357","html-keynbutton-response","138","2.0.0","178656","24","<div class=""flex flex-row stim-length pb-8 md:pd-20 justify-evenly items-center""><div class=""circle""></div><div class=""square""></div><div class=""circle""></div></div>","p","","shape_test","mismatch","方","p","true","方"
"","null","html-keynbutton-response","139","2.0.0","179163","24","<div class=""pb-14 text-7xl"">+</div>","null","fixation","","","","","",""
"","388","html-keynbutton-response","140","2.0.0","179551","24","<div class=""flex flex-row stim-length pb-8 md:pd-20 justify-evenly items-center""><div class=""circle""></div><div class=""square""></div><div class=""circle""></div></div>","p","","shape_test","mismatch","方","p","true","方"
"","null","html-keynbutton-response","141","2.0.0","180062","24","<div class=""pb-14 text-7xl"">+</div>","null","fixation","","","","","",""
"","418","html-keynbutton-response","142","2.0.0","180481","24","<div class=""flex flex-row stim-length pb-8 md:pd-20 justify-evenly items-center""><div class=""square""></div><div class=""circle""></div><div class=""square""></div></div>","q","","shape_test","mismatch","圆","q","true","圆"
"","null","html-keynbutton-response","143","2.0.0","180997","24","<div class=""pb-14 text-7xl"">+</div>","null","fixation","","","","","",""
"","523","html-keynbutton-response","144","2.0.0","181521","24","<div class=""flex flex-row stim-length pb-8 md:pd-20 justify-evenly items-center""><div class=""circle""></div><div class=""circle""></div><div class=""circle""></div></div>","q","","shape_test","match","圆","q","true","圆"
"","null","html-keynbutton-response","145","2.0.0","182028","24","<div class=""pb-14 text-7xl"">+</div>","null","fixation","","","","","",""
"","612","html-keynbutton-response","146","2.0.0","182640","24","<div class=""flex flex-row stim-length pb-8 md:pd-20 justify-evenly items-center""><div class=""square""></div><div class=""square""></div><div class=""square""></div></div>","p","","shape_test","match","方","p","true","方"
"","1952","html-keynbutton-response","147","2.0.0","184593","24","<div class=""jp""><p>您已完成1/10部分</p><p>请休息一会儿</p>
    <p>您的正确率是：93%</p>
    <p>您的平均反应时间是：461毫秒</p></div>"," ","block_feedback","","","","","",""
"","null","html-keynbutton-response","148","2.0.0","187794","24","<count-down title=""""></count-down>","null","countDown_trial","","","","","",""
"","null","html-keynbutton-response","149","2.0.0","188299","24","<div class=""pb-14 text-7xl"">+</div>","null","fixation","","","","","",""
"","404","html-keynbutton-response","150","2.0.0","188704","24","<div class=""flex flex-row stim-length pb-8 md:pd-20 justify-evenly items-center""><div class=""square""></div><div class=""circle""></div><div class=""square""></div></div>","q","","shape_test_1","mismatch","圆","q","true","圆"
"","null","html-keynbutton-response","151","2.0.0","189214","24","<div class=""pb-14 text-7xl"">+</div>","null","fixation","","","","","",""
"","289","html-keynbutton-response","152","2.0.0","189504","24","<div class=""flex flex-row stim-length pb-8 md:pd-20 justify-evenly items-center""><div class=""circle""></div><div class=""circle""></div><div class=""circle""></div></div>","q","","shape_test_1","match","圆","q","true","圆"
"","null","html-keynbutton-response","153","2.0.0","190013","24","<div class=""pb-14 text-7xl"">+</div>","null","fixation","","","","","",""
"","403","html-keynbutton-response","154","2.0.0","190417","24","<div class=""flex flex-row stim-length pb-8 md:pd-20 justify-evenly items-center""><div class=""circle""></div><div class=""square""></div><div class=""circle""></div></div>","p","","shape_test_1","mismatch","方","p","true","方"
"","null","html-keynbutton-response","155","2.0.0","190929","24","<div class=""pb-14 text-7xl"">+</div>","null","fixation","","","","","",""
"","303","html-keynbutton-response","156","2.0.0","191233","24","<div class=""flex flex-row stim-length pb-8 md:pd-20 justify-evenly items-center""><div class=""square""></div><div class=""square""></div><div class=""square""></div></div>","p","","shape_test_1","match","方","p","true","方"
"","null","html-keynbutton-response","157","2.0.0","191746","24","<div class=""pb-14 text-7xl"">+</div>","null","fixation","","","","","",""
"","286","html-keynbutton-response","158","2.0.0","192033","24","<div class=""flex flex-row stim-length pb-8 md:pd-20 justify-evenly items-center""><div class=""circle""></div><div class=""square""></div><div class=""circle""></div></div>","p","","shape_test_1","mismatch","方","p","true","方"
"","null","html-keynbutton-response","159","2.0.0","192546","24","<div class=""pb-14 text-7xl"">+</div>","null","fixation","","","","","",""
"","494","html-keynbutton-response","160","2.0.0","193041","24","<div class=""flex flex-row stim-length pb-8 md:pd-20 justify-evenly items-center""><div class=""square""></div><div class=""circle""></div><div class=""square""></div></div>","q","","shape_test_1","mismatch","圆","q","true","圆"
"","null","html-keynbutton-response","161","2.0.0","193547","24","<div class=""pb-14 text-7xl"">+</div>","null","fixation","","","","","",""
"","309","html-keynbutton-response","162","2.0.0","193857","24","<div class=""flex flex-row stim-length pb-8 md:pd-20 justify-evenly items-center""><div class=""circle""></div><div class=""circle""></div><div class=""circle""></div></div>","q","","shape_test_1","match","圆","q","true","圆"
"","null","html-keynbutton-response","163","2.0.0","194362","24","<div class=""pb-14 text-7xl"">+</div>","null","fixation","","","","","",""
"","404","html-keynbutton-response","164","2.0.0","194768","24","<div class=""flex flex-row stim-length pb-8 md:pd-20 justify-evenly items-center""><div class=""square""></div><div class=""square""></div><div class=""square""></div></div>","p","","shape_test_1","match","方","p","true","方"
"","null","html-keynbutton-response","165","2.0.0","195280","24","<div class=""pb-14 text-7xl"">+</div>","null","fixation","","","","","",""
"","336","html-keynbutton-response","166","2.0.0","195617","24","<div class=""flex flex-row stim-length pb-8 md:pd-20 justify-evenly items-center""><div class=""square""></div><div class=""square""></div><div class=""square""></div></div>","p","","shape_test_1","match","方","p","true","方"
"","null","html-keynbutton-response","167","2.0.0","196129","24","<div class=""pb-14 text-7xl"">+</div>","null","fixation","","","","","",""
"","399","html-keynbutton-response","168","2.0.0","196529","24","<div class=""flex flex-row stim-length pb-8 md:pd-20 justify-evenly items-center""><div class=""circle""></div><div class=""circle""></div><div class=""circle""></div></div>","q","","shape_test_1","match","圆","q","true","圆"
"","null","html-keynbutton-response","169","2.0.0","197030","24","<div class=""pb-14 text-7xl"">+</div>","null","fixation","","","","","",""
"","330","html-keynbutton-response","170","2.0.0","197362","24","<div class=""flex flex-row stim-length pb-8 md:pd-20 justify-evenly items-center""><div class=""square""></div><div class=""circle""></div><div class=""square""></div></div>","q","","shape_test_1","mismatch","圆","q","true","圆"
"","null","html-keynbutton-response","171","2.0.0","197864","24","<div class=""pb-14 text-7xl"">+</div>","null","fixation","","","","","",""
"","376","html-keynbutton-response","172","2.0.0","198241","24","<div class=""flex flex-row stim-length pb-8 md:pd-20 justify-evenly items-center""><div class=""circle""></div><div class=""square""></div><div class=""circle""></div></div>","p","","shape_test_1","mismatch","方","p","true","方"
"","null","html-keynbutton-response","173","2.0.0","198747","24","<div class=""pb-14 text-7xl"">+</div>","null","fixation","","","","","",""
"","293","html-keynbutton-response","174","2.0.0","199041","24","<div class=""flex flex-row stim-length pb-8 md:pd-20 justify-evenly items-center""><div class=""circle""></div><div class=""square""></div><div class=""circle""></div></div>","p","","shape_test_1","mismatch","方","p","true","方"
"","null","html-keynbutton-response","175","2.0.0","199547","24","<div class=""pb-14 text-7xl"">+</div>","null","fixation","","","","","",""
"","373","html-keynbutton-response","176","2.0.0","199921","24","<div class=""flex flex-row stim-length pb-8 md:pd-20 justify-evenly items-center""><div class=""circle""></div><div class=""circle""></div><div class=""circle""></div></div>","q","","shape_test_1","match","圆","q","true","圆"
"","null","html-keynbutton-response","177","2.0.0","200428","24","<div class=""pb-14 text-7xl"">+</div>","null","fixation","","","","","",""
"","419","html-keynbutton-response","178","2.0.0","200848","24","<div class=""flex flex-row stim-length pb-8 md:pd-20 justify-evenly items-center""><div class=""square""></div><div class=""square""></div><div class=""square""></div></div>","p","","shape_test_1","match","方","p","true","方"
"","null","html-keynbutton-response","179","2.0.0","201363","24","<div class=""pb-14 text-7xl"">+</div>","null","fixation","","","","","",""
"","412","html-keynbutton-response","180","2.0.0","201776","24","<div class=""flex flex-row stim-length pb-8 md:pd-20 justify-evenly items-center""><div class=""square""></div><div class=""circle""></div><div class=""square""></div></div>","q","","shape_test_1","mismatch","圆","q","true","圆"
"","null","html-keynbutton-response","181","2.0.0","202282","24","<div class=""pb-14 text-7xl"">+</div>","null","fixation","","","","","",""
"","471","html-keynbutton-response","182","2.0.0","202753","24","<div class=""flex flex-row stim-length pb-8 md:pd-20 justify-evenly items-center""><div class=""square""></div><div class=""square""></div><div class=""square""></div></div>","p","","shape_test_1","match","方","p","true","方"
"","null","html-keynbutton-response","183","2.0.0","203263","24","<div class=""pb-14 text-7xl"">+</div>","null","fixation","","","","","",""
"","433","html-keynbutton-response","184","2.0.0","203697","24","<div class=""flex flex-row stim-length pb-8 md:pd-20 justify-evenly items-center""><div class=""circle""></div><div class=""square""></div><div class=""circle""></div></div>","p","","shape_test_1","mismatch","方","p","true","方"
"","null","html-keynbutton-response","185","2.0.0","204198","24","<div class=""pb-14 text-7xl"">+</div>","null","fixation","","","","","",""
"","394","html-keynbutton-response","186","2.0.0","204593","24","<div class=""flex flex-row stim-length pb-8 md:pd-20 justify-evenly items-center""><div class=""square""></div><div class=""circle""></div><div class=""square""></div></div>","q","","shape_test_1","mismatch","圆","q","true","圆"
"","null","html-keynbutton-response","187","2.0.0","205097","24","<div class=""pb-14 text-7xl"">+</div>","null","fixation","","","","","",""
"","375","html-keynbutton-response","188","2.0.0","205473","24","<div class=""flex flex-row stim-length pb-8 md:pd-20 justify-evenly items-center""><div class=""circle""></div><div class=""circle""></div><div class=""circle""></div></div>","q","","shape_test_1","match","圆","q","true","圆"
"","null","html-keynbutton-response","189","2.0.0","205980","24","<div class=""pb-14 text-7xl"">+</div>","null","fixation","","","","","",""
"","467","html-keynbutton-response","190","2.0.0","206449","24","<div class=""flex flex-row stim-length pb-8 md:pd-20 justify-evenly items-center""><div class=""square""></div><div class=""square""></div><div class=""square""></div></div>","p","","shape_test_1","match","方","p","true","方"
"","null","html-keynbutton-response","191","2.0.0","206963","24","<div class=""pb-14 text-7xl"">+</div>","null","fixation","","","","","",""
"","461","html-keynbutton-response","192","2.0.0","207425","24","<div class=""flex flex-row stim-length pb-8 md:pd-20 justify-evenly items-center""><div class=""square""></div><div class=""circle""></div><div class=""square""></div></div>","q","","shape_test_1","mismatch","圆","q","true","圆"
"","null","html-keynbutton-response","193","2.0.0","207932","24","<div class=""pb-14 text-7xl"">+</div>","null","fixation","","","","","",""
"","452","html-keynbutton-response","194","2.0.0","208385","24","<div class=""flex flex-row stim-length pb-8 md:pd-20 justify-evenly items-center""><div class=""circle""></div><div class=""circle""></div><div class=""circle""></div></div>","q","","shape_test_1","match","圆","q","true","圆"
"","null","html-keynbutton-response","195","2.0.0","208896","24","<div class=""pb-14 text-7xl"">+</div>","null","fixation","","","","","",""
"","416","html-keynbutton-response","196","2.0.0","209313","24","<div class=""flex flex-row stim-length pb-8 md:pd-20 justify-evenly items-center""><div class=""circle""></div><div class=""square""></div><div class=""circle""></div></div>","p","","shape_test_1","mismatch","方","p","true","方"
"","null","html-keynbutton-response","197","2.0.0","209814","24","<div class=""pb-14 text-7xl"">+</div>","null","fixation","","","","","",""
"","394","html-keynbutton-response","198","2.0.0","210209","24","<div class=""flex flex-row stim-length pb-8 md:pd-20 justify-evenly items-center""><div class=""circle""></div><div class=""circle""></div><div class=""circle""></div></div>","q","","shape_test_1","match","圆","q","true","圆"
"","null","html-keynbutton-response","199","2.0.0","210716","24","<div class=""pb-14 text-7xl"">+</div>","null","fixation","","","","","",""
"","388","html-keynbutton-response","200","2.0.0","211105","24","<div class=""flex flex-row stim-length pb-8 md:pd-20 justify-evenly items-center""><div class=""square""></div><div class=""square""></div><div class=""square""></div></div>","p","","shape_test_1","match","方","p","true","方"
"","null","html-keynbutton-response","201","2.0.0","211613","24","<div class=""pb-14 text-7xl"">+</div>","null","fixation","","","","","",""
"","387","html-keynbutton-response","202","2.0.0","212001","24","<div class=""flex flex-row stim-length pb-8 md:pd-20 justify-evenly items-center""><div class=""circle""></div><div class=""square""></div><div class=""circle""></div></div>","p","","shape_test_1","mismatch","方","p","true","方"
"","null","html-keynbutton-response","203","2.0.0","212513","24","<div class=""pb-14 text-7xl"">+</div>","null","fixation","","","","","",""
"","398","html-keynbutton-response","204","2.0.0","212912","24","<div class=""flex flex-row stim-length pb-8 md:pd-20 justify-evenly items-center""><div class=""square""></div><div class=""circle""></div><div class=""square""></div></div>","q","","shape_test_1","mismatch","圆","q","true","圆"
"","null","html-keynbutton-response","205","2.0.0","213414","24","<div class=""pb-14 text-7xl"">+</div>","null","fixation","","","","","",""
"","426","html-keynbutton-response","206","2.0.0","213841","24","<div class=""flex flex-row stim-length pb-8 md:pd-20 justify-evenly items-center""><div class=""square""></div><div class=""square""></div><div class=""square""></div></div>","p","","shape_test_1","match","方","p","true","方"
"","null","html-keynbutton-response","207","2.0.0","214347","24","<div class=""pb-14 text-7xl"">+</div>","null","fixation","","","","","",""
"","1269","html-keynbutton-response","208","2.0.0","215617","24","<div class=""flex flex-row stim-length pb-8 md:pd-20 justify-evenly items-center""><div class=""circle""></div><div class=""circle""></div><div class=""circle""></div></div>","q","","shape_test_1","match","圆","q","true","圆"
"","null","html-keynbutton-response","209","2.0.0","216129","24","<div class=""pb-14 text-7xl"">+</div>","null","fixation","","","","","",""
"","431","html-keynbutton-response","210","2.0.0","216561","24","<div class=""flex flex-row stim-length pb-8 md:pd-20 justify-evenly items-center""><div class=""circle""></div><div class=""square""></div><div class=""circle""></div></div>","p","","shape_test_1","mismatch","方","p","true","方"
"","null","html-keynbutton-response","211","2.0.0","217064","24","<div class=""pb-14 text-7xl"">+</div>","null","fixation","","","","","",""
"","440","html-keynbutton-response","212","2.0.0","217505","24","<div class=""flex flex-row stim-length pb-8 md:pd-20 justify-evenly items-center""><div class=""square""></div><div class=""circle""></div><div class=""square""></div></div>","q","","shape_test_1","mismatch","圆","q","true","圆"
"","null","html-keynbutton-response","213","2.0.0","218012","24","<div class=""pb-14 text-7xl"">+</div>","null","fixation","","","","","",""
"","691","html-keynbutton-response","214","2.0.0","218703","24","<div class=""flex flex-row stim-length pb-8 md:pd-20 justify-evenly items-center""><div class=""square""></div><div class=""square""></div><div class=""square""></div></div>","p","","shape_test_1","match","方","p","true","方"
"","null","html-keynbutton-response","215","2.0.0","219214","24","<div class=""pb-14 text-7xl"">+</div>","null","fixation","","","","","",""
"","434","html-keynbutton-response","216","2.0.0","219649","24","<div class=""flex flex-row stim-length pb-8 md:pd-20 justify-evenly items-center""><div class=""circle""></div><div class=""square""></div><div class=""circle""></div></div>","p","","shape_test_1","mismatch","方","p","true","方"
"","null","html-keynbutton-response","217","2.0.0","220163","24","<div class=""pb-14 text-7xl"">+</div>","null","fixation","","","","","",""
"","429","html-keynbutton-response","218","2.0.0","220593","24","<div class=""flex flex-row stim-length pb-8 md:pd-20 justify-evenly items-center""><div class=""circle""></div><div class=""circle""></div><div class=""circle""></div></div>","q","","shape_test_1","match","圆","q","true","圆"
"","null","html-keynbutton-response","219","2.0.0","221097","24","<div class=""pb-14 text-7xl"">+</div>","null","fixation","","","","","",""
"","473","html-keynbutton-response","220","2.0.0","221571","24","<div class=""flex flex-row stim-length pb-8 md:pd-20 justify-evenly items-center""><div class=""square""></div><div class=""circle""></div><div class=""square""></div></div>","q","","shape_test_1","mismatch","圆","q","true","圆"
"","null","html-keynbutton-response","221","2.0.0","222078","24","<div class=""pb-14 text-7xl"">+</div>","null","fixation","","","","","",""
"","562","html-keynbutton-response","222","2.0.0","222641","24","<div class=""flex flex-row stim-length pb-8 md:pd-20 justify-evenly items-center""><div class=""circle""></div><div class=""square""></div><div class=""circle""></div></div>","p","","shape_test_1","mismatch","方","p","true","方"
"","null","html-keynbutton-response","223","2.0.0","223147","24","<div class=""pb-14 text-7xl"">+</div>","null","fixation","","","","","",""
"","485","html-keynbutton-response","224","2.0.0","223633","24","<div class=""flex flex-row stim-length pb-8 md:pd-20 justify-evenly items-center""><div class=""square""></div><div class=""square""></div><div class=""square""></div></div>","p","","shape_test_1","match","方","p","true","方"
"","null","html-keynbutton-response","225","2.0.0","224146","24","<div class=""pb-14 text-7xl"">+</div>","null","fixation","","","","","",""
"","446","html-keynbutton-response","226","2.0.0","224593","24","<div class=""flex flex-row stim-length pb-8 md:pd-20 justify-evenly items-center""><div class=""square""></div><div class=""circle""></div><div class=""square""></div></div>","q","","shape_test_1","mismatch","圆","q","true","圆"
"","null","html-keynbutton-response","227","2.0.0","225097","24","<div class=""pb-14 text-7xl"">+</div>","null","fixation","","","","","",""
"","423","html-keynbutton-response","228","2.0.0","225521","24","<div class=""flex flex-row stim-length pb-8 md:pd-20 justify-evenly items-center""><div class=""circle""></div><div class=""circle""></div><div class=""circle""></div></div>","q","","shape_test_1","match","圆","q","true","圆"
"","2239","html-keynbutton-response","229","2.0.0","227761","24","<div class=""jp""><p>您已完成2/10部分</p><p>请休息一会儿</p>
    <p>您的正确率是：100%</p>
    <p>您的平均反应时间是：434毫秒</p></div>"," ","block_feedback","","","","","",""
"","null","html-keynbutton-response","230","2.0.0","230977","24","<count-down title=""""></count-down>","null","countDown_trial","","","","","",""
"","null","html-keynbutton-response","231","2.0.0","231481","24","<div class=""pb-14 text-7xl"">+</div>","null","fixation","","","","","",""
"","455","html-keynbutton-response","232","2.0.0","231937","24","<div class=""flex flex-row stim-length pb-8 md:pd-20 justify-evenly items-center""><div class=""circle""></div><div class=""circle""></div><div class=""circle""></div></div>","q","","shape_test_2","match","圆","q","true","圆"
"","null","html-keynbutton-response","233","2.0.0","232446","24","<div class=""pb-14 text-7xl"">+</div>","null","fixation","","","","","",""
"","434","html-keynbutton-response","234","2.0.0","232881","24","<div class=""flex flex-row stim-length pb-8 md:pd-20 justify-evenly items-center""><div class=""square""></div><div class=""square""></div><div class=""square""></div></div>","p","","shape_test_2","match","方","p","true","方"
"","null","html-keynbutton-response","235","2.0.0","233396","24","<div class=""pb-14 text-7xl"">+</div>","null","fixation","","","","","",""
"","380","html-keynbutton-response","236","2.0.0","233777","24","<div class=""flex flex-row stim-length pb-8 md:pd-20 justify-evenly items-center""><div class=""circle""></div><div class=""square""></div><div class=""circle""></div></div>","p","","shape_test_2","mismatch","方","p","true","方"
"","null","html-keynbutton-response","237","2.0.0","234281","24","<div class=""pb-14 text-7xl"">+</div>","null","fixation","","","","","",""
"","391","html-keynbutton-response","238","2.0.0","234673","24","<div class=""flex flex-row stim-length pb-8 md:pd-20 justify-evenly items-center""><div class=""square""></div><div class=""circle""></div><div class=""square""></div></div>","q","","shape_test_2","mismatch","圆","q","true","圆"
"","null","html-keynbutton-response","239","2.0.0","235181","24","<div class=""pb-14 text-7xl"">+</div>","null","fixation","","","","","",""
"","484","html-keynbutton-response","240","2.0.0","235665","24","<div class=""flex flex-row stim-length pb-8 md:pd-20 justify-evenly items-center""><div class=""square""></div><div class=""circle""></div><div class=""square""></div></div>","q","","shape_test_2","mismatch","圆","q","true","圆"
"","null","html-keynbutton-response","241","2.0.0","236180","24","<div class=""pb-14 text-7xl"">+</div>","null","fixation","","","","","",""
"","637","html-keynbutton-response","242","2.0.0","236817","24","<div class=""flex flex-row stim-length pb-8 md:pd-20 justify-evenly items-center""><div class=""square""></div><div class=""square""></div><div class=""square""></div></div>","p","","shape_test_2","match","方","p","true","方"
"","null","html-keynbutton-response","243","2.0.0","237330","24","<div class=""pb-14 text-7xl"">+</div>","null","fixation","","","","","",""
"","590","html-keynbutton-response","244","2.0.0","237921","24","<div class=""flex flex-row stim-length pb-8 md:pd-20 justify-evenly items-center""><div class=""circle""></div><div class=""circle""></div><div class=""circle""></div></div>","q","","shape_test_2","match","圆","q","true","圆"
"","null","html-keynbutton-response","245","2.0.0","238429","24","<div class=""pb-14 text-7xl"">+</div>","null","fixation","","","","","",""
"","499","html-keynbutton-response","246","2.0.0","238929","24","<div class=""flex flex-row stim-length pb-8 md:pd-20 justify-evenly items-center""><div class=""circle""></div><div class=""square""></div><div class=""circle""></div></div>","p","","shape_test_2","mismatch","方","p","true","方"
"","null","html-keynbutton-response","247","2.0.0","239430","24","<div class=""pb-14 text-7xl"">+</div>","null","fixation","","","","","",""
"","441","html-keynbutton-response","248","2.0.0","239873","24","<div class=""flex flex-row stim-length pb-8 md:pd-20 justify-evenly items-center""><div class=""square""></div><div class=""circle""></div><div class=""square""></div></div>","q","","shape_test_2","mismatch","圆","q","true","圆"
"","null","html-keynbutton-response","249","2.0.0","240381","24","<div class=""pb-14 text-7xl"">+</div>","null","fixation","","","","","",""
"","370","html-keynbutton-response","250","2.0.0","240752","24","<div class=""flex flex-row stim-length pb-8 md:pd-20 justify-evenly items-center""><div class=""square""></div><div class=""square""></div><div class=""square""></div></div>","p","","shape_test_2","match","方","p","true","方"
"","null","html-keynbutton-response","251","2.0.0","241263","24","<div class=""pb-14 text-7xl"">+</div>","null","fixation","","","","","",""
"","465","html-keynbutton-response","252","2.0.0","241729","24","<div class=""flex flex-row stim-length pb-8 md:pd-20 justify-evenly items-center""><div class=""circle""></div><div class=""circle""></div><div class=""circle""></div></div>","p","","shape_test_2","match","圆","q","false","方"
"","null","html-keynbutton-response","253","2.0.0","242231","24","<div class=""pb-14 text-7xl"">+</div>","null","fixation","","","","","",""
"","361","html-keynbutton-response","254","2.0.0","242593","24","<div class=""flex flex-row stim-length pb-8 md:pd-20 justify-evenly items-center""><div class=""circle""></div><div class=""square""></div><div class=""circle""></div></div>","p","","shape_test_2","mismatch","方","p","true","方"
"","null","html-keynbutton-response","255","2.0.0","243098","24","<div class=""pb-14 text-7xl"">+</div>","null","fixation","","","","","",""
"","471","html-keynbutton-response","256","2.0.0","243571","24","<div class=""flex flex-row stim-length pb-8 md:pd-20 justify-evenly items-center""><div class=""circle""></div><div class=""square""></div><div class=""circle""></div></div>","p","","shape_test_2","mismatch","方","p","true","方"
"","null","html-keynbutton-response","257","2.0.0","244080","24","<div class=""pb-14 text-7xl"">+</div>","null","fixation","","","","","",""
"","400","html-keynbutton-response","258","2.0.0","244481","24","<div class=""flex flex-row stim-length pb-8 md:pd-20 justify-evenly items-center""><div class=""square""></div><div class=""circle""></div><div class=""square""></div></div>","q","","shape_test_2","mismatch","圆","q","true","圆"
"","null","html-keynbutton-response","259","2.0.0","244996","24","<div class=""pb-14 text-7xl"">+</div>","null","fixation","","","","","",""
"","299","html-keynbutton-response","260","2.0.0","245296","24","<div class=""flex flex-row stim-length pb-8 md:pd-20 justify-evenly items-center""><div class=""circle""></div><div class=""circle""></div><div class=""circle""></div></div>","q","","shape_test_2","match","圆","q","true","圆"
"","null","html-keynbutton-response","261","2.0.0","245797","24","<div class=""pb-14 text-7xl"">+</div>","null","fixation","","","","","",""
"","394","html-keynbutton-response","262","2.0.0","246193","24","<div class=""flex flex-row stim-length pb-8 md:pd-20 justify-evenly items-center""><div class=""square""></div><div class=""square""></div><div class=""square""></div></div>","p","","shape_test_2","match","方","p","true","方"
"","null","html-keynbutton-response","263","2.0.0","246697","24","<div class=""pb-14 text-7xl"">+</div>","null","fixation","","","","","",""
"","503","html-keynbutton-response","264","2.0.0","247201","24","<div class=""flex flex-row stim-length pb-8 md:pd-20 justify-evenly items-center""><div class=""circle""></div><div class=""circle""></div><div class=""circle""></div></div>","q","","shape_test_2","match","圆","q","true","圆"
"","null","html-keynbutton-response","265","2.0.0","247713","24","<div class=""pb-14 text-7xl"">+</div>","null","fixation","","","","","",""
"","399","html-keynbutton-response","266","2.0.0","248113","24","<div class=""flex flex-row stim-length pb-8 md:pd-20 justify-evenly items-center""><div class=""square""></div><div class=""circle""></div><div class=""square""></div></div>","q","","shape_test_2","mismatch","圆","q","true","圆"
"","null","html-keynbutton-response","267","2.0.0","248629","24","<div class=""pb-14 text-7xl"">+</div>","null","fixation","","","","","",""
"","507","html-keynbutton-response","268","2.0.0","249137","24","<div class=""flex flex-row stim-length pb-8 md:pd-20 justify-evenly items-center""><div class=""circle""></div><div class=""square""></div><div class=""circle""></div></div>","p","","shape_test_2","mismatch","方","p","true","方"
"","null","html-keynbutton-response","269","2.0.0","249646","24","<div class=""pb-14 text-7xl"">+</div>","null","fixation","","","","","",""
"","434","html-keynbutton-response","270","2.0.0","250081","24","<div class=""flex flex-row stim-length pb-8 md:pd-20 justify-evenly items-center""><div class=""square""></div><div class=""square""></div><div class=""square""></div></div>","p","","shape_test_2","match","方","p","true","方"
"","null","html-keynbutton-response","271","2.0.0","250596","24","<div class=""pb-14 text-7xl"">+</div>","null","fixation","","","","","",""
"","284","html-keynbutton-response","272","2.0.0","250881","24","<div class=""flex flex-row stim-length pb-8 md:pd-20 justify-evenly items-center""><div class=""square""></div><div class=""square""></div><div class=""square""></div></div>","p","","shape_test_2","match","方","p","true","方"
"","null","html-keynbutton-response","273","2.0.0","251396","24","<div class=""pb-14 text-7xl"">+</div>","null","fixation","","","","","",""
"","412","html-keynbutton-response","274","2.0.0","251809","24","<div class=""flex flex-row stim-length pb-8 md:pd-20 justify-evenly items-center""><div class=""square""></div><div class=""circle""></div><div class=""square""></div></div>","q","","shape_test_2","mismatch","圆","q","true","圆"
"","null","html-keynbutton-response","275","2.0.0","252315","24","<div class=""pb-14 text-7xl"">+</div>","null","fixation","","","","","",""
"","406","html-keynbutton-response","276","2.0.0","252721","24","<div class=""flex flex-row stim-length pb-8 md:pd-20 justify-evenly items-center""><div class=""circle""></div><div class=""square""></div><div class=""circle""></div></div>","p","","shape_test_2","mismatch","方","p","true","方"
"","null","html-keynbutton-response","277","2.0.0","253230","24","<div class=""pb-14 text-7xl"">+</div>","null","fixation","","","","","",""
"","402","html-keynbutton-response","278","2.0.0","253633","24","<div class=""flex flex-row stim-length pb-8 md:pd-20 justify-evenly items-center""><div class=""circle""></div><div class=""circle""></div><div class=""circle""></div></div>","q","","shape_test_2","match","圆","q","true","圆"
"","null","html-keynbutton-response","279","2.0.0","254146","24","<div class=""pb-14 text-7xl"">+</div>","null","fixation","","","","","",""
"","286","html-keynbutton-response","280","2.0.0","254433","24","<div class=""flex flex-row stim-length pb-8 md:pd-20 justify-evenly items-center""><div class=""square""></div><div class=""circle""></div><div class=""square""></div></div>","q","","shape_test_2","mismatch","圆","q","true","圆"
"","null","html-keynbutton-response","281","2.0.0","254946","24","<div class=""pb-14 text-7xl"">+</div>","null","fixation","","","","","",""
"","285","html-keynbutton-response","282","2.0.0","255232","24","<div class=""flex flex-row stim-length pb-8 md:pd-20 justify-evenly items-center""><div class=""circle""></div><div class=""circle""></div><div class=""circle""></div></div>","p","","shape_test_2","match","圆","q","false","方"
"","null","html-keynbutton-response","283","2.0.0","255747","24","<div class=""pb-14 text-7xl"">+</div>","null","fixation","","","","","",""
"","317","html-keynbutton-response","284","2.0.0","256065","24","<div class=""flex flex-row stim-length pb-8 md:pd-20 justify-evenly items-center""><div class=""square""></div><div class=""square""></div><div class=""square""></div></div>","p","","shape_test_2","match","方","p","true","方"
"","null","html-keynbutton-response","285","2.0.0","256580","24","<div class=""pb-14 text-7xl"">+</div>","null","fixation","","","","","",""
"","333","html-keynbutton-response","286","2.0.0","256913","24","<div class=""flex flex-row stim-length pb-8 md:pd-20 justify-evenly items-center""><div class=""circle""></div><div class=""square""></div><div class=""circle""></div></div>","p","","shape_test_2","mismatch","方","p","true","方"
"","null","html-keynbutton-response","287","2.0.0","257422","24","<div class=""pb-14 text-7xl"">+</div>","null","fixation","","","","","",""
"","419","html-keynbutton-response","288","2.0.0","257841","24","<div class=""flex flex-row stim-length pb-8 md:pd-20 justify-evenly items-center""><div class=""circle""></div><div class=""circle""></div><div class=""circle""></div></div>","q","","shape_test_2","match","圆","q","true","圆"
"","null","html-keynbutton-response","289","2.0.0","258347","24","<div class=""pb-14 text-7xl"">+</div>","null","fixation","","","","","",""
"","454","html-keynbutton-response","290","2.0.0","258801","24","<div class=""flex flex-row stim-length pb-8 md:pd-20 justify-evenly items-center""><div class=""square""></div><div class=""square""></div><div class=""square""></div></div>","p","","shape_test_2","match","方","p","true","方"
"","null","html-keynbutton-response","291","2.0.0","259312","24","<div class=""pb-14 text-7xl"">+</div>","null","fixation","","","","","",""
"","336","html-keynbutton-response","292","2.0.0","259648","24","<div class=""flex flex-row stim-length pb-8 md:pd-20 justify-evenly items-center""><div class=""circle""></div><div class=""square""></div><div class=""circle""></div></div>","q","","shape_test_2","mismatch","方","p","false","圆"
"","null","html-keynbutton-response","293","2.0.0","260163","24","<div class=""pb-14 text-7xl"">+</div>","null","fixation","","","","","",""
"","445","html-keynbutton-response","294","2.0.0","260609","24","<div class=""flex flex-row stim-length pb-8 md:pd-20 justify-evenly items-center""><div class=""square""></div><div class=""circle""></div><div class=""square""></div></div>","q","","shape_test_2","mismatch","圆","q","true","圆"
"","null","html-keynbutton-response","295","2.0.0","261115","24","<div class=""pb-14 text-7xl"">+</div>","null","fixation","","","","","",""
"","373","html-keynbutton-response","296","2.0.0","261489","24","<div class=""flex flex-row stim-length pb-8 md:pd-20 justify-evenly items-center""><div class=""circle""></div><div class=""square""></div><div class=""circle""></div></div>","q","","shape_test_2","mismatch","方","p","false","圆"
"","null","html-keynbutton-response","297","2.0.0","262000","24","<div class=""pb-14 text-7xl"">+</div>","null","fixation","","","","","",""
"","496","html-keynbutton-response","298","2.0.0","262497","24","<div class=""flex flex-row stim-length pb-8 md:pd-20 justify-evenly items-center""><div class=""square""></div><div class=""circle""></div><div class=""square""></div></div>","q","","shape_test_2","mismatch","圆","q","true","圆"
"","null","html-keynbutton-response","299","2.0.0","263013","24","<div class=""pb-14 text-7xl"">+</div>","null","fixation","","","","","",""
"","378","html-keynbutton-response","300","2.0.0","263392","24","<div class=""flex flex-row stim-length pb-8 md:pd-20 justify-evenly items-center""><div class=""square""></div><div class=""square""></div><div class=""square""></div></div>","p","","shape_test_2","match","方","p","true","方"
"","null","html-keynbutton-response","301","2.0.0","263898","24","<div class=""pb-14 text-7xl"">+</div>","null","fixation","","","","","",""
"","407","html-keynbutton-response","302","2.0.0","264306","24","<div class=""flex flex-row stim-length pb-8 md:pd-20 justify-evenly items-center""><div class=""circle""></div><div class=""circle""></div><div class=""circle""></div></div>","q","","shape_test_2","match","圆","q","true","圆"
"","null","html-keynbutton-response","303","2.0.0","264820","24","<div class=""pb-14 text-7xl"">+</div>","null","fixation","","","","","",""
"","428","html-keynbutton-response","304","2.0.0","265249","24","<div class=""flex flex-row stim-length pb-8 md:pd-20 justify-evenly items-center""><div class=""circle""></div><div class=""circle""></div><div class=""circle""></div></div>","q","","shape_test_2","match","圆","q","true","圆"
"","null","html-keynbutton-response","305","2.0.0","265763","24","<div class=""pb-14 text-7xl"">+</div>","null","fixation","","","","","",""
"","605","html-keynbutton-response","306","2.0.0","266369","24","<div class=""flex flex-row stim-length pb-8 md:pd-20 justify-evenly items-center""><div class=""square""></div><div class=""square""></div><div class=""square""></div></div>","p","","shape_test_2","match","方","p","true","方"
"","null","html-keynbutton-response","307","2.0.0","266879","24","<div class=""pb-14 text-7xl"">+</div>","null","fixation","","","","","",""
"","353","html-keynbutton-response","308","2.0.0","267233","24","<div class=""flex flex-row stim-length pb-8 md:pd-20 justify-evenly items-center""><div class=""circle""></div><div class=""square""></div><div class=""circle""></div></div>","p","","shape_test_2","mismatch","方","p","true","方"
"","null","html-keynbutton-response","309","2.0.0","267747","24","<div class=""pb-14 text-7xl"">+</div>","null","fixation","","","","","",""
"","445","html-keynbutton-response","310","2.0.0","268193","24","<div class=""flex flex-row stim-length pb-8 md:pd-20 justify-evenly items-center""><div class=""square""></div><div class=""circle""></div><div class=""square""></div></div>","q","","shape_test_2","mismatch","圆","q","true","圆"
"","1678","html-keynbutton-response","311","2.0.0","269873","24","<div class=""jp""><p>您已完成3/10部分</p><p>请休息一会儿</p>
    <p>您的正确率是：90%</p>
    <p>您的平均反应时间是：419毫秒</p></div>"," ","block_feedback","","","","","",""
"","null","html-keynbutton-response","312","2.0.0","273077","24","<count-down title=""""></count-down>","null","countDown_trial","","","","","",""
"","null","html-keynbutton-response","313","2.0.0","273581","24","<div class=""pb-14 text-7xl"">+</div>","null","fixation","","","","","",""
"","467","html-keynbutton-response","314","2.0.0","274049","24","<div class=""flex flex-row stim-length pb-8 md:pd-20 justify-evenly items-center""><div class=""circle""></div><div class=""square""></div><div class=""circle""></div></div>","p","","shape_test_3","mismatch","方","p","true","方"
"","null","html-keynbutton-response","315","2.0.0","274563","24","<div class=""pb-14 text-7xl"">+</div>","null","fixation","","","","","",""
"","397","html-keynbutton-response","316","2.0.0","274961","24","<div class=""flex flex-row stim-length pb-8 md:pd-20 justify-evenly items-center""><div class=""circle""></div><div class=""circle""></div><div class=""circle""></div></div>","q","","shape_test_3","match","圆","q","true","圆"
"","null","html-keynbutton-response","317","2.0.0","275464","24","<div class=""pb-14 text-7xl"">+</div>","null","fixation","","","","","",""
"","360","html-keynbutton-response","318","2.0.0","275825","24","<div class=""flex flex-row stim-length pb-8 md:pd-20 justify-evenly items-center""><div class=""square""></div><div class=""square""></div><div class=""square""></div></div>","q","","shape_test_3","match","方","p","false","圆"
"","null","html-keynbutton-response","319","2.0.0","276331","24","<div class=""pb-14 text-7xl"">+</div>","null","fixation","","","","","",""
"","661","html-keynbutton-response","320","2.0.0","276993","24","<div class=""flex flex-row stim-length pb-8 md:pd-20 justify-evenly items-center""><div class=""square""></div><div class=""circle""></div><div class=""square""></div></div>","q","","shape_test_3","mismatch","圆","q","true","圆"
"","null","html-keynbutton-response","321","2.0.0","277498","24","<div class=""pb-14 text-7xl"">+</div>","null","fixation","","","","","",""
"","422","html-keynbutton-response","322","2.0.0","277921","24","<div class=""flex flex-row stim-length pb-8 md:pd-20 justify-evenly items-center""><div class=""circle""></div><div class=""circle""></div><div class=""circle""></div></div>","q","","shape_test_3","match","圆","q","true","圆"
"","null","html-keynbutton-response","323","2.0.0","278428","24","<div class=""pb-14 text-7xl"">+</div>","null","fixation","","","","","",""
"","275","html-keynbutton-response","324","2.0.0","278704","24","<div class=""flex flex-row stim-length pb-8 md:pd-20 justify-evenly items-center""><div class=""square""></div><div class=""square""></div><div class=""square""></div></div>","p","","shape_test_3","match","方","p","true","方"
"","null","html-keynbutton-response","325","2.0.0","279213","24","<div class=""pb-14 text-7xl"">+</div>","null","fixation","","","","","",""
"","260","html-keynbutton-response","326","2.0.0","279473","24","<div class=""flex flex-row stim-length pb-8 md:pd-20 justify-evenly items-center""><div class=""square""></div><div class=""circle""></div><div class=""square""></div></div>","p","","shape_test_3","mismatch","圆","q","false","方"
"","null","html-keynbutton-response","327","2.0.0","279981","24","<div class=""pb-14 text-7xl"">+</div>","null","fixation","","","","","",""
"","564","html-keynbutton-response","328","2.0.0","280546","24","<div class=""flex flex-row stim-length pb-8 md:pd-20 justify-evenly items-center""><div class=""circle""></div><div class=""square""></div><div class=""circle""></div></div>","q","","shape_test_3","mismatch","方","p","false","圆"
"","null","html-keynbutton-response","329","2.0.0","281048","24","<div class=""pb-14 text-7xl"">+</div>","null","fixation","","","","","",""
"","456","html-keynbutton-response","330","2.0.0","281505","24","<div class=""flex flex-row stim-length pb-8 md:pd-20 justify-evenly items-center""><div class=""square""></div><div class=""circle""></div><div class=""square""></div></div>","q","","shape_test_3","mismatch","圆","q","true","圆"
"","null","html-keynbutton-response","331","2.0.0","282015","24","<div class=""pb-14 text-7xl"">+</div>","null","fixation","","","","","",""
"","433","html-keynbutton-response","332","2.0.0","282449","24","<div class=""flex flex-row stim-length pb-8 md:pd-20 justify-evenly items-center""><div class=""square""></div><div class=""square""></div><div class=""square""></div></div>","p","","shape_test_3","match","方","p","true","方"
"","null","html-keynbutton-response","333","2.0.0","282964","24","<div class=""pb-14 text-7xl"">+</div>","null","fixation","","","","","",""
"","396","html-keynbutton-response","334","2.0.0","283361","24","<div class=""flex flex-row stim-length pb-8 md:pd-20 justify-evenly items-center""><div class=""circle""></div><div class=""circle""></div><div class=""circle""></div></div>","q","","shape_test_3","match","圆","q","true","圆"
"","null","html-keynbutton-response","335","2.0.0","283865","24","<div class=""pb-14 text-7xl"">+</div>","null","fixation","","","","","",""
"","375","html-keynbutton-response","336","2.0.0","284239","24","<div class=""flex flex-row stim-length pb-8 md:pd-20 justify-evenly items-center""><div class=""circle""></div><div class=""square""></div><div class=""circle""></div></div>","p","","shape_test_3","mismatch","方","p","true","方"
"","null","html-keynbutton-response","337","2.0.0","284745","24","<div class=""pb-14 text-7xl"">+</div>","null","fixation","","","","","",""
"","404","html-keynbutton-response","338","2.0.0","285151","24","<div class=""flex flex-row stim-length pb-8 md:pd-20 justify-evenly items-center""><div class=""circle""></div><div class=""square""></div><div class=""circle""></div></div>","p","","shape_test_3","mismatch","方","p","true","方"
"","null","html-keynbutton-response","339","2.0.0","285660","24","<div class=""pb-14 text-7xl"">+</div>","null","fixation","","","","","",""
"","594","html-keynbutton-response","340","2.0.0","286255","24","<div class=""flex flex-row stim-length pb-8 md:pd-20 justify-evenly items-center""><div class=""square""></div><div class=""square""></div><div class=""square""></div></div>","p","","shape_test_3","match","方","p","true","方"
"","null","html-keynbutton-response","341","2.0.0","286762","24","<div class=""pb-14 text-7xl"">+</div>","null","fixation","","","","","",""
"","372","html-keynbutton-response","342","2.0.0","287135","24","<div class=""flex flex-row stim-length pb-8 md:pd-20 justify-evenly items-center""><div class=""square""></div><div class=""circle""></div><div class=""square""></div></div>","q","","shape_test_3","mismatch","圆","q","true","圆"
"","null","html-keynbutton-response","343","2.0.0","287645","24","<div class=""pb-14 text-7xl"">+</div>","null","fixation","","","","","",""
"","386","html-keynbutton-response","344","2.0.0","288031","24","<div class=""flex flex-row stim-length pb-8 md:pd-20 justify-evenly items-center""><div class=""circle""></div><div class=""circle""></div><div class=""circle""></div></div>","q","","shape_test_3","match","圆","q","true","圆"
"","null","html-keynbutton-response","345","2.0.0","288544","24","<div class=""pb-14 text-7xl"">+</div>","null","fixation","","","","","",""
"","702","html-keynbutton-response","346","2.0.0","289247","24","<div class=""flex flex-row stim-length pb-8 md:pd-20 justify-evenly items-center""><div class=""circle""></div><div class=""square""></div><div class=""circle""></div></div>","p","","shape_test_3","mismatch","方","p","true","方"
"","null","html-keynbutton-response","347","2.0.0","289761","24","<div class=""pb-14 text-7xl"">+</div>","null","fixation","","","","","",""
"","413","html-keynbutton-response","348","2.0.0","290175","24","<div class=""flex flex-row stim-length pb-8 md:pd-20 justify-evenly items-center""><div class=""square""></div><div class=""circle""></div><div class=""square""></div></div>","q","","shape_test_3","mismatch","圆","q","true","圆"
"","null","html-keynbutton-response","349","2.0.0","290680","24","<div class=""pb-14 text-7xl"">+</div>","null","fixation","","","","","",""
"","423","html-keynbutton-response","350","2.0.0","291103","24","<div class=""flex flex-row stim-length pb-8 md:pd-20 justify-evenly items-center""><div class=""square""></div><div class=""square""></div><div class=""square""></div></div>","p","","shape_test_3","match","方","p","true","方"
"","null","html-keynbutton-response","351","2.0.0","291610","24","<div class=""pb-14 text-7xl"">+</div>","null","fixation","","","","","",""
"","452","html-keynbutton-response","352","2.0.0","292063","24","<div class=""flex flex-row stim-length pb-8 md:pd-20 justify-evenly items-center""><div class=""circle""></div><div class=""circle""></div><div class=""circle""></div></div>","q","","shape_test_3","match","圆","q","true","圆"
"","null","html-keynbutton-response","353","2.0.0","292578","24","<div class=""pb-14 text-7xl"">+</div>","null","fixation","","","","","",""
"","428","html-keynbutton-response","354","2.0.0","293007","24","<div class=""flex flex-row stim-length pb-8 md:pd-20 justify-evenly items-center""><div class=""circle""></div><div class=""square""></div><div class=""circle""></div></div>","p","","shape_test_3","mismatch","方","p","true","方"
"","null","html-keynbutton-response","355","2.0.0","293513","24","<div class=""pb-14 text-7xl"">+</div>","null","fixation","","","","","",""
"","453","html-keynbutton-response","356","2.0.0","293967","24","<div class=""flex flex-row stim-length pb-8 md:pd-20 justify-evenly items-center""><div class=""circle""></div><div class=""circle""></div><div class=""circle""></div></div>","q","","shape_test_3","match","圆","q","true","圆"
"","null","html-keynbutton-response","357","2.0.0","294478","24","<div class=""pb-14 text-7xl"">+</div>","null","fixation","","","","","",""
"","351","html-keynbutton-response","358","2.0.0","294830","24","<div class=""flex flex-row stim-length pb-8 md:pd-20 justify-evenly items-center""><div class=""square""></div><div class=""circle""></div><div class=""square""></div></div>","q","","shape_test_3","mismatch","圆","q","true","圆"
"","null","html-keynbutton-response","359","2.0.0","295344","24","<div class=""pb-14 text-7xl"">+</div>","null","fixation","","","","","",""
"","413","html-keynbutton-response","360","2.0.0","295758","24","<div class=""flex flex-row stim-length pb-8 md:pd-20 justify-evenly items-center""><div class=""square""></div><div class=""square""></div><div class=""square""></div></div>","p","","shape_test_3","match","方","p","true","方"
"","null","html-keynbutton-response","361","2.0.0","296263","24","<div class=""pb-14 text-7xl"">+</div>","null","fixation","","","","","",""
"","311","html-keynbutton-response","362","2.0.0","296575","24","<div class=""flex flex-row stim-length pb-8 md:pd-20 justify-evenly items-center""><div class=""square""></div><div class=""square""></div><div class=""square""></div></div>","p","","shape_test_3","match","方","p","true","方"
"","null","html-keynbutton-response","363","2.0.0","297079","24","<div class=""pb-14 text-7xl"">+</div>","null","fixation","","","","","",""
"","279","html-keynbutton-response","364","2.0.0","297359","24","<div class=""flex flex-row stim-length pb-8 md:pd-20 justify-evenly items-center""><div class=""circle""></div><div class=""square""></div><div class=""circle""></div></div>","p","","shape_test_3","mismatch","方","p","true","方"
"","null","html-keynbutton-response","365","2.0.0","297862","24","<div class=""pb-14 text-7xl"">+</div>","null","fixation","","","","","",""
"","280","html-keynbutton-response","366","2.0.0","298143","24","<div class=""flex flex-row stim-length pb-8 md:pd-20 justify-evenly items-center""><div class=""square""></div><div class=""circle""></div><div class=""square""></div></div>","q","","shape_test_3","mismatch","圆","q","true","圆"
"","null","html-keynbutton-response","367","2.0.0","298646","24","<div class=""pb-14 text-7xl"">+</div>","null","fixation","","","","","",""
"","330","html-keynbutton-response","368","2.0.0","298977","24","<div class=""flex flex-row stim-length pb-8 md:pd-20 justify-evenly items-center""><div class=""circle""></div><div class=""circle""></div><div class=""circle""></div></div>","q","","shape_test_3","match","圆","q","true","圆"
"","null","html-keynbutton-response","369","2.0.0","299479","24","<div class=""pb-14 text-7xl"">+</div>","null","fixation","","","","","",""
"","439","html-keynbutton-response","370","2.0.0","299919","24","<div class=""flex flex-row stim-length pb-8 md:pd-20 justify-evenly items-center""><div class=""square""></div><div class=""square""></div><div class=""square""></div></div>","p","","shape_test_3","match","方","p","true","方"
"","null","html-keynbutton-response","371","2.0.0","300428","24","<div class=""pb-14 text-7xl"">+</div>","null","fixation","","","","","",""
"","402","html-keynbutton-response","372","2.0.0","300830","24","<div class=""flex flex-row stim-length pb-8 md:pd-20 justify-evenly items-center""><div class=""circle""></div><div class=""circle""></div><div class=""circle""></div></div>","q","","shape_test_3","match","圆","q","true","圆"
"","null","html-keynbutton-response","373","2.0.0","301345","24","<div class=""pb-14 text-7xl"">+</div>","null","fixation","","","","","",""
"","558","html-keynbutton-response","374","2.0.0","301903","24","<div class=""flex flex-row stim-length pb-8 md:pd-20 justify-evenly items-center""><div class=""circle""></div><div class=""square""></div><div class=""circle""></div></div>","p","","shape_test_3","mismatch","方","p","true","方"
"","null","html-keynbutton-response","375","2.0.0","302411","24","<div class=""pb-14 text-7xl"">+</div>","null","fixation","","","","","",""
"","563","html-keynbutton-response","376","2.0.0","302975","24","<div class=""flex flex-row stim-length pb-8 md:pd-20 justify-evenly items-center""><div class=""square""></div><div class=""circle""></div><div class=""square""></div></div>","q","","shape_test_3","mismatch","圆","q","true","圆"
"","null","html-keynbutton-response","377","2.0.0","303479","24","<div class=""pb-14 text-7xl"">+</div>","null","fixation","","","","","",""
"","390","html-keynbutton-response","378","2.0.0","303870","24","<div class=""flex flex-row stim-length pb-8 md:pd-20 justify-evenly items-center""><div class=""square""></div><div class=""square""></div><div class=""square""></div></div>","p","","shape_test_3","match","方","p","true","方"
"","null","html-keynbutton-response","379","2.0.0","304378","24","<div class=""pb-14 text-7xl"">+</div>","null","fixation","","","","","",""
"","468","html-keynbutton-response","380","2.0.0","304846","24","<div class=""flex flex-row stim-length pb-8 md:pd-20 justify-evenly items-center""><div class=""circle""></div><div class=""square""></div><div class=""circle""></div></div>","p","","shape_test_3","mismatch","方","p","true","方"
"","null","html-keynbutton-response","381","2.0.0","305362","24","<div class=""pb-14 text-7xl"">+</div>","null","fixation","","","","","",""
"","460","html-keynbutton-response","382","2.0.0","305822","24","<div class=""flex flex-row stim-length pb-8 md:pd-20 justify-evenly items-center""><div class=""circle""></div><div class=""circle""></div><div class=""circle""></div></div>","q","","shape_test_3","match","圆","q","true","圆"
"","null","html-keynbutton-response","383","2.0.0","306328","24","<div class=""pb-14 text-7xl"">+</div>","null","fixation","","","","","",""
"","310","html-keynbutton-response","384","2.0.0","306639","24","<div class=""flex flex-row stim-length pb-8 md:pd-20 justify-evenly items-center""><div class=""square""></div><div class=""circle""></div><div class=""square""></div></div>","q","","shape_test_3","mismatch","圆","q","true","圆"
"","null","html-keynbutton-response","385","2.0.0","307145","24","<div class=""pb-14 text-7xl"">+</div>","null","fixation","","","","","",""
"","341","html-keynbutton-response","386","2.0.0","307487","24","<div class=""flex flex-row stim-length pb-8 md:pd-20 justify-evenly items-center""><div class=""square""></div><div class=""square""></div><div class=""square""></div></div>","q","","shape_test_3","match","方","p","false","圆"
"","null","html-keynbutton-response","387","2.0.0","307994","24","<div class=""pb-14 text-7xl"">+</div>","null","fixation","","","","","",""
"","564","html-keynbutton-response","388","2.0.0","308559","24","<div class=""flex flex-row stim-length pb-8 md:pd-20 justify-evenly items-center""><div class=""circle""></div><div class=""circle""></div><div class=""circle""></div></div>","q","","shape_test_3","match","圆","q","true","圆"
"","null","html-keynbutton-response","389","2.0.0","309062","24","<div class=""pb-14 text-7xl"">+</div>","null","fixation","","","","","",""
"","408","html-keynbutton-response","390","2.0.0","309471","24","<div class=""flex flex-row stim-length pb-8 md:pd-20 justify-evenly items-center""><div class=""circle""></div><div class=""square""></div><div class=""circle""></div></div>","p","","shape_test_3","mismatch","方","p","true","方"
"","null","html-keynbutton-response","391","2.0.0","309980","24","<div class=""pb-14 text-7xl"">+</div>","null","fixation","","","","","",""
"","418","html-keynbutton-response","392","2.0.0","310399","24","<div class=""flex flex-row stim-length pb-8 md:pd-20 justify-evenly items-center""><div class=""square""></div><div class=""circle""></div><div class=""square""></div></div>","q","","shape_test_3","mismatch","圆","q","true","圆"
"","2671","html-keynbutton-response","393","2.0.0","313071","24","<div class=""jp""><p>您已完成4/10部分</p><p>请休息一会儿</p>
    <p>您的正确率是：90%</p>
    <p>您的平均反应时间是：424毫秒</p></div>"," ","block_feedback","","","","","",""
"","null","html-keynbutton-response","394","2.0.0","316275","24","<count-down title=""""></count-down>","null","countDown_trial","","","","","",""
"","null","html-keynbutton-response","395","2.0.0","316779","24","<div class=""pb-14 text-7xl"">+</div>","null","fixation","","","","","",""
"","611","html-keynbutton-response","396","2.0.0","317391","24","<div class=""flex flex-row stim-length pb-8 md:pd-20 justify-evenly items-center""><div class=""circle""></div><div class=""circle""></div><div class=""circle""></div></div>","q","","shape_test_4","match","圆","q","true","圆"
"","null","html-keynbutton-response","397","2.0.0","317896","24","<div class=""pb-14 text-7xl"">+</div>","null","fixation","","","","","",""
"","407","html-keynbutton-response","398","2.0.0","318303","24","<div class=""flex flex-row stim-length pb-8 md:pd-20 justify-evenly items-center""><div class=""circle""></div><div class=""square""></div><div class=""circle""></div></div>","p","","shape_test_4","mismatch","方","p","true","方"
"","null","html-keynbutton-response","399","2.0.0","318811","24","<div class=""pb-14 text-7xl"">+</div>","null","fixation","","","","","",""
"","420","html-keynbutton-response","400","2.0.0","319231","24","<div class=""flex flex-row stim-length pb-8 md:pd-20 justify-evenly items-center""><div class=""square""></div><div class=""circle""></div><div class=""square""></div></div>","q","","shape_test_4","mismatch","圆","q","true","圆"
"","null","html-keynbutton-response","401","2.0.0","319745","24","<div class=""pb-14 text-7xl"">+</div>","null","fixation","","","","","",""
"","366","html-keynbutton-response","402","2.0.0","320111","24","<div class=""flex flex-row stim-length pb-8 md:pd-20 justify-evenly items-center""><div class=""square""></div><div class=""square""></div><div class=""square""></div></div>","p","","shape_test_4","match","方","p","true","方"
"","null","html-keynbutton-response","403","2.0.0","320612","24","<div class=""pb-14 text-7xl"">+</div>","null","fixation","","","","","",""
"","490","html-keynbutton-response","404","2.0.0","321103","24","<div class=""flex flex-row stim-length pb-8 md:pd-20 justify-evenly items-center""><div class=""square""></div><div class=""circle""></div><div class=""square""></div></div>","q","","shape_test_4","mismatch","圆","q","true","圆"
"","null","html-keynbutton-response","405","2.0.0","321611","24","<div class=""pb-14 text-7xl"">+</div>","null","fixation","","","","","",""
"","419","html-keynbutton-response","406","2.0.0","322031","24","<div class=""flex flex-row stim-length pb-8 md:pd-20 justify-evenly items-center""><div class=""circle""></div><div class=""square""></div><div class=""circle""></div></div>","p","","shape_test_4","mismatch","方","p","true","方"
"","null","html-keynbutton-response","407","2.0.0","322544","24","<div class=""pb-14 text-7xl"">+</div>","null","fixation","","","","","",""
"","526","html-keynbutton-response","408","2.0.0","323071","24","<div class=""flex flex-row stim-length pb-8 md:pd-20 justify-evenly items-center""><div class=""square""></div><div class=""square""></div><div class=""square""></div></div>","p","","shape_test_4","match","方","p","true","方"
"","null","html-keynbutton-response","409","2.0.0","323578","24","<div class=""pb-14 text-7xl"">+</div>","null","fixation","","","","","",""
"","404","html-keynbutton-response","410","2.0.0","323982","24","<div class=""flex flex-row stim-length pb-8 md:pd-20 justify-evenly items-center""><div class=""circle""></div><div class=""circle""></div><div class=""circle""></div></div>","q","","shape_test_4","match","圆","q","true","圆"
"","null","html-keynbutton-response","411","2.0.0","324495","24","<div class=""pb-14 text-7xl"">+</div>","null","fixation","","","","","",""
"","431","html-keynbutton-response","412","2.0.0","324927","24","<div class=""flex flex-row stim-length pb-8 md:pd-20 justify-evenly items-center""><div class=""square""></div><div class=""square""></div><div class=""square""></div></div>","p","","shape_test_4","match","方","p","true","方"
"","null","html-keynbutton-response","413","2.0.0","325429","24","<div class=""pb-14 text-7xl"">+</div>","null","fixation","","","","","",""
"","537","html-keynbutton-response","414","2.0.0","325967","24","<div class=""flex flex-row stim-length pb-8 md:pd-20 justify-evenly items-center""><div class=""circle""></div><div class=""circle""></div><div class=""circle""></div></div>","q","","shape_test_4","match","圆","q","true","圆"
"","null","html-keynbutton-response","415","2.0.0","326479","24","<div class=""pb-14 text-7xl"">+</div>","null","fixation","","","","","",""
"","464","html-keynbutton-response","416","2.0.0","326943","24","<div class=""flex flex-row stim-length pb-8 md:pd-20 justify-evenly items-center""><div class=""circle""></div><div class=""square""></div><div class=""circle""></div></div>","p","","shape_test_4","mismatch","方","p","true","方"
"","null","html-keynbutton-response","417","2.0.0","327447","24","<div class=""pb-14 text-7xl"">+</div>","null","fixation","","","","","",""
"","663","html-keynbutton-response","418","2.0.0","328110","24","<div class=""flex flex-row stim-length pb-8 md:pd-20 justify-evenly items-center""><div class=""square""></div><div class=""circle""></div><div class=""square""></div></div>","q","","shape_test_4","mismatch","圆","q","true","圆"
"","null","html-keynbutton-response","419","2.0.0","328612","24","<div class=""pb-14 text-7xl"">+</div>","null","fixation","","","","","",""
"","394","html-keynbutton-response","420","2.0.0","329007","24","<div class=""flex flex-row stim-length pb-8 md:pd-20 justify-evenly items-center""><div class=""circle""></div><div class=""circle""></div><div class=""circle""></div></div>","q","","shape_test_4","match","圆","q","true","圆"
"","null","html-keynbutton-response","421","2.0.0","329513","24","<div class=""pb-14 text-7xl"">+</div>","null","fixation","","","","","",""
"","405","html-keynbutton-response","422","2.0.0","329919","24","<div class=""flex flex-row stim-length pb-8 md:pd-20 justify-evenly items-center""><div class=""square""></div><div class=""square""></div><div class=""square""></div></div>","p","","shape_test_4","match","方","p","true","方"
"","null","html-keynbutton-response","423","2.0.0","330428","24","<div class=""pb-14 text-7xl"">+</div>","null","fixation","","","","","",""
"","322","html-keynbutton-response","424","2.0.0","330750","24","<div class=""flex flex-row stim-length pb-8 md:pd-20 justify-evenly items-center""><div class=""circle""></div><div class=""square""></div><div class=""circle""></div></div>","p","","shape_test_4","mismatch","方","p","true","方"
"","null","html-keynbutton-response","425","2.0.0","331261","24","<div class=""pb-14 text-7xl"">+</div>","null","fixation","","","","","",""
"","385","html-keynbutton-response","426","2.0.0","331647","24","<div class=""flex flex-row stim-length pb-8 md:pd-20 justify-evenly items-center""><div class=""square""></div><div class=""circle""></div><div class=""square""></div></div>","q","","shape_test_4","mismatch","圆","q","true","圆"
"","null","html-keynbutton-response","427","2.0.0","332161","24","<div class=""pb-14 text-7xl"">+</div>","null","fixation","","","","","",""
"","381","html-keynbutton-response","428","2.0.0","332543","24","<div class=""flex flex-row stim-length pb-8 md:pd-20 justify-evenly items-center""><div class=""circle""></div><div class=""square""></div><div class=""circle""></div></div>","p","","shape_test_4","mismatch","方","p","true","方"
"","null","html-keynbutton-response","429","2.0.0","333045","24","<div class=""pb-14 text-7xl"">+</div>","null","fixation","","","","","",""
"","521","html-keynbutton-response","430","2.0.0","333567","24","<div class=""flex flex-row stim-length pb-8 md:pd-20 justify-evenly items-center""><div class=""square""></div><div class=""square""></div><div class=""square""></div></div>","p","","shape_test_4","match","方","p","true","方"
"","null","html-keynbutton-response","431","2.0.0","334078","24","<div class=""pb-14 text-7xl"">+</div>","null","fixation","","","","","",""
"","432","html-keynbutton-response","432","2.0.0","334510","24","<div class=""flex flex-row stim-length pb-8 md:pd-20 justify-evenly items-center""><div class=""circle""></div><div class=""circle""></div><div class=""circle""></div></div>","q","","shape_test_4","match","圆","q","true","圆"
"","null","html-keynbutton-response","433","2.0.0","335013","24","<div class=""pb-14 text-7xl"">+</div>","null","fixation","","","","","",""
"","345","html-keynbutton-response","434","2.0.0","335358","24","<div class=""flex flex-row stim-length pb-8 md:pd-20 justify-evenly items-center""><div class=""square""></div><div class=""circle""></div><div class=""square""></div></div>","q","","shape_test_4","mismatch","圆","q","true","圆"
"","null","html-keynbutton-response","435","2.0.0","335863","24","<div class=""pb-14 text-7xl"">+</div>","null","fixation","","","","","",""
"","471","html-keynbutton-response","436","2.0.0","336335","24","<div class=""flex flex-row stim-length pb-8 md:pd-20 justify-evenly items-center""><div class=""circle""></div><div class=""square""></div><div class=""circle""></div></div>","p","","shape_test_4","mismatch","方","p","true","方"
"","null","html-keynbutton-response","437","2.0.0","336845","24","<div class=""pb-14 text-7xl"">+</div>","null","fixation","","","","","",""
"","449","html-keynbutton-response","438","2.0.0","337295","24","<div class=""flex flex-row stim-length pb-8 md:pd-20 justify-evenly items-center""><div class=""square""></div><div class=""circle""></div><div class=""square""></div></div>","q","","shape_test_4","mismatch","圆","q","true","圆"
"","null","html-keynbutton-response","439","2.0.0","337811","24","<div class=""pb-14 text-7xl"">+</div>","null","fixation","","","","","",""
"","443","html-keynbutton-response","440","2.0.0","338255","24","<div class=""flex flex-row stim-length pb-8 md:pd-20 justify-evenly items-center""><div class=""square""></div><div class=""square""></div><div class=""square""></div></div>","p","","shape_test_4","match","方","p","true","方"
"","null","html-keynbutton-response","441","2.0.0","338763","24","<div class=""pb-14 text-7xl"">+</div>","null","fixation","","","","","",""
"","498","html-keynbutton-response","442","2.0.0","339262","24","<div class=""flex flex-row stim-length pb-8 md:pd-20 justify-evenly items-center""><div class=""circle""></div><div class=""circle""></div><div class=""circle""></div></div>","q","","shape_test_4","match","圆","q","true","圆"
"","null","html-keynbutton-response","443","2.0.0","339763","24","<div class=""pb-14 text-7xl"">+</div>","null","fixation","","","","","",""
"","331","html-keynbutton-response","444","2.0.0","340095","24","<div class=""flex flex-row stim-length pb-8 md:pd-20 justify-evenly items-center""><div class=""square""></div><div class=""circle""></div><div class=""square""></div></div>","q","","shape_test_4","mismatch","圆","q","true","圆"
"","null","html-keynbutton-response","445","2.0.0","340596","24","<div class=""pb-14 text-7xl"">+</div>","null","fixation","","","","","",""
"","458","html-keynbutton-response","446","2.0.0","341055","24","<div class=""flex flex-row stim-length pb-8 md:pd-20 justify-evenly items-center""><div class=""square""></div><div class=""square""></div><div class=""square""></div></div>","p","","shape_test_4","match","方","p","true","方"
"","null","html-keynbutton-response","447","2.0.0","341562","24","<div class=""pb-14 text-7xl"">+</div>","null","fixation","","","","","",""
"","356","html-keynbutton-response","448","2.0.0","341919","24","<div class=""flex flex-row stim-length pb-8 md:pd-20 justify-evenly items-center""><div class=""circle""></div><div class=""square""></div><div class=""circle""></div></div>","p","","shape_test_4","mismatch","方","p","true","方"
"","null","html-keynbutton-response","449","2.0.0","342427","24","<div class=""pb-14 text-7xl"">+</div>","null","fixation","","","","","",""
"","483","html-keynbutton-response","450","2.0.0","342911","24","<div class=""flex flex-row stim-length pb-8 md:pd-20 justify-evenly items-center""><div class=""circle""></div><div class=""circle""></div><div class=""circle""></div></div>","q","","shape_test_4","match","圆","q","true","圆"
"","null","html-keynbutton-response","451","2.0.0","343427","24","<div class=""pb-14 text-7xl"">+</div>","null","fixation","","","","","",""
"","411","html-keynbutton-response","452","2.0.0","343839","24","<div class=""flex flex-row stim-length pb-8 md:pd-20 justify-evenly items-center""><div class=""square""></div><div class=""square""></div><div class=""square""></div></div>","q","","shape_test_4","match","方","p","false","圆"
"","null","html-keynbutton-response","453","2.0.0","344347","24","<div class=""pb-14 text-7xl"">+</div>","null","fixation","","","","","",""
"","503","html-keynbutton-response","454","2.0.0","344851","24","<div class=""flex flex-row stim-length pb-8 md:pd-20 justify-evenly items-center""><div class=""square""></div><div class=""circle""></div><div class=""square""></div></div>","q","","shape_test_4","mismatch","圆","q","true","圆"
"","null","html-keynbutton-response","455","2.0.0","345363","24","<div class=""pb-14 text-7xl"">+</div>","null","fixation","","","","","",""
"","541","html-keynbutton-response","456","2.0.0","345905","24","<div class=""flex flex-row stim-length pb-8 md:pd-20 justify-evenly items-center""><div class=""circle""></div><div class=""circle""></div><div class=""circle""></div></div>","q","","shape_test_4","match","圆","q","true","圆"
"","null","html-keynbutton-response","457","2.0.0","346412","24","<div class=""pb-14 text-7xl"">+</div>","null","fixation","","","","","",""
"","453","html-keynbutton-response","458","2.0.0","346865","24","<div class=""flex flex-row stim-length pb-8 md:pd-20 justify-evenly items-center""><div class=""circle""></div><div class=""square""></div><div class=""circle""></div></div>","p","","shape_test_4","mismatch","方","p","true","方"
"","null","html-keynbutton-response","459","2.0.0","347380","24","<div class=""pb-14 text-7xl"">+</div>","null","fixation","","","","","",""
"","540","html-keynbutton-response","460","2.0.0","347921","24","<div class=""flex flex-row stim-length pb-8 md:pd-20 justify-evenly items-center""><div class=""circle""></div><div class=""square""></div><div class=""circle""></div></div>","p","","shape_test_4","mismatch","方","p","true","方"
"","null","html-keynbutton-response","461","2.0.0","348429","24","<div class=""pb-14 text-7xl"">+</div>","null","fixation","","","","","",""
"","435","html-keynbutton-response","462","2.0.0","348865","24","<div class=""flex flex-row stim-length pb-8 md:pd-20 justify-evenly items-center""><div class=""square""></div><div class=""circle""></div><div class=""square""></div></div>","q","","shape_test_4","mismatch","圆","q","true","圆"
"","null","html-keynbutton-response","463","2.0.0","349380","24","<div class=""pb-14 text-7xl"">+</div>","null","fixation","","","","","",""
"","412","html-keynbutton-response","464","2.0.0","349793","24","<div class=""flex flex-row stim-length pb-8 md:pd-20 justify-evenly items-center""><div class=""circle""></div><div class=""circle""></div><div class=""circle""></div></div>","q","","shape_test_4","match","圆","q","true","圆"
"","null","html-keynbutton-response","465","2.0.0","350297","24","<div class=""pb-14 text-7xl"">+</div>","null","fixation","","","","","",""
"","407","html-keynbutton-response","466","2.0.0","350705","24","<div class=""flex flex-row stim-length pb-8 md:pd-20 justify-evenly items-center""><div class=""square""></div><div class=""square""></div><div class=""square""></div></div>","p","","shape_test_4","match","方","p","true","方"
"","null","html-keynbutton-response","467","2.0.0","351212","24","<div class=""pb-14 text-7xl"">+</div>","null","fixation","","","","","",""
