"success","rt","trial_type","trial_index","plugin_version","time_elapsed","subj_id","stimulus","response","trail_tag","task","ismatch","target","correct_key","correct","response_key"
"true","3006821","fullscreen","0","2.0.0","3007829","6","","","","","","","","",""
"","11560","html-keynbutton-response","1","2.0.0","3019393","6","
        <div class=""jp px-2 xxs:px-5 mx-auto"">
        <p class=""text-center text-red-600 text-[1.2em] pb-5"">欢迎您参加知觉
          <strong>匹配实验。</strong>
        </p>
        <p>接下来的任务中您将看到一排图形。</p>
        <p>(圆形●或方形■)</p><p>您需要专注于中间的图形，判断中间的图形和两侧的图形<strong>是否匹配</strong>。</p>
        <p>如果图形匹配，请按“q”；</p>
        <p>如果图形不匹配，请按“p”。</p>
        <p>请尽量又快又准地做出反应。</p>
      <p>请按空格键开始练习。</p>
      </div>"," ","","","","","","",""
"","null","html-keynbutton-response","2","2.0.0","3022603","6","<count-down title=""""></count-down>","null","countDown_trial","","","","","",""
"","null","html-keynbutton-response","3","2.0.0","3023106","6","<div class=""pb-14 text-7xl"">+</div>","null","fixation","","","","","",""
"","1158","html-keynbutton-response","4","2.0.0","3024266","6","<div class=""flex flex-row stim-length pb-8 md:pd-20 justify-evenly items-center""><div class=""square""></div><div class=""square""></div><div class=""square""></div></div>","q","","matchness_practice","match","方","q","true","match"
"","null","html-keynbutton-response","5","2.0.0","3024772","6","<span class='text-green-400 text-4xl md:text-5xl lg:text-6xl'>正确!</span>","null","trial_feedback","","","","","",""
"","null","html-keynbutton-response","6","2.0.0","3025287","6","<div class=""pb-14 text-7xl"">+</div>","null","fixation","","","","","",""
"","1105","html-keynbutton-response","7","2.0.0","3026393","6","<div class=""flex flex-row stim-length pb-8 md:pd-20 justify-evenly items-center""><div class=""circle""></div><div class=""square""></div><div class=""circle""></div></div>","p","","matchness_practice","mismatch","方","p","true","mismatch"
"","null","html-keynbutton-response","8","2.0.0","3026905","6","<span class='text-green-400 text-4xl md:text-5xl lg:text-6xl'>正确!</span>","null","trial_feedback","","","","","",""
"","null","html-keynbutton-response","9","2.0.0","3027407","6","<div class=""pb-14 text-7xl"">+</div>","null","fixation","","","","","",""
"","793","html-keynbutton-response","10","2.0.0","3028201","6","<div class=""flex flex-row stim-length pb-8 md:pd-20 justify-evenly items-center""><div class=""square""></div><div class=""circle""></div><div class=""square""></div></div>","p","","matchness_practice","mismatch","圆","p","true","mismatch"
"","null","html-keynbutton-response","11","2.0.0","3028707","6","<span class='text-green-400 text-4xl md:text-5xl lg:text-6xl'>正确!</span>","null","trial_feedback","","","","","",""
"","null","html-keynbutton-response","12","2.0.0","3029222","6","<div class=""pb-14 text-7xl"">+</div>","null","fixation","","","","","",""
"","658","html-keynbutton-response","13","2.0.0","3029880","6","<div class=""flex flex-row stim-length pb-8 md:pd-20 justify-evenly items-center""><div class=""circle""></div><div class=""circle""></div><div class=""circle""></div></div>","q","","matchness_practice","match","圆","q","true","match"
"","null","html-keynbutton-response","14","2.0.0","3030389","6","<span class='text-green-400 text-4xl md:text-5xl lg:text-6xl'>正确!</span>","null","trial_feedback","","","","","",""
"","null","html-keynbutton-response","15","2.0.0","3030905","6","<div class=""pb-14 text-7xl"">+</div>","null","fixation","","","","","",""
"","480","html-keynbutton-response","16","2.0.0","3031385","6","<div class=""flex flex-row stim-length pb-8 md:pd-20 justify-evenly items-center""><div class=""circle""></div><div class=""circle""></div><div class=""circle""></div></div>","q","","matchness_practice","match","圆","q","true","match"
"","null","html-keynbutton-response","17","2.0.0","3031889","6","<span class='text-green-400 text-4xl md:text-5xl lg:text-6xl'>正确!</span>","null","trial_feedback","","","","","",""
"","null","html-keynbutton-response","18","2.0.0","3032390","6","<div class=""pb-14 text-7xl"">+</div>","null","fixation","","","","","",""
"","547","html-keynbutton-response","19","2.0.0","3032938","6","<div class=""flex flex-row stim-length pb-8 md:pd-20 justify-evenly items-center""><div class=""square""></div><div class=""square""></div><div class=""square""></div></div>","p","","matchness_practice","match","方","q","false","mismatch"
"","null","html-keynbutton-response","20","2.0.0","3033440","6","<span class='text-red-500 text-4xl md:text-5xl lg:text-6xl'>错误!</span>","null","trial_feedback","","","","","",""
"","null","html-keynbutton-response","21","2.0.0","3033955","6","<div class=""pb-14 text-7xl"">+</div>","null","fixation","","","","","",""
"","645","html-keynbutton-response","22","2.0.0","3034601","6","<div class=""flex flex-row stim-length pb-8 md:pd-20 justify-evenly items-center""><div class=""square""></div><div class=""circle""></div><div class=""square""></div></div>","p","","matchness_practice","mismatch","圆","p","true","mismatch"
"","null","html-keynbutton-response","23","2.0.0","3035108","6","<span class='text-green-400 text-4xl md:text-5xl lg:text-6xl'>正确!</span>","null","trial_feedback","","","","","",""
"","null","html-keynbutton-response","24","2.0.0","3035622","6","<div class=""pb-14 text-7xl"">+</div>","null","fixation","","","","","",""
"","1171","html-keynbutton-response","25","2.0.0","3036793","6","<div class=""flex flex-row stim-length pb-8 md:pd-20 justify-evenly items-center""><div class=""circle""></div><div class=""square""></div><div class=""circle""></div></div>","p","","matchness_practice","mismatch","方","p","true","mismatch"
"","null","html-keynbutton-response","26","2.0.0","3037305","6","<span class='text-green-400 text-4xl md:text-5xl lg:text-6xl'>正确!</span>","null","trial_feedback","","","","","",""
"","null","html-keynbutton-response","27","2.0.0","3037822","6","<div class=""pb-14 text-7xl"">+</div>","null","fixation","","","","","",""
"","635","html-keynbutton-response","28","2.0.0","3038457","6","<div class=""flex flex-row stim-length pb-8 md:pd-20 justify-evenly items-center""><div class=""square""></div><div class=""square""></div><div class=""square""></div></div>","q","","matchness_practice","match","方","q","true","match"
"","null","html-keynbutton-response","29","2.0.0","3038971","6","<span class='text-green-400 text-4xl md:text-5xl lg:text-6xl'>正确!</span>","null","trial_feedback","","","","","",""
"","null","html-keynbutton-response","30","2.0.0","3039473","6","<div class=""pb-14 text-7xl"">+</div>","null","fixation","","","","","",""
"","679","html-keynbutton-response","31","2.0.0","3040153","6","<div class=""flex flex-row stim-length pb-8 md:pd-20 justify-evenly items-center""><div class=""square""></div><div class=""circle""></div><div class=""square""></div></div>","p","","matchness_practice","mismatch","圆","p","true","mismatch"
"","null","html-keynbutton-response","32","2.0.0","3040656","6","<span class='text-green-400 text-4xl md:text-5xl lg:text-6xl'>正确!</span>","null","trial_feedback","","","","","",""
"","null","html-keynbutton-response","33","2.0.0","3041172","6","<div class=""pb-14 text-7xl"">+</div>","null","fixation","","","","","",""
"","964","html-keynbutton-response","34","2.0.0","3042137","6","<div class=""flex flex-row stim-length pb-8 md:pd-20 justify-evenly items-center""><div class=""circle""></div><div class=""square""></div><div class=""circle""></div></div>","p","","matchness_practice","mismatch","方","p","true","mismatch"
"","null","html-keynbutton-response","35","2.0.0","3042640","6","<span class='text-green-400 text-4xl md:text-5xl lg:text-6xl'>正确!</span>","null","trial_feedback","","","","","",""
"","null","html-keynbutton-response","36","2.0.0","3043155","6","<div class=""pb-14 text-7xl"">+</div>","null","fixation","","","","","",""
"","598","html-keynbutton-response","37","2.0.0","3043753","6","<div class=""flex flex-row stim-length pb-8 md:pd-20 justify-evenly items-center""><div class=""circle""></div><div class=""circle""></div><div class=""circle""></div></div>","q","","matchness_practice","match","圆","q","true","match"
"","null","html-keynbutton-response","38","2.0.0","3044256","6","<span class='text-green-400 text-4xl md:text-5xl lg:text-6xl'>正确!</span>","null","trial_feedback","","","","","",""
"","null","html-keynbutton-response","39","2.0.0","3044771","6","<div class=""pb-14 text-7xl"">+</div>","null","fixation","","","","","",""
"","629","html-keynbutton-response","40","2.0.0","3045401","6","<div class=""flex flex-row stim-length pb-8 md:pd-20 justify-evenly items-center""><div class=""square""></div><div class=""square""></div><div class=""square""></div></div>","q","","matchness_practice","match","方","q","true","match"
"","null","html-keynbutton-response","41","2.0.0","3045907","6","<span class='text-green-400 text-4xl md:text-5xl lg:text-6xl'>正确!</span>","null","trial_feedback","","","","","",""
"","null","html-keynbutton-response","42","2.0.0","3046422","6","<div class=""pb-14 text-7xl"">+</div>","null","fixation","","","","","",""
"","625","html-keynbutton-response","43","2.0.0","3047048","6","<div class=""flex flex-row stim-length pb-8 md:pd-20 justify-evenly items-center""><div class=""square""></div><div class=""circle""></div><div class=""square""></div></div>","p","","matchness_practice","mismatch","圆","p","true","mismatch"
"","null","html-keynbutton-response","44","2.0.0","3047555","6","<span class='text-green-400 text-4xl md:text-5xl lg:text-6xl'>正确!</span>","null","trial_feedback","","","","","",""
"","null","html-keynbutton-response","45","2.0.0","3048056","6","<div class=""pb-14 text-7xl"">+</div>","null","fixation","","","","","",""
"","480","html-keynbutton-response","46","2.0.0","3048537","6","<div class=""flex flex-row stim-length pb-8 md:pd-20 justify-evenly items-center""><div class=""circle""></div><div class=""circle""></div><div class=""circle""></div></div>","q","","matchness_practice","match","圆","q","true","match"
"","null","html-keynbutton-response","47","2.0.0","3049039","6","<span class='text-green-400 text-4xl md:text-5xl lg:text-6xl'>正确!</span>","null","trial_feedback","","","","","",""
"","null","html-keynbutton-response","48","2.0.0","3049556","6","<div class=""pb-14 text-7xl"">+</div>","null","fixation","","","","","",""
"","645","html-keynbutton-response","49","2.0.0","3050201","6","<div class=""flex flex-row stim-length pb-8 md:pd-20 justify-evenly items-center""><div class=""circle""></div><div class=""square""></div><div class=""circle""></div></div>","p","","matchness_practice","mismatch","方","p","true","mismatch"
"","null","html-keynbutton-response","50","2.0.0","3050707","6","<span class='text-green-400 text-4xl md:text-5xl lg:text-6xl'>正确!</span>","null","trial_feedback","","","","","",""
"","null","html-keynbutton-response","51","2.0.0","3051222","6","<div class=""pb-14 text-7xl"">+</div>","null","fixation","","","","","",""
"","946","html-keynbutton-response","52","2.0.0","3052169","6","<div class=""flex flex-row stim-length pb-8 md:pd-20 justify-evenly items-center""><div class=""square""></div><div class=""circle""></div><div class=""square""></div></div>","p","","matchness_practice","mismatch","圆","p","true","mismatch"
"","null","html-keynbutton-response","53","2.0.0","3052673","6","<span class='text-green-400 text-4xl md:text-5xl lg:text-6xl'>正确!</span>","null","trial_feedback","","","","","",""
"","null","html-keynbutton-response","54","2.0.0","3053188","6","<div class=""pb-14 text-7xl"">+</div>","null","fixation","","","","","",""
"","564","html-keynbutton-response","55","2.0.0","3053753","6","<div class=""flex flex-row stim-length pb-8 md:pd-20 justify-evenly items-center""><div class=""circle""></div><div class=""circle""></div><div class=""circle""></div></div>","q","","matchness_practice","match","圆","q","true","match"
"","null","html-keynbutton-response","56","2.0.0","3054256","6","<span class='text-green-400 text-4xl md:text-5xl lg:text-6xl'>正确!</span>","null","trial_feedback","","","","","",""
"","null","html-keynbutton-response","57","2.0.0","3054772","6","<div class=""pb-14 text-7xl"">+</div>","null","fixation","","","","","",""
"","772","html-keynbutton-response","58","2.0.0","3055545","6","<div class=""flex flex-row stim-length pb-8 md:pd-20 justify-evenly items-center""><div class=""circle""></div><div class=""square""></div><div class=""circle""></div></div>","p","","matchness_practice","mismatch","方","p","true","mismatch"
"","null","html-keynbutton-response","59","2.0.0","3056055","6","<span class='text-green-400 text-4xl md:text-5xl lg:text-6xl'>正确!</span>","null","trial_feedback","","","","","",""
"","null","html-keynbutton-response","60","2.0.0","3056556","6","<div class=""pb-14 text-7xl"">+</div>","null","fixation","","","","","",""
"","700","html-keynbutton-response","61","2.0.0","3057257","6","<div class=""flex flex-row stim-length pb-8 md:pd-20 justify-evenly items-center""><div class=""square""></div><div class=""square""></div><div class=""square""></div></div>","q","","matchness_practice","match","方","q","true","match"
"","null","html-keynbutton-response","62","2.0.0","3057772","6","<span class='text-green-400 text-4xl md:text-5xl lg:text-6xl'>正确!</span>","null","trial_feedback","","","","","",""
"","2088","html-keynbutton-response","64","2.0.0","3059864","6","<div class=""jp"">
    <p>您的正确率是：95%</p>
    <p>您的平均反应时间是：740毫秒</p></div>"," ","block_feedback","","","","","",""
"","4721","html-keynbutton-response","65","2.0.0","3064586","6","
        <div class=""jp px-2 xxs:px-5 mx-auto"">
        <p class=""text-center text-red-600 text-[1.2em] pb-5"">练习结束，现在开始正式实验</p>
        <p>请注意：正式实验中将不再会呈现反馈。</p>
        </div>
        "," ","","","","","","",""
"","null","html-keynbutton-response","66","2.0.0","3067802","6","<count-down title=""""></count-down>","null","countDown_trial","","","","","",""
"","null","html-keynbutton-response","67","2.0.0","3068306","6","<div class=""pb-14 text-7xl"">+</div>","null","fixation","","","","","",""
"","565","html-keynbutton-response","68","2.0.0","3068873","6","<div class=""flex flex-row stim-length pb-8 md:pd-20 justify-evenly items-center""><div class=""circle""></div><div class=""square""></div><div class=""circle""></div></div>","p","","matchness_test","mismatch","方","p","true","mismatch"
"","null","html-keynbutton-response","69","2.0.0","3069388","6","<div class=""pb-14 text-7xl"">+</div>","null","fixation","","","","","",""
"","571","html-keynbutton-response","70","2.0.0","3069960","6","<div class=""flex flex-row stim-length pb-8 md:pd-20 justify-evenly items-center""><div class=""square""></div><div class=""circle""></div><div class=""square""></div></div>","p","","matchness_test","mismatch","圆","p","true","mismatch"
"","null","html-keynbutton-response","71","2.0.0","3070471","6","<div class=""pb-14 text-7xl"">+</div>","null","fixation","","","","","",""
"","432","html-keynbutton-response","72","2.0.0","3070904","6","<div class=""flex flex-row stim-length pb-8 md:pd-20 justify-evenly items-center""><div class=""circle""></div><div class=""circle""></div><div class=""circle""></div></div>","q","","matchness_test","match","圆","q","true","match"
"","null","html-keynbutton-response","73","2.0.0","3071406","6","<div class=""pb-14 text-7xl"">+</div>","null","fixation","","","","","",""
"","442","html-keynbutton-response","74","2.0.0","3071849","6","<div class=""flex flex-row stim-length pb-8 md:pd-20 justify-evenly items-center""><div class=""square""></div><div class=""square""></div><div class=""square""></div></div>","q","","matchness_test","match","方","q","true","match"
"","null","html-keynbutton-response","75","2.0.0","3072356","6","<div class=""pb-14 text-7xl"">+</div>","null","fixation","","","","","",""
"","388","html-keynbutton-response","76","2.0.0","3072745","6","<div class=""flex flex-row stim-length pb-8 md:pd-20 justify-evenly items-center""><div class=""square""></div><div class=""square""></div><div class=""square""></div></div>","q","","matchness_test","match","方","q","true","match"
"","null","html-keynbutton-response","77","2.0.0","3073255","6","<div class=""pb-14 text-7xl"">+</div>","null","fixation","","","","","",""
"","465","html-keynbutton-response","78","2.0.0","3073721","6","<div class=""flex flex-row stim-length pb-8 md:pd-20 justify-evenly items-center""><div class=""circle""></div><div class=""square""></div><div class=""circle""></div></div>","p","","matchness_test","mismatch","方","p","true","mismatch"
"","null","html-keynbutton-response","79","2.0.0","3074222","6","<div class=""pb-14 text-7xl"">+</div>","null","fixation","","","","","",""
"","426","html-keynbutton-response","80","2.0.0","3074649","6","<div class=""flex flex-row stim-length pb-8 md:pd-20 justify-evenly items-center""><div class=""circle""></div><div class=""circle""></div><div class=""circle""></div></div>","q","","matchness_test","match","圆","q","true","match"
"","null","html-keynbutton-response","81","2.0.0","3075155","6","<div class=""pb-14 text-7xl"">+</div>","null","fixation","","","","","",""
"","532","html-keynbutton-response","82","2.0.0","3075689","6","<div class=""flex flex-row stim-length pb-8 md:pd-20 justify-evenly items-center""><div class=""square""></div><div class=""circle""></div><div class=""square""></div></div>","p","","matchness_test","mismatch","圆","p","true","mismatch"
"","null","html-keynbutton-response","83","2.0.0","3076191","6","<div class=""pb-14 text-7xl"">+</div>","null","fixation","","","","","",""
"","473","html-keynbutton-response","84","2.0.0","3076665","6","<div class=""flex flex-row stim-length pb-8 md:pd-20 justify-evenly items-center""><div class=""square""></div><div class=""circle""></div><div class=""square""></div></div>","p","","matchness_test","mismatch","圆","p","true","mismatch"
"","null","html-keynbutton-response","85","2.0.0","3077172","6","<div class=""pb-14 text-7xl"">+</div>","null","fixation","","","","","",""
"","452","html-keynbutton-response","86","2.0.0","3077625","6","<div class=""flex flex-row stim-length pb-8 md:pd-20 justify-evenly items-center""><div class=""circle""></div><div class=""circle""></div><div class=""circle""></div></div>","q","","matchness_test","match","圆","q","true","match"
"","null","html-keynbutton-response","87","2.0.0","3078137","6","<div class=""pb-14 text-7xl"">+</div>","null","fixation","","","","","",""
"","462","html-keynbutton-response","88","2.0.0","3078601","6","<div class=""flex flex-row stim-length pb-8 md:pd-20 justify-evenly items-center""><div class=""circle""></div><div class=""square""></div><div class=""circle""></div></div>","p","","matchness_test","mismatch","方","p","true","mismatch"
"","null","html-keynbutton-response","89","2.0.0","3079106","6","<div class=""pb-14 text-7xl"">+</div>","null","fixation","","","","","",""
"","501","html-keynbutton-response","90","2.0.0","3079609","6","<div class=""flex flex-row stim-length pb-8 md:pd-20 justify-evenly items-center""><div class=""square""></div><div class=""square""></div><div class=""square""></div></div>","q","","matchness_test","match","方","q","true","match"
"","null","html-keynbutton-response","91","2.0.0","3080121","6","<div class=""pb-14 text-7xl"">+</div>","null","fixation","","","","","",""
"","687","html-keynbutton-response","92","2.0.0","3080809","6","<div class=""flex flex-row stim-length pb-8 md:pd-20 justify-evenly items-center""><div class=""circle""></div><div class=""square""></div><div class=""circle""></div></div>","p","","matchness_test","mismatch","方","p","true","mismatch"
"","null","html-keynbutton-response","93","2.0.0","3081321","6","<div class=""pb-14 text-7xl"">+</div>","null","fixation","","","","","",""
"","527","html-keynbutton-response","94","2.0.0","3081849","6","<div class=""flex flex-row stim-length pb-8 md:pd-20 justify-evenly items-center""><div class=""square""></div><div class=""square""></div><div class=""square""></div></div>","q","","matchness_test","match","方","q","true","match"
"","null","html-keynbutton-response","95","2.0.0","3082355","6","<div class=""pb-14 text-7xl"">+</div>","null","fixation","","","","","",""
"","484","html-keynbutton-response","96","2.0.0","3082840","6","<div class=""flex flex-row stim-length pb-8 md:pd-20 justify-evenly items-center""><div class=""square""></div><div class=""circle""></div><div class=""square""></div></div>","p","","matchness_test","mismatch","圆","p","true","mismatch"
"","null","html-keynbutton-response","97","2.0.0","3083354","6","<div class=""pb-14 text-7xl"">+</div>","null","fixation","","","","","",""
"","414","html-keynbutton-response","98","2.0.0","3083769","6","<div class=""flex flex-row stim-length pb-8 md:pd-20 justify-evenly items-center""><div class=""circle""></div><div class=""circle""></div><div class=""circle""></div></div>","q","","matchness_test","match","圆","q","true","match"
"","null","html-keynbutton-response","99","2.0.0","3084272","6","<div class=""pb-14 text-7xl"">+</div>","null","fixation","","","","","",""
"","503","html-keynbutton-response","100","2.0.0","3084777","6","<div class=""flex flex-row stim-length pb-8 md:pd-20 justify-evenly items-center""><div class=""circle""></div><div class=""square""></div><div class=""circle""></div></div>","p","","matchness_test","mismatch","方","p","true","mismatch"
"","null","html-keynbutton-response","101","2.0.0","3085288","6","<div class=""pb-14 text-7xl"">+</div>","null","fixation","","","","","",""
"","560","html-keynbutton-response","102","2.0.0","3085849","6","<div class=""flex flex-row stim-length pb-8 md:pd-20 justify-evenly items-center""><div class=""square""></div><div class=""circle""></div><div class=""square""></div></div>","p","","matchness_test","mismatch","圆","p","true","mismatch"
"","null","html-keynbutton-response","103","2.0.0","3086355","6","<div class=""pb-14 text-7xl"">+</div>","null","fixation","","","","","",""
"","453","html-keynbutton-response","104","2.0.0","3086809","6","<div class=""flex flex-row stim-length pb-8 md:pd-20 justify-evenly items-center""><div class=""circle""></div><div class=""circle""></div><div class=""circle""></div></div>","q","","matchness_test","match","圆","q","true","match"
"","null","html-keynbutton-response","105","2.0.0","3087321","6","<div class=""pb-14 text-7xl"">+</div>","null","fixation","","","","","",""
"","383","html-keynbutton-response","106","2.0.0","3087705","6","<div class=""flex flex-row stim-length pb-8 md:pd-20 justify-evenly items-center""><div class=""square""></div><div class=""square""></div><div class=""square""></div></div>","q","","matchness_test","match","方","q","true","match"
"","null","html-keynbutton-response","107","2.0.0","3088221","6","<div class=""pb-14 text-7xl"">+</div>","null","fixation","","","","","",""
"","491","html-keynbutton-response","108","2.0.0","3088713","6","<div class=""flex flex-row stim-length pb-8 md:pd-20 justify-evenly items-center""><div class=""square""></div><div class=""circle""></div><div class=""square""></div></div>","p","","matchness_test","mismatch","圆","p","true","mismatch"
"","null","html-keynbutton-response","109","2.0.0","3089222","6","<div class=""pb-14 text-7xl"">+</div>","null","fixation","","","","","",""
"","514","html-keynbutton-response","110","2.0.0","3089737","6","<div class=""flex flex-row stim-length pb-8 md:pd-20 justify-evenly items-center""><div class=""circle""></div><div class=""circle""></div><div class=""circle""></div></div>","q","","matchness_test","match","圆","q","true","match"
"","null","html-keynbutton-response","111","2.0.0","3090239","6","<div class=""pb-14 text-7xl"">+</div>","null","fixation","","","","","",""
"","521","html-keynbutton-response","112","2.0.0","3090761","6","<div class=""flex flex-row stim-length pb-8 md:pd-20 justify-evenly items-center""><div class=""square""></div><div class=""square""></div><div class=""square""></div></div>","q","","matchness_test","match","方","q","true","match"
"","null","html-keynbutton-response","113","2.0.0","3091272","6","<div class=""pb-14 text-7xl"">+</div>","null","fixation","","","","","",""
"","464","html-keynbutton-response","114","2.0.0","3091737","6","<div class=""flex flex-row stim-length pb-8 md:pd-20 justify-evenly items-center""><div class=""circle""></div><div class=""square""></div><div class=""circle""></div></div>","p","","matchness_test","mismatch","方","p","true","mismatch"
"","null","html-keynbutton-response","115","2.0.0","3092243","6","<div class=""pb-14 text-7xl"">+</div>","null","fixation","","","","","",""
"","549","html-keynbutton-response","116","2.0.0","3092793","6","<div class=""flex flex-row stim-length pb-8 md:pd-20 justify-evenly items-center""><div class=""circle""></div><div class=""square""></div><div class=""circle""></div></div>","p","","matchness_test","mismatch","方","p","true","mismatch"
"","null","html-keynbutton-response","117","2.0.0","3093305","6","<div class=""pb-14 text-7xl"">+</div>","null","fixation","","","","","",""
"","639","html-keynbutton-response","118","2.0.0","3093945","6","<div class=""flex flex-row stim-length pb-8 md:pd-20 justify-evenly items-center""><div class=""square""></div><div class=""square""></div><div class=""square""></div></div>","q","","matchness_test","match","方","q","true","match"
"","null","html-keynbutton-response","119","2.0.0","3094455","6","<div class=""pb-14 text-7xl"">+</div>","null","fixation","","","","","",""
"","530","html-keynbutton-response","120","2.0.0","3094985","6","<div class=""flex flex-row stim-length pb-8 md:pd-20 justify-evenly items-center""><div class=""square""></div><div class=""circle""></div><div class=""square""></div></div>","p","","matchness_test","mismatch","圆","p","true","mismatch"
"","null","html-keynbutton-response","121","2.0.0","3095489","6","<div class=""pb-14 text-7xl"">+</div>","null","fixation","","","","","",""
"","487","html-keynbutton-response","122","2.0.0","3095977","6","<div class=""flex flex-row stim-length pb-8 md:pd-20 justify-evenly items-center""><div class=""circle""></div><div class=""circle""></div><div class=""circle""></div></div>","q","","matchness_test","match","圆","q","true","match"
"","null","html-keynbutton-response","123","2.0.0","3096488","6","<div class=""pb-14 text-7xl"">+</div>","null","fixation","","","","","",""
"","481","html-keynbutton-response","124","2.0.0","3096969","6","<div class=""flex flex-row stim-length pb-8 md:pd-20 justify-evenly items-center""><div class=""square""></div><div class=""circle""></div><div class=""square""></div></div>","p","","matchness_test","mismatch","圆","p","true","mismatch"
"","null","html-keynbutton-response","125","2.0.0","3097472","6","<div class=""pb-14 text-7xl"">+</div>","null","fixation","","","","","",""
"","488","html-keynbutton-response","126","2.0.0","3097961","6","<div class=""flex flex-row stim-length pb-8 md:pd-20 justify-evenly items-center""><div class=""circle""></div><div class=""square""></div><div class=""circle""></div></div>","p","","matchness_test","mismatch","方","p","true","mismatch"
"","null","html-keynbutton-response","127","2.0.0","3098471","6","<div class=""pb-14 text-7xl"">+</div>","null","fixation","","","","","",""
"","449","html-keynbutton-response","128","2.0.0","3098921","6","<div class=""flex flex-row stim-length pb-8 md:pd-20 justify-evenly items-center""><div class=""circle""></div><div class=""circle""></div><div class=""circle""></div></div>","q","","matchness_test","match","圆","q","true","match"
"","null","html-keynbutton-response","129","2.0.0","3099423","6","<div class=""pb-14 text-7xl"">+</div>","null","fixation","","","","","",""
"","409","html-keynbutton-response","130","2.0.0","3099833","6","<div class=""flex flex-row stim-length pb-8 md:pd-20 justify-evenly items-center""><div class=""square""></div><div class=""square""></div><div class=""square""></div></div>","q","","matchness_test","match","方","q","true","match"
"","null","html-keynbutton-response","131","2.0.0","3100339","6","<div class=""pb-14 text-7xl"">+</div>","null","fixation","","","","","",""
"","532","html-keynbutton-response","132","2.0.0","3100871","6","<div class=""flex flex-row stim-length pb-8 md:pd-20 justify-evenly items-center""><div class=""circle""></div><div class=""square""></div><div class=""circle""></div></div>","p","","matchness_test","mismatch","方","p","true","mismatch"
"","null","html-keynbutton-response","133","2.0.0","3101373","6","<div class=""pb-14 text-7xl"">+</div>","null","fixation","","","","","",""
"","459","html-keynbutton-response","134","2.0.0","3101833","6","<div class=""flex flex-row stim-length pb-8 md:pd-20 justify-evenly items-center""><div class=""circle""></div><div class=""circle""></div><div class=""circle""></div></div>","q","","matchness_test","match","圆","q","true","match"
"","null","html-keynbutton-response","135","2.0.0","3102339","6","<div class=""pb-14 text-7xl"">+</div>","null","fixation","","","","","",""
"","405","html-keynbutton-response","136","2.0.0","3102745","6","<div class=""flex flex-row stim-length pb-8 md:pd-20 justify-evenly items-center""><div class=""square""></div><div class=""square""></div><div class=""square""></div></div>","q","","matchness_test","match","方","q","true","match"
"","null","html-keynbutton-response","137","2.0.0","3103255","6","<div class=""pb-14 text-7xl"">+</div>","null","fixation","","","","","",""
"","416","html-keynbutton-response","138","2.0.0","3103673","6","<div class=""flex flex-row stim-length pb-8 md:pd-20 justify-evenly items-center""><div class=""square""></div><div class=""circle""></div><div class=""square""></div></div>","p","","matchness_test","mismatch","圆","p","true","mismatch"
"","null","html-keynbutton-response","139","2.0.0","3104188","6","<div class=""pb-14 text-7xl"">+</div>","null","fixation","","","","","",""
"","476","html-keynbutton-response","140","2.0.0","3104665","6","<div class=""flex flex-row stim-length pb-8 md:pd-20 justify-evenly items-center""><div class=""square""></div><div class=""circle""></div><div class=""square""></div></div>","q","","matchness_test","mismatch","圆","p","false","match"
"","null","html-keynbutton-response","141","2.0.0","3105172","6","<div class=""pb-14 text-7xl"">+</div>","null","fixation","","","","","",""
"","580","html-keynbutton-response","142","2.0.0","3105753","6","<div class=""flex flex-row stim-length pb-8 md:pd-20 justify-evenly items-center""><div class=""square""></div><div class=""square""></div><div class=""square""></div></div>","q","","matchness_test","match","方","q","true","match"
"","null","html-keynbutton-response","143","2.0.0","3106256","6","<div class=""pb-14 text-7xl"">+</div>","null","fixation","","","","","",""
"","455","html-keynbutton-response","144","2.0.0","3106713","6","<div class=""flex flex-row stim-length pb-8 md:pd-20 justify-evenly items-center""><div class=""circle""></div><div class=""circle""></div><div class=""circle""></div></div>","q","","matchness_test","match","圆","q","true","match"
"","null","html-keynbutton-response","145","2.0.0","3107221","6","<div class=""pb-14 text-7xl"">+</div>","null","fixation","","","","","",""
"","611","html-keynbutton-response","146","2.0.0","3107833","6","<div class=""flex flex-row stim-length pb-8 md:pd-20 justify-evenly items-center""><div class=""circle""></div><div class=""square""></div><div class=""circle""></div></div>","p","","matchness_test","mismatch","方","p","true","mismatch"
"","2270","html-keynbutton-response","147","2.0.0","3110105","6","<div class=""jp""><p>您已完成1/10部分</p><p>请休息一会儿</p>
    <p>您的正确率是：98%</p>
    <p>您的平均反应时间是：492毫秒</p></div>"," ","block_feedback","","","","","",""
"","null","html-keynbutton-response","148","2.0.0","3113319","6","<count-down title=""""></count-down>","null","countDown_trial","","","","","",""
"","null","html-keynbutton-response","149","2.0.0","3113823","6","<div class=""pb-14 text-7xl"">+</div>","null","fixation","","","","","",""
"","537","html-keynbutton-response","150","2.0.0","3114361","6","<div class=""flex flex-row stim-length pb-8 md:pd-20 justify-evenly items-center""><div class=""square""></div><div class=""square""></div><div class=""square""></div></div>","q","","matchness_test_1","match","方","q","true","match"
"","null","html-keynbutton-response","151","2.0.0","3114871","6","<div class=""pb-14 text-7xl"">+</div>","null","fixation","","","","","",""
"","481","html-keynbutton-response","152","2.0.0","3115353","6","<div class=""flex flex-row stim-length pb-8 md:pd-20 justify-evenly items-center""><div class=""square""></div><div class=""circle""></div><div class=""square""></div></div>","p","","matchness_test_1","mismatch","圆","p","true","mismatch"
"","null","html-keynbutton-response","153","2.0.0","3115855","6","<div class=""pb-14 text-7xl"">+</div>","null","fixation","","","","","",""
"","504","html-keynbutton-response","154","2.0.0","3116361","6","<div class=""flex flex-row stim-length pb-8 md:pd-20 justify-evenly items-center""><div class=""circle""></div><div class=""circle""></div><div class=""circle""></div></div>","q","","matchness_test_1","match","圆","q","true","match"
"","null","html-keynbutton-response","155","2.0.0","3116871","6","<div class=""pb-14 text-7xl"">+</div>","null","fixation","","","","","",""
"","497","html-keynbutton-response","156","2.0.0","3117369","6","<div class=""flex flex-row stim-length pb-8 md:pd-20 justify-evenly items-center""><div class=""circle""></div><div class=""square""></div><div class=""circle""></div></div>","p","","matchness_test_1","mismatch","方","p","true","mismatch"
"","null","html-keynbutton-response","157","2.0.0","3117872","6","<div class=""pb-14 text-7xl"">+</div>","null","fixation","","","","","",""
"","552","html-keynbutton-response","158","2.0.0","3118425","6","<div class=""flex flex-row stim-length pb-8 md:pd-20 justify-evenly items-center""><div class=""circle""></div><div class=""square""></div><div class=""circle""></div></div>","p","","matchness_test_1","mismatch","方","p","true","mismatch"
"","null","html-keynbutton-response","159","2.0.0","3118938","6","<div class=""pb-14 text-7xl"">+</div>","null","fixation","","","","","",""
"","510","html-keynbutton-response","160","2.0.0","3119449","6","<div class=""flex flex-row stim-length pb-8 md:pd-20 justify-evenly items-center""><div class=""square""></div><div class=""circle""></div><div class=""square""></div></div>","p","","matchness_test_1","mismatch","圆","p","true","mismatch"
"","null","html-keynbutton-response","161","2.0.0","3119955","6","<div class=""pb-14 text-7xl"">+</div>","null","fixation","","","","","",""
"","516","html-keynbutton-response","162","2.0.0","3120472","6","<div class=""flex flex-row stim-length pb-8 md:pd-20 justify-evenly items-center""><div class=""square""></div><div class=""square""></div><div class=""square""></div></div>","q","","matchness_test_1","match","方","q","true","match"
"","null","html-keynbutton-response","163","2.0.0","3120988","6","<div class=""pb-14 text-7xl"">+</div>","null","fixation","","","","","",""
"","364","html-keynbutton-response","164","2.0.0","3121353","6","<div class=""flex flex-row stim-length pb-8 md:pd-20 justify-evenly items-center""><div class=""circle""></div><div class=""circle""></div><div class=""circle""></div></div>","q","","matchness_test_1","match","圆","q","true","match"
"","null","html-keynbutton-response","165","2.0.0","3121856","6","<div class=""pb-14 text-7xl"">+</div>","null","fixation","","","","","",""
"","520","html-keynbutton-response","166","2.0.0","3122377","6","<div class=""flex flex-row stim-length pb-8 md:pd-20 justify-evenly items-center""><div class=""square""></div><div class=""circle""></div><div class=""square""></div></div>","p","","matchness_test_1","mismatch","圆","p","true","mismatch"
"","null","html-keynbutton-response","167","2.0.0","3122888","6","<div class=""pb-14 text-7xl"">+</div>","null","fixation","","","","","",""
"","511","html-keynbutton-response","168","2.0.0","3123401","6","<div class=""flex flex-row stim-length pb-8 md:pd-20 justify-evenly items-center""><div class=""circle""></div><div class=""circle""></div><div class=""circle""></div></div>","q","","matchness_test_1","match","圆","q","true","match"
"","null","html-keynbutton-response","169","2.0.0","3123906","6","<div class=""pb-14 text-7xl"">+</div>","null","fixation","","","","","",""
"","389","html-keynbutton-response","170","2.0.0","3124297","6","<div class=""flex flex-row stim-length pb-8 md:pd-20 justify-evenly items-center""><div class=""square""></div><div class=""square""></div><div class=""square""></div></div>","q","","matchness_test_1","match","方","q","true","match"
"","null","html-keynbutton-response","171","2.0.0","3124804","6","<div class=""pb-14 text-7xl"">+</div>","null","fixation","","","","","",""
"","532","html-keynbutton-response","172","2.0.0","3125325","6","<div class=""flex flex-row stim-length pb-8 md:pd-20 justify-evenly items-center""><div class=""circle""></div><div class=""square""></div><div class=""circle""></div></div>","p","","matchness_test_1","mismatch","方","p","true","mismatch"
"","null","html-keynbutton-response","173","2.0.0","3125828","6","<div class=""pb-14 text-7xl"">+</div>","null","fixation","","","","","",""
"","424","html-keynbutton-response","174","2.0.0","3126253","6","<div class=""flex flex-row stim-length pb-8 md:pd-20 justify-evenly items-center""><div class=""circle""></div><div class=""square""></div><div class=""circle""></div></div>","p","","matchness_test_1","mismatch","方","p","true","mismatch"
"","null","html-keynbutton-response","175","2.0.0","3126761","6","<div class=""pb-14 text-7xl"">+</div>","null","fixation","","","","","",""
"","500","html-keynbutton-response","176","2.0.0","3127261","6","<div class=""flex flex-row stim-length pb-8 md:pd-20 justify-evenly items-center""><div class=""square""></div><div class=""square""></div><div class=""square""></div></div>","q","","matchness_test_1","match","方","q","true","match"
"","null","html-keynbutton-response","177","2.0.0","3127776","6","<div class=""pb-14 text-7xl"">+</div>","null","fixation","","","","","",""
"","524","html-keynbutton-response","178","2.0.0","3128301","6","<div class=""flex flex-row stim-length pb-8 md:pd-20 justify-evenly items-center""><div class=""square""></div><div class=""circle""></div><div class=""square""></div></div>","p","","matchness_test_1","mismatch","圆","p","true","mismatch"
"","null","html-keynbutton-response","179","2.0.0","3128810","6","<div class=""pb-14 text-7xl"">+</div>","null","fixation","","","","","",""
"","643","html-keynbutton-response","180","2.0.0","3129454","6","<div class=""flex flex-row stim-length pb-8 md:pd-20 justify-evenly items-center""><div class=""circle""></div><div class=""circle""></div><div class=""circle""></div></div>","q","","matchness_test_1","match","圆","q","true","match"
"","null","html-keynbutton-response","181","2.0.0","3129961","6","<div class=""pb-14 text-7xl"">+</div>","null","fixation","","","","","",""
"","499","html-keynbutton-response","182","2.0.0","3130460","6","<div class=""flex flex-row stim-length pb-8 md:pd-20 justify-evenly items-center""><div class=""circle""></div><div class=""circle""></div><div class=""circle""></div></div>","q","","matchness_test_1","match","圆","q","true","match"
"","null","html-keynbutton-response","183","2.0.0","3130961","6","<div class=""pb-14 text-7xl"">+</div>","null","fixation","","","","","",""
"","554","html-keynbutton-response","184","2.0.0","3131516","6","<div class=""flex flex-row stim-length pb-8 md:pd-20 justify-evenly items-center""><div class=""square""></div><div class=""circle""></div><div class=""square""></div></div>","p","","matchness_test_1","mismatch","圆","p","true","mismatch"
"","null","html-keynbutton-response","185","2.0.0","3132027","6","<div class=""pb-14 text-7xl"">+</div>","null","fixation","","","","","",""
"","546","html-keynbutton-response","186","2.0.0","3132573","6","<div class=""flex flex-row stim-length pb-8 md:pd-20 justify-evenly items-center""><div class=""square""></div><div class=""square""></div><div class=""square""></div></div>","q","","matchness_test_1","match","方","q","true","match"
"","null","html-keynbutton-response","187","2.0.0","3133077","6","<div class=""pb-14 text-7xl"">+</div>","null","fixation","","","","","",""
"","519","html-keynbutton-response","188","2.0.0","3133597","6","<div class=""flex flex-row stim-length pb-8 md:pd-20 justify-evenly items-center""><div class=""circle""></div><div class=""square""></div><div class=""circle""></div></div>","p","","matchness_test_1","mismatch","方","p","true","mismatch"
"","null","html-keynbutton-response","189","2.0.0","3134110","6","<div class=""pb-14 text-7xl"">+</div>","null","fixation","","","","","",""
"","558","html-keynbutton-response","190","2.0.0","3134668","6","<div class=""flex flex-row stim-length pb-8 md:pd-20 justify-evenly items-center""><div class=""square""></div><div class=""circle""></div><div class=""square""></div></div>","p","","matchness_test_1","mismatch","圆","p","true","mismatch"
"","null","html-keynbutton-response","191","2.0.0","3135177","6","<div class=""pb-14 text-7xl"">+</div>","null","fixation","","","","","",""
"","515","html-keynbutton-response","192","2.0.0","3135692","6","<div class=""flex flex-row stim-length pb-8 md:pd-20 justify-evenly items-center""><div class=""square""></div><div class=""square""></div><div class=""square""></div></div>","q","","matchness_test_1","match","方","q","true","match"
"","null","html-keynbutton-response","193","2.0.0","3136195","6","<div class=""pb-14 text-7xl"">+</div>","null","fixation","","","","","",""
"","874","html-keynbutton-response","194","2.0.0","3137069","6","<div class=""flex flex-row stim-length pb-8 md:pd-20 justify-evenly items-center""><div class=""circle""></div><div class=""circle""></div><div class=""circle""></div></div>","q","","matchness_test_1","match","圆","q","true","match"
"","null","html-keynbutton-response","195","2.0.0","3137577","6","<div class=""pb-14 text-7xl"">+</div>","null","fixation","","","","","",""
"","483","html-keynbutton-response","196","2.0.0","3138061","6","<div class=""flex flex-row stim-length pb-8 md:pd-20 justify-evenly items-center""><div class=""circle""></div><div class=""square""></div><div class=""circle""></div></div>","p","","matchness_test_1","mismatch","方","p","true","mismatch"
"","null","html-keynbutton-response","197","2.0.0","3138577","6","<div class=""pb-14 text-7xl"">+</div>","null","fixation","","","","","",""
"","539","html-keynbutton-response","198","2.0.0","3139117","6","<div class=""flex flex-row stim-length pb-8 md:pd-20 justify-evenly items-center""><div class=""circle""></div><div class=""circle""></div><div class=""circle""></div></div>","q","","matchness_test_1","match","圆","q","true","match"
"","null","html-keynbutton-response","199","2.0.0","3139629","6","<div class=""pb-14 text-7xl"">+</div>","null","fixation","","","","","",""
"","415","html-keynbutton-response","200","2.0.0","3140045","6","<div class=""flex flex-row stim-length pb-8 md:pd-20 justify-evenly items-center""><div class=""square""></div><div class=""square""></div><div class=""square""></div></div>","q","","matchness_test_1","match","方","q","true","match"
"","null","html-keynbutton-response","201","2.0.0","3140560","6","<div class=""pb-14 text-7xl"">+</div>","null","fixation","","","","","",""
"","524","html-keynbutton-response","202","2.0.0","3141085","6","<div class=""flex flex-row stim-length pb-8 md:pd-20 justify-evenly items-center""><div class=""square""></div><div class=""circle""></div><div class=""square""></div></div>","p","","matchness_test_1","mismatch","圆","p","true","mismatch"
"","null","html-keynbutton-response","203","2.0.0","3141593","6","<div class=""pb-14 text-7xl"">+</div>","null","fixation","","","","","",""
"","597","html-keynbutton-response","204","2.0.0","3142190","6","<div class=""flex flex-row stim-length pb-8 md:pd-20 justify-evenly items-center""><div class=""circle""></div><div class=""square""></div><div class=""circle""></div></div>","p","","matchness_test_1","mismatch","方","p","true","mismatch"
"","null","html-keynbutton-response","205","2.0.0","3142694","6","<div class=""pb-14 text-7xl"">+</div>","null","fixation","","","","","",""
"","471","html-keynbutton-response","206","2.0.0","3143166","6","<div class=""flex flex-row stim-length pb-8 md:pd-20 justify-evenly items-center""><div class=""circle""></div><div class=""circle""></div><div class=""circle""></div></div>","q","","matchness_test_1","match","圆","q","true","match"
"","null","html-keynbutton-response","207","2.0.0","3143677","6","<div class=""pb-14 text-7xl"">+</div>","null","fixation","","","","","",""
"","431","html-keynbutton-response","208","2.0.0","3144109","6","<div class=""flex flex-row stim-length pb-8 md:pd-20 justify-evenly items-center""><div class=""square""></div><div class=""square""></div><div class=""square""></div></div>","q","","matchness_test_1","match","方","q","true","match"
"","null","html-keynbutton-response","209","2.0.0","3144611","6","<div class=""pb-14 text-7xl"">+</div>","null","fixation","","","","","",""
"","570","html-keynbutton-response","210","2.0.0","3145181","6","<div class=""flex flex-row stim-length pb-8 md:pd-20 justify-evenly items-center""><div class=""circle""></div><div class=""square""></div><div class=""circle""></div></div>","p","","matchness_test_1","mismatch","方","p","true","mismatch"
"","null","html-keynbutton-response","211","2.0.0","3145693","6","<div class=""pb-14 text-7xl"">+</div>","null","fixation","","","","","",""
"","591","html-keynbutton-response","212","2.0.0","3146285","6","<div class=""flex flex-row stim-length pb-8 md:pd-20 justify-evenly items-center""><div class=""square""></div><div class=""circle""></div><div class=""square""></div></div>","p","","matchness_test_1","mismatch","圆","p","true","mismatch"
"","null","html-keynbutton-response","213","2.0.0","3146793","6","<div class=""pb-14 text-7xl"">+</div>","null","fixation","","","","","",""
"","756","html-keynbutton-response","214","2.0.0","3147549","6","<div class=""flex flex-row stim-length pb-8 md:pd-20 justify-evenly items-center""><div class=""square""></div><div class=""square""></div><div class=""square""></div></div>","q","","matchness_test_1","match","方","q","true","match"
"","null","html-keynbutton-response","215","2.0.0","3148060","6","<div class=""pb-14 text-7xl"">+</div>","null","fixation","","","","","",""
"","705","html-keynbutton-response","216","2.0.0","3148765","6","<div class=""flex flex-row stim-length pb-8 md:pd-20 justify-evenly items-center""><div class=""circle""></div><div class=""square""></div><div class=""circle""></div></div>","p","","matchness_test_1","mismatch","方","p","true","mismatch"
"","null","html-keynbutton-response","217","2.0.0","3149276","6","<div class=""pb-14 text-7xl"">+</div>","null","fixation","","","","","",""
"","480","html-keynbutton-response","218","2.0.0","3149757","6","<div class=""flex flex-row stim-length pb-8 md:pd-20 justify-evenly items-center""><div class=""circle""></div><div class=""circle""></div><div class=""circle""></div></div>","q","","matchness_test_1","match","圆","q","true","match"
"","null","html-keynbutton-response","219","2.0.0","3150261","6","<div class=""pb-14 text-7xl"">+</div>","null","fixation","","","","","",""
"","487","html-keynbutton-response","220","2.0.0","3150749","6","<div class=""flex flex-row stim-length pb-8 md:pd-20 justify-evenly items-center""><div class=""square""></div><div class=""circle""></div><div class=""square""></div></div>","q","","matchness_test_1","mismatch","圆","p","false","match"
"","null","html-keynbutton-response","221","2.0.0","3151260","6","<div class=""pb-14 text-7xl"">+</div>","null","fixation","","","","","",""
"","736","html-keynbutton-response","222","2.0.0","3151997","6","<div class=""flex flex-row stim-length pb-8 md:pd-20 justify-evenly items-center""><div class=""square""></div><div class=""square""></div><div class=""square""></div></div>","q","","matchness_test_1","match","方","q","true","match"
"","null","html-keynbutton-response","223","2.0.0","3152510","6","<div class=""pb-14 text-7xl"">+</div>","null","fixation","","","","","",""
"","494","html-keynbutton-response","224","2.0.0","3153005","6","<div class=""flex flex-row stim-length pb-8 md:pd-20 justify-evenly items-center""><div class=""square""></div><div class=""circle""></div><div class=""square""></div></div>","p","","matchness_test_1","mismatch","圆","p","true","mismatch"
"","null","html-keynbutton-response","225","2.0.0","3153512","6","<div class=""pb-14 text-7xl"">+</div>","null","fixation","","","","","",""
"","548","html-keynbutton-response","226","2.0.0","3154061","6","<div class=""flex flex-row stim-length pb-8 md:pd-20 justify-evenly items-center""><div class=""circle""></div><div class=""circle""></div><div class=""circle""></div></div>","q","","matchness_test_1","match","圆","q","true","match"
"","null","html-keynbutton-response","227","2.0.0","3154576","6","<div class=""pb-14 text-7xl"">+</div>","null","fixation","","","","","",""
"","540","html-keynbutton-response","228","2.0.0","3155117","6","<div class=""flex flex-row stim-length pb-8 md:pd-20 justify-evenly items-center""><div class=""circle""></div><div class=""square""></div><div class=""circle""></div></div>","p","","matchness_test_1","mismatch","方","p","true","mismatch"
"","3534","html-keynbutton-response","229","2.0.0","3158653","6","<div class=""jp""><p>您已完成2/10部分</p><p>请休息一会儿</p>
    <p>您的正确率是：98%</p>
    <p>您的平均反应时间是：536毫秒</p></div>"," ","block_feedback","","","","","",""
"","null","html-keynbutton-response","230","2.0.0","3161857","6","<count-down title=""""></count-down>","null","countDown_trial","","","","","",""
"","null","html-keynbutton-response","231","2.0.0","3162361","6","<div class=""pb-14 text-7xl"">+</div>","null","fixation","","","","","",""
"","499","html-keynbutton-response","232","2.0.0","3162861","6","<div class=""flex flex-row stim-length pb-8 md:pd-20 justify-evenly items-center""><div class=""square""></div><div class=""square""></div><div class=""square""></div></div>","q","","matchness_test_2","match","方","q","true","match"
"","null","html-keynbutton-response","233","2.0.0","3163377","6","<div class=""pb-14 text-7xl"">+</div>","null","fixation","","","","","",""
"","491","html-keynbutton-response","234","2.0.0","3163869","6","<div class=""flex flex-row stim-length pb-8 md:pd-20 justify-evenly items-center""><div class=""circle""></div><div class=""square""></div><div class=""circle""></div></div>","p","","matchness_test_2","mismatch","方","p","true","mismatch"
"","null","html-keynbutton-response","235","2.0.0","3164376","6","<div class=""pb-14 text-7xl"">+</div>","null","fixation","","","","","",""
"","517","html-keynbutton-response","236","2.0.0","3164893","6","<div class=""flex flex-row stim-length pb-8 md:pd-20 justify-evenly items-center""><div class=""circle""></div><div class=""circle""></div><div class=""circle""></div></div>","q","","matchness_test_2","match","圆","q","true","match"
"","null","html-keynbutton-response","237","2.0.0","3165409","6","<div class=""pb-14 text-7xl"">+</div>","null","fixation","","","","","",""
"","491","html-keynbutton-response","238","2.0.0","3165900","6","<div class=""flex flex-row stim-length pb-8 md:pd-20 justify-evenly items-center""><div class=""square""></div><div class=""circle""></div><div class=""square""></div></div>","p","","matchness_test_2","mismatch","圆","p","true","mismatch"
"","null","html-keynbutton-response","239","2.0.0","3166411","6","<div class=""pb-14 text-7xl"">+</div>","null","fixation","","","","","",""
"","465","html-keynbutton-response","240","2.0.0","3166877","6","<div class=""flex flex-row stim-length pb-8 md:pd-20 justify-evenly items-center""><div class=""circle""></div><div class=""circle""></div><div class=""circle""></div></div>","q","","matchness_test_2","match","圆","q","true","match"
"","null","html-keynbutton-response","241","2.0.0","3167393","6","<div class=""pb-14 text-7xl"">+</div>","null","fixation","","","","","",""
"","554","html-keynbutton-response","242","2.0.0","3167948","6","<div class=""flex flex-row stim-length pb-8 md:pd-20 justify-evenly items-center""><div class=""square""></div><div class=""square""></div><div class=""square""></div></div>","p","","matchness_test_2","match","方","q","false","mismatch"
"","null","html-keynbutton-response","243","2.0.0","3168460","6","<div class=""pb-14 text-7xl"">+</div>","null","fixation","","","","","",""
"","560","html-keynbutton-response","244","2.0.0","3169021","6","<div class=""flex flex-row stim-length pb-8 md:pd-20 justify-evenly items-center""><div class=""square""></div><div class=""circle""></div><div class=""square""></div></div>","p","","matchness_test_2","mismatch","圆","p","true","mismatch"
"","null","html-keynbutton-response","245","2.0.0","3169527","6","<div class=""pb-14 text-7xl"">+</div>","null","fixation","","","","","",""
"","405","html-keynbutton-response","246","2.0.0","3169933","6","<div class=""flex flex-row stim-length pb-8 md:pd-20 justify-evenly items-center""><div class=""circle""></div><div class=""square""></div><div class=""circle""></div></div>","p","","matchness_test_2","mismatch","方","p","true","mismatch"
"","null","html-keynbutton-response","247","2.0.0","3170444","6","<div class=""pb-14 text-7xl"">+</div>","null","fixation","","","","","",""
"","416","html-keynbutton-response","248","2.0.0","3170860","6","<div class=""flex flex-row stim-length pb-8 md:pd-20 justify-evenly items-center""><div class=""square""></div><div class=""circle""></div><div class=""square""></div></div>","p","","matchness_test_2","mismatch","圆","p","true","mismatch"
"","null","html-keynbutton-response","249","2.0.0","3171361","6","<div class=""pb-14 text-7xl"">+</div>","null","fixation","","","","","",""
"","363","html-keynbutton-response","250","2.0.0","3171725","6","<div class=""flex flex-row stim-length pb-8 md:pd-20 justify-evenly items-center""><div class=""circle""></div><div class=""circle""></div><div class=""circle""></div></div>","q","","matchness_test_2","match","圆","q","true","match"
"","null","html-keynbutton-response","251","2.0.0","3172228","6","<div class=""pb-14 text-7xl"">+</div>","null","fixation","","","","","",""
"","360","html-keynbutton-response","252","2.0.0","3172589","6","<div class=""flex flex-row stim-length pb-8 md:pd-20 justify-evenly items-center""><div class=""square""></div><div class=""square""></div><div class=""square""></div></div>","q","","matchness_test_2","match","方","q","true","match"
"","null","html-keynbutton-response","253","2.0.0","3173096","6","<div class=""pb-14 text-7xl"">+</div>","null","fixation","","","","","",""
"","405","html-keynbutton-response","254","2.0.0","3173501","6","<div class=""flex flex-row stim-length pb-8 md:pd-20 justify-evenly items-center""><div class=""circle""></div><div class=""square""></div><div class=""circle""></div></div>","p","","matchness_test_2","mismatch","方","p","true","mismatch"
"","null","html-keynbutton-response","255","2.0.0","3174010","6","<div class=""pb-14 text-7xl"">+</div>","null","fixation","","","","","",""
"","371","html-keynbutton-response","256","2.0.0","3174381","6","<div class=""flex flex-row stim-length pb-8 md:pd-20 justify-evenly items-center""><div class=""circle""></div><div class=""square""></div><div class=""circle""></div></div>","p","","matchness_test_2","mismatch","方","p","true","mismatch"
"","null","html-keynbutton-response","257","2.0.0","3174893","6","<div class=""pb-14 text-7xl"">+</div>","null","fixation","","","","","",""
"","447","html-keynbutton-response","258","2.0.0","3175341","6","<div class=""flex flex-row stim-length pb-8 md:pd-20 justify-evenly items-center""><div class=""square""></div><div class=""circle""></div><div class=""square""></div></div>","p","","matchness_test_2","mismatch","圆","p","true","mismatch"
"","null","html-keynbutton-response","259","2.0.0","3175844","6","<div class=""pb-14 text-7xl"">+</div>","null","fixation","","","","","",""
"","377","html-keynbutton-response","260","2.0.0","3176221","6","<div class=""flex flex-row stim-length pb-8 md:pd-20 justify-evenly items-center""><div class=""circle""></div><div class=""circle""></div><div class=""circle""></div></div>","q","","matchness_test_2","match","圆","q","true","match"
"","null","html-keynbutton-response","261","2.0.0","3176728","6","<div class=""pb-14 text-7xl"">+</div>","null","fixation","","","","","",""
"","372","html-keynbutton-response","262","2.0.0","3177101","6","<div class=""flex flex-row stim-length pb-8 md:pd-20 justify-evenly items-center""><div class=""square""></div><div class=""square""></div><div class=""square""></div></div>","q","","matchness_test_2","match","方","q","true","match"
"","null","html-keynbutton-response","263","2.0.0","3177610","6","<div class=""pb-14 text-7xl"">+</div>","null","fixation","","","","","",""
"","466","html-keynbutton-response","264","2.0.0","3178076","6","<div class=""flex flex-row stim-length pb-8 md:pd-20 justify-evenly items-center""><div class=""circle""></div><div class=""circle""></div><div class=""circle""></div></div>","q","","matchness_test_2","match","圆","q","true","match"
"","null","html-keynbutton-response","265","2.0.0","3178578","6","<div class=""pb-14 text-7xl"">+</div>","null","fixation","","","","","",""
"","427","html-keynbutton-response","266","2.0.0","3179005","6","<div class=""flex flex-row stim-length pb-8 md:pd-20 justify-evenly items-center""><div class=""square""></div><div class=""square""></div><div class=""square""></div></div>","q","","matchness_test_2","match","方","q","true","match"
"","null","html-keynbutton-response","267","2.0.0","3179512","6","<div class=""pb-14 text-7xl"">+</div>","null","fixation","","","","","",""
"","485","html-keynbutton-response","268","2.0.0","3179998","6","<div class=""flex flex-row stim-length pb-8 md:pd-20 justify-evenly items-center""><div class=""circle""></div><div class=""square""></div><div class=""circle""></div></div>","p","","matchness_test_2","mismatch","方","p","true","mismatch"
"","null","html-keynbutton-response","269","2.0.0","3180510","6","<div class=""pb-14 text-7xl"">+</div>","null","fixation","","","","","",""
"","445","html-keynbutton-response","270","2.0.0","3180956","6","<div class=""flex flex-row stim-length pb-8 md:pd-20 justify-evenly items-center""><div class=""square""></div><div class=""circle""></div><div class=""square""></div></div>","p","","matchness_test_2","mismatch","圆","p","true","mismatch"
"","null","html-keynbutton-response","271","2.0.0","3181462","6","<div class=""pb-14 text-7xl"">+</div>","null","fixation","","","","","",""
"","471","html-keynbutton-response","272","2.0.0","3181933","6","<div class=""flex flex-row stim-length pb-8 md:pd-20 justify-evenly items-center""><div class=""square""></div><div class=""circle""></div><div class=""square""></div></div>","p","","matchness_test_2","mismatch","圆","p","true","mismatch"
"","null","html-keynbutton-response","273","2.0.0","3182444","6","<div class=""pb-14 text-7xl"">+</div>","null","fixation","","","","","",""
"","369","html-keynbutton-response","274","2.0.0","3182813","6","<div class=""flex flex-row stim-length pb-8 md:pd-20 justify-evenly items-center""><div class=""circle""></div><div class=""circle""></div><div class=""circle""></div></div>","p","","matchness_test_2","match","圆","q","false","mismatch"
"","null","html-keynbutton-response","275","2.0.0","3183327","6","<div class=""pb-14 text-7xl"">+</div>","null","fixation","","","","","",""
"","445","html-keynbutton-response","276","2.0.0","3183772","6","<div class=""flex flex-row stim-length pb-8 md:pd-20 justify-evenly items-center""><div class=""square""></div><div class=""square""></div><div class=""square""></div></div>","q","","matchness_test_2","match","方","q","true","match"
"","null","html-keynbutton-response","277","2.0.0","3184279","6","<div class=""pb-14 text-7xl"">+</div>","null","fixation","","","","","",""
"","534","html-keynbutton-response","278","2.0.0","3184813","6","<div class=""flex flex-row stim-length pb-8 md:pd-20 justify-evenly items-center""><div class=""circle""></div><div class=""square""></div><div class=""circle""></div></div>","p","","matchness_test_2","mismatch","方","p","true","mismatch"
"","null","html-keynbutton-response","279","2.0.0","3185338","6","<div class=""pb-14 text-7xl"">+</div>","null","fixation","","","","","",""
"","494","html-keynbutton-response","280","2.0.0","3185833","6","<div class=""flex flex-row stim-length pb-8 md:pd-20 justify-evenly items-center""><div class=""square""></div><div class=""square""></div><div class=""square""></div></div>","q","","matchness_test_2","match","方","q","true","match"
"","null","html-keynbutton-response","281","2.0.0","3186339","6","<div class=""pb-14 text-7xl"">+</div>","null","fixation","","","","","",""
"","405","html-keynbutton-response","282","2.0.0","3186745","6","<div class=""flex flex-row stim-length pb-8 md:pd-20 justify-evenly items-center""><div class=""circle""></div><div class=""square""></div><div class=""circle""></div></div>","q","","matchness_test_2","mismatch","方","p","false","match"
"","null","html-keynbutton-response","283","2.0.0","3187256","6","<div class=""pb-14 text-7xl"">+</div>","null","fixation","","","","","",""
"","609","html-keynbutton-response","284","2.0.0","3187865","6","<div class=""flex flex-row stim-length pb-8 md:pd-20 justify-evenly items-center""><div class=""square""></div><div class=""circle""></div><div class=""square""></div></div>","p","","matchness_test_2","mismatch","圆","p","true","mismatch"
"","null","html-keynbutton-response","285","2.0.0","3188373","6","<div class=""pb-14 text-7xl"">+</div>","null","fixation","","","","","",""
"","563","html-keynbutton-response","286","2.0.0","3188937","6","<div class=""flex flex-row stim-length pb-8 md:pd-20 justify-evenly items-center""><div class=""circle""></div><div class=""circle""></div><div class=""circle""></div></div>","q","","matchness_test_2","match","圆","q","true","match"
"","null","html-keynbutton-response","287","2.0.0","3189439","6","<div class=""pb-14 text-7xl"">+</div>","null","fixation","","","","","",""
"","569","html-keynbutton-response","288","2.0.0","3190009","6","<div class=""flex flex-row stim-length pb-8 md:pd-20 justify-evenly items-center""><div class=""square""></div><div class=""circle""></div><div class=""square""></div></div>","p","","matchness_test_2","mismatch","圆","p","true","mismatch"
"","null","html-keynbutton-response","289","2.0.0","3190522","6","<div class=""pb-14 text-7xl"">+</div>","null","fixation","","","","","",""
"","589","html-keynbutton-response","290","2.0.0","3191112","6","<div class=""flex flex-row stim-length pb-8 md:pd-20 justify-evenly items-center""><div class=""square""></div><div class=""square""></div><div class=""square""></div></div>","q","","matchness_test_2","match","方","q","true","match"
"","null","html-keynbutton-response","291","2.0.0","3191622","6","<div class=""pb-14 text-7xl"">+</div>","null","fixation","","","","","",""
"","1298","html-keynbutton-response","292","2.0.0","3192921","6","<div class=""flex flex-row stim-length pb-8 md:pd-20 justify-evenly items-center""><div class=""circle""></div><div class=""circle""></div><div class=""circle""></div></div>","q","","matchness_test_2","match","圆","q","true","match"
"","null","html-keynbutton-response","293","2.0.0","3193423","6","<div class=""pb-14 text-7xl"">+</div>","null","fixation","","","","","",""
"","570","html-keynbutton-response","294","2.0.0","3193993","6","<div class=""flex flex-row stim-length pb-8 md:pd-20 justify-evenly items-center""><div class=""circle""></div><div class=""square""></div><div class=""circle""></div></div>","p","","matchness_test_2","mismatch","方","p","true","mismatch"
"","null","html-keynbutton-response","295","2.0.0","3194506","6","<div class=""pb-14 text-7xl"">+</div>","null","fixation","","","","","",""
"","926","html-keynbutton-response","296","2.0.0","3195433","6","<div class=""flex flex-row stim-length pb-8 md:pd-20 justify-evenly items-center""><div class=""circle""></div><div class=""circle""></div><div class=""circle""></div></div>","q","","matchness_test_2","match","圆","q","true","match"
"","null","html-keynbutton-response","297","2.0.0","3195939","6","<div class=""pb-14 text-7xl"">+</div>","null","fixation","","","","","",""
"","821","html-keynbutton-response","298","2.0.0","3196761","6","<div class=""flex flex-row stim-length pb-8 md:pd-20 justify-evenly items-center""><div class=""square""></div><div class=""circle""></div><div class=""square""></div></div>","p","","matchness_test_2","mismatch","圆","p","true","mismatch"
"","null","html-keynbutton-response","299","2.0.0","3197272","6","<div class=""pb-14 text-7xl"">+</div>","null","fixation","","","","","",""
"","545","html-keynbutton-response","300","2.0.0","3197817","6","<div class=""flex flex-row stim-length pb-8 md:pd-20 justify-evenly items-center""><div class=""circle""></div><div class=""square""></div><div class=""circle""></div></div>","p","","matchness_test_2","mismatch","方","p","true","mismatch"
"","null","html-keynbutton-response","301","2.0.0","3198325","6","<div class=""pb-14 text-7xl"">+</div>","null","fixation","","","","","",""
"","548","html-keynbutton-response","302","2.0.0","3198873","6","<div class=""flex flex-row stim-length pb-8 md:pd-20 justify-evenly items-center""><div class=""square""></div><div class=""square""></div><div class=""square""></div></div>","q","","matchness_test_2","match","方","q","true","match"
"","null","html-keynbutton-response","303","2.0.0","3199388","6","<div class=""pb-14 text-7xl"">+</div>","null","fixation","","","","","",""
"","988","html-keynbutton-response","304","2.0.0","3200377","6","<div class=""flex flex-row stim-length pb-8 md:pd-20 justify-evenly items-center""><div class=""circle""></div><div class=""square""></div><div class=""circle""></div></div>","p","","matchness_test_2","mismatch","方","p","true","mismatch"
"","null","html-keynbutton-response","305","2.0.0","3200888","6","<div class=""pb-14 text-7xl"">+</div>","null","fixation","","","","","",""
"","609","html-keynbutton-response","306","2.0.0","3201497","6","<div class=""flex flex-row stim-length pb-8 md:pd-20 justify-evenly items-center""><div class=""square""></div><div class=""circle""></div><div class=""square""></div></div>","p","","matchness_test_2","mismatch","圆","p","true","mismatch"
"","null","html-keynbutton-response","307","2.0.0","3202005","6","<div class=""pb-14 text-7xl"">+</div>","null","fixation","","","","","",""
"","756","html-keynbutton-response","308","2.0.0","3202761","6","<div class=""flex flex-row stim-length pb-8 md:pd-20 justify-evenly items-center""><div class=""circle""></div><div class=""circle""></div><div class=""circle""></div></div>","q","","matchness_test_2","match","圆","q","true","match"
"","null","html-keynbutton-response","309","2.0.0","3203271","6","<div class=""pb-14 text-7xl"">+</div>","null","fixation","","","","","",""
"","1089","html-keynbutton-response","310","2.0.0","3204361","6","<div class=""flex flex-row stim-length pb-8 md:pd-20 justify-evenly items-center""><div class=""square""></div><div class=""square""></div><div class=""square""></div></div>","q","","matchness_test_2","match","方","q","true","match"
"","26398","html-keynbutton-response","311","2.0.0","3230761","6","<div class=""jp""><p>您已完成3/10部分</p><p>请休息一会儿</p>
    <p>您的正确率是：93%</p>
    <p>您的平均反应时间是：553毫秒</p></div>"," ","block_feedback","","","","","",""
"","null","html-keynbutton-response","312","2.0.0","3233969","6","<count-down title=""""></count-down>","null","countDown_trial","","","","","",""
"","null","html-keynbutton-response","313","2.0.0","3234473","6","<div class=""pb-14 text-7xl"">+</div>","null","fixation","","","","","",""
"","879","html-keynbutton-response","314","2.0.0","3235353","6","<div class=""flex flex-row stim-length pb-8 md:pd-20 justify-evenly items-center""><div class=""square""></div><div class=""circle""></div><div class=""square""></div></div>","p","","matchness_test_3","mismatch","圆","p","true","mismatch"
"","null","html-keynbutton-response","315","2.0.0","3235857","6","<div class=""pb-14 text-7xl"">+</div>","null","fixation","","","","","",""
"","439","html-keynbutton-response","316","2.0.0","3236297","6","<div class=""flex flex-row stim-length pb-8 md:pd-20 justify-evenly items-center""><div class=""circle""></div><div class=""square""></div><div class=""circle""></div></div>","p","","matchness_test_3","mismatch","方","p","true","mismatch"
"","null","html-keynbutton-response","317","2.0.0","3236805","6","<div class=""pb-14 text-7xl"">+</div>","null","fixation","","","","","",""
"","403","html-keynbutton-response","318","2.0.0","3237209","6","<div class=""flex flex-row stim-length pb-8 md:pd-20 justify-evenly items-center""><div class=""circle""></div><div class=""circle""></div><div class=""circle""></div></div>","q","","matchness_test_3","match","圆","q","true","match"
"","null","html-keynbutton-response","319","2.0.0","3237722","6","<div class=""pb-14 text-7xl"">+</div>","null","fixation","","","","","",""
"","606","html-keynbutton-response","320","2.0.0","3238329","6","<div class=""flex flex-row stim-length pb-8 md:pd-20 justify-evenly items-center""><div class=""square""></div><div class=""square""></div><div class=""square""></div></div>","q","","matchness_test_3","match","方","q","true","match"
"","null","html-keynbutton-response","321","2.0.0","3238838","6","<div class=""pb-14 text-7xl"">+</div>","null","fixation","","","","","",""
"","529","html-keynbutton-response","322","2.0.0","3239369","6","<div class=""flex flex-row stim-length pb-8 md:pd-20 justify-evenly items-center""><div class=""circle""></div><div class=""square""></div><div class=""circle""></div></div>","p","","matchness_test_3","mismatch","方","p","true","mismatch"
"","null","html-keynbutton-response","323","2.0.0","3239874","6","<div class=""pb-14 text-7xl"">+</div>","null","fixation","","","","","",""
"","567","html-keynbutton-response","324","2.0.0","3240441","6","<div class=""flex flex-row stim-length pb-8 md:pd-20 justify-evenly items-center""><div class=""square""></div><div class=""circle""></div><div class=""square""></div></div>","p","","matchness_test_3","mismatch","圆","p","true","mismatch"
"","null","html-keynbutton-response","325","2.0.0","3240955","6","<div class=""pb-14 text-7xl"">+</div>","null","fixation","","","","","",""
"","541","html-keynbutton-response","326","2.0.0","3241497","6","<div class=""flex flex-row stim-length pb-8 md:pd-20 justify-evenly items-center""><div class=""square""></div><div class=""square""></div><div class=""square""></div></div>","q","","matchness_test_3","match","方","q","true","match"
"","null","html-keynbutton-response","327","2.0.0","3242005","6","<div class=""pb-14 text-7xl"">+</div>","null","fixation","","","","","",""
"","468","html-keynbutton-response","328","2.0.0","3242473","6","<div class=""flex flex-row stim-length pb-8 md:pd-20 justify-evenly items-center""><div class=""circle""></div><div class=""circle""></div><div class=""circle""></div></div>","q","","matchness_test_3","match","圆","q","true","match"
"","null","html-keynbutton-response","329","2.0.0","3242989","6","<div class=""pb-14 text-7xl"">+</div>","null","fixation","","","","","",""
"","779","html-keynbutton-response","330","2.0.0","3243769","6","<div class=""flex flex-row stim-length pb-8 md:pd-20 justify-evenly items-center""><div class=""square""></div><div class=""circle""></div><div class=""square""></div></div>","p","","matchness_test_3","mismatch","圆","p","true","mismatch"
"","null","html-keynbutton-response","331","2.0.0","3244274","6","<div class=""pb-14 text-7xl"">+</div>","null","fixation","","","","","",""
"","583","html-keynbutton-response","332","2.0.0","3244857","6","<div class=""flex flex-row stim-length pb-8 md:pd-20 justify-evenly items-center""><div class=""circle""></div><div class=""circle""></div><div class=""circle""></div></div>","q","","matchness_test_3","match","圆","q","true","match"
"","null","html-keynbutton-response","333","2.0.0","3245372","6","<div class=""pb-14 text-7xl"">+</div>","null","fixation","","","","","",""
"","796","html-keynbutton-response","334","2.0.0","3246169","6","<div class=""flex flex-row stim-length pb-8 md:pd-20 justify-evenly items-center""><div class=""square""></div><div class=""square""></div><div class=""square""></div></div>","q","","matchness_test_3","match","方","q","true","match"
"","null","html-keynbutton-response","335","2.0.0","3246673","6","<div class=""pb-14 text-7xl"">+</div>","null","fixation","","","","","",""
"","615","html-keynbutton-response","336","2.0.0","3247288","6","<div class=""flex flex-row stim-length pb-8 md:pd-20 justify-evenly items-center""><div class=""circle""></div><div class=""square""></div><div class=""circle""></div></div>","p","","matchness_test_3","mismatch","方","p","true","mismatch"
"","null","html-keynbutton-response","337","2.0.0","3247790","6","<div class=""pb-14 text-7xl"">+</div>","null","fixation","","","","","",""
"","586","html-keynbutton-response","338","2.0.0","3248377","6","<div class=""flex flex-row stim-length pb-8 md:pd-20 justify-evenly items-center""><div class=""circle""></div><div class=""square""></div><div class=""circle""></div></div>","p","","matchness_test_3","mismatch","方","p","true","mismatch"
"","null","html-keynbutton-response","339","2.0.0","3248888","6","<div class=""pb-14 text-7xl"">+</div>","null","fixation","","","","","",""
"","655","html-keynbutton-response","340","2.0.0","3249544","6","<div class=""flex flex-row stim-length pb-8 md:pd-20 justify-evenly items-center""><div class=""circle""></div><div class=""circle""></div><div class=""circle""></div></div>","q","","matchness_test_3","match","圆","q","true","match"
"","null","html-keynbutton-response","341","2.0.0","3250056","6","<div class=""pb-14 text-7xl"">+</div>","null","fixation","","","","","",""
"","512","html-keynbutton-response","342","2.0.0","3250569","6","<div class=""flex flex-row stim-length pb-8 md:pd-20 justify-evenly items-center""><div class=""square""></div><div class=""circle""></div><div class=""square""></div></div>","p","","matchness_test_3","mismatch","圆","p","true","mismatch"
"","null","html-keynbutton-response","343","2.0.0","3251073","6","<div class=""pb-14 text-7xl"">+</div>","null","fixation","","","","","",""
"","534","html-keynbutton-response","344","2.0.0","3251608","6","<div class=""flex flex-row stim-length pb-8 md:pd-20 justify-evenly items-center""><div class=""square""></div><div class=""square""></div><div class=""square""></div></div>","q","","matchness_test_3","match","方","q","true","match"
"","null","html-keynbutton-response","345","2.0.0","3252122","6","<div class=""pb-14 text-7xl"">+</div>","null","fixation","","","","","",""
"","446","html-keynbutton-response","346","2.0.0","3252569","6","<div class=""flex flex-row stim-length pb-8 md:pd-20 justify-evenly items-center""><div class=""square""></div><div class=""square""></div><div class=""square""></div></div>","q","","matchness_test_3","match","方","q","true","match"
"","null","html-keynbutton-response","347","2.0.0","3253074","6","<div class=""pb-14 text-7xl"">+</div>","null","fixation","","","","","",""
"","343","html-keynbutton-response","348","2.0.0","3253418","6","<div class=""flex flex-row stim-length pb-8 md:pd-20 justify-evenly items-center""><div class=""circle""></div><div class=""circle""></div><div class=""circle""></div></div>","q","","matchness_test_3","match","圆","q","true","match"
"","null","html-keynbutton-response","349","2.0.0","3253925","6","<div class=""pb-14 text-7xl"">+</div>","null","fixation","","","","","",""
"","515","html-keynbutton-response","350","2.0.0","3254440","6","<div class=""flex flex-row stim-length pb-8 md:pd-20 justify-evenly items-center""><div class=""square""></div><div class=""circle""></div><div class=""square""></div></div>","p","","matchness_test_3","mismatch","圆","p","true","mismatch"
"","null","html-keynbutton-response","351","2.0.0","3254955","6","<div class=""pb-14 text-7xl"">+</div>","null","fixation","","","","","",""
"","525","html-keynbutton-response","352","2.0.0","3255481","6","<div class=""flex flex-row stim-length pb-8 md:pd-20 justify-evenly items-center""><div class=""circle""></div><div class=""square""></div><div class=""circle""></div></div>","p","","matchness_test_3","mismatch","方","p","true","mismatch"
"","null","html-keynbutton-response","353","2.0.0","3255988","6","<div class=""pb-14 text-7xl"">+</div>","null","fixation","","","","","",""
"","980","html-keynbutton-response","354","2.0.0","3256969","6","<div class=""flex flex-row stim-length pb-8 md:pd-20 justify-evenly items-center""><div class=""circle""></div><div class=""square""></div><div class=""circle""></div></div>","p","","matchness_test_3","mismatch","方","p","true","mismatch"
"","null","html-keynbutton-response","355","2.0.0","3257473","6","<div class=""pb-14 text-7xl"">+</div>","null","fixation","","","","","",""
"","695","html-keynbutton-response","356","2.0.0","3258169","6","<div class=""flex flex-row stim-length pb-8 md:pd-20 justify-evenly items-center""><div class=""square""></div><div class=""square""></div><div class=""square""></div></div>","q","","matchness_test_3","match","方","q","true","match"
"","null","html-keynbutton-response","357","2.0.0","3258673","6","<div class=""pb-14 text-7xl"">+</div>","null","fixation","","","","","",""
"","1015","html-keynbutton-response","358","2.0.0","3259688","6","<div class=""flex flex-row stim-length pb-8 md:pd-20 justify-evenly items-center""><div class=""square""></div><div class=""circle""></div><div class=""square""></div></div>","q","","matchness_test_3","mismatch","圆","p","false","match"
"","null","html-keynbutton-response","359","2.0.0","3260190","6","<div class=""pb-14 text-7xl"">+</div>","null","fixation","","","","","",""
"","1162","html-keynbutton-response","360","2.0.0","3261353","6","<div class=""flex flex-row stim-length pb-8 md:pd-20 justify-evenly items-center""><div class=""circle""></div><div class=""circle""></div><div class=""circle""></div></div>","q","","matchness_test_3","match","圆","q","true","match"
"","null","html-keynbutton-response","361","2.0.0","3261856","6","<div class=""pb-14 text-7xl"">+</div>","null","fixation","","","","","",""
"","504","html-keynbutton-response","362","2.0.0","3262361","6","<div class=""flex flex-row stim-length pb-8 md:pd-20 justify-evenly items-center""><div class=""circle""></div><div class=""circle""></div><div class=""circle""></div></div>","q","","matchness_test_3","match","圆","q","true","match"
"","null","html-keynbutton-response","363","2.0.0","3262872","6","<div class=""pb-14 text-7xl"">+</div>","null","fixation","","","","","",""
"","432","html-keynbutton-response","364","2.0.0","3263305","6","<div class=""flex flex-row stim-length pb-8 md:pd-20 justify-evenly items-center""><div class=""square""></div><div class=""circle""></div><div class=""square""></div></div>","p","","matchness_test_3","mismatch","圆","p","true","mismatch"
"","null","html-keynbutton-response","365","2.0.0","3263806","6","<div class=""pb-14 text-7xl"">+</div>","null","fixation","","","","","",""
"","522","html-keynbutton-response","366","2.0.0","3264329","6","<div class=""flex flex-row stim-length pb-8 md:pd-20 justify-evenly items-center""><div class=""circle""></div><div class=""square""></div><div class=""circle""></div></div>","p","","matchness_test_3","mismatch","方","p","true","mismatch"
"","null","html-keynbutton-response","367","2.0.0","3264838","6","<div class=""pb-14 text-7xl"">+</div>","null","fixation","","","","","",""
"","530","html-keynbutton-response","368","2.0.0","3265369","6","<div class=""flex flex-row stim-length pb-8 md:pd-20 justify-evenly items-center""><div class=""square""></div><div class=""square""></div><div class=""square""></div></div>","q","","matchness_test_3","match","方","q","true","match"
"","null","html-keynbutton-response","369","2.0.0","3265873","6","<div class=""pb-14 text-7xl"">+</div>","null","fixation","","","","","",""
"","471","html-keynbutton-response","370","2.0.0","3266345","6","<div class=""flex flex-row stim-length pb-8 md:pd-20 justify-evenly items-center""><div class=""square""></div><div class=""square""></div><div class=""square""></div></div>","q","","matchness_test_3","match","方","q","true","match"
"","null","html-keynbutton-response","371","2.0.0","3266855","6","<div class=""pb-14 text-7xl"">+</div>","null","fixation","","","","","",""
"","513","html-keynbutton-response","372","2.0.0","3267369","6","<div class=""flex flex-row stim-length pb-8 md:pd-20 justify-evenly items-center""><div class=""circle""></div><div class=""square""></div><div class=""circle""></div></div>","p","","matchness_test_3","mismatch","方","p","true","mismatch"
"","null","html-keynbutton-response","373","2.0.0","3267873","6","<div class=""pb-14 text-7xl"">+</div>","null","fixation","","","","","",""
"","535","html-keynbutton-response","374","2.0.0","3268409","6","<div class=""flex flex-row stim-length pb-8 md:pd-20 justify-evenly items-center""><div class=""square""></div><div class=""circle""></div><div class=""square""></div></div>","p","","matchness_test_3","mismatch","圆","p","true","mismatch"
"","null","html-keynbutton-response","375","2.0.0","3268922","6","<div class=""pb-14 text-7xl"">+</div>","null","fixation","","","","","",""
"","702","html-keynbutton-response","376","2.0.0","3269625","6","<div class=""flex flex-row stim-length pb-8 md:pd-20 justify-evenly items-center""><div class=""circle""></div><div class=""circle""></div><div class=""circle""></div></div>","q","","matchness_test_3","match","圆","q","true","match"
"","null","html-keynbutton-response","377","2.0.0","3270139","6","<div class=""pb-14 text-7xl"">+</div>","null","fixation","","","","","",""
"","989","html-keynbutton-response","378","2.0.0","3271129","6","<div class=""flex flex-row stim-length pb-8 md:pd-20 justify-evenly items-center""><div class=""square""></div><div class=""circle""></div><div class=""square""></div></div>","p","","matchness_test_3","mismatch","圆","p","true","mismatch"
"","null","html-keynbutton-response","379","2.0.0","3271639","6","<div class=""pb-14 text-7xl"">+</div>","null","fixation","","","","","",""
"","705","html-keynbutton-response","380","2.0.0","3272345","6","<div class=""flex flex-row stim-length pb-8 md:pd-20 justify-evenly items-center""><div class=""circle""></div><div class=""square""></div><div class=""circle""></div></div>","p","","matchness_test_3","mismatch","方","p","true","mismatch"
"","null","html-keynbutton-response","381","2.0.0","3272856","6","<div class=""pb-14 text-7xl"">+</div>","null","fixation","","","","","",""
"","689","html-keynbutton-response","382","2.0.0","3273545","6","<div class=""flex flex-row stim-length pb-8 md:pd-20 justify-evenly items-center""><div class=""circle""></div><div class=""circle""></div><div class=""circle""></div></div>","q","","matchness_test_3","match","圆","q","true","match"
"","null","html-keynbutton-response","383","2.0.0","3274055","6","<div class=""pb-14 text-7xl"">+</div>","null","fixation","","","","","",""
"","561","html-keynbutton-response","384","2.0.0","3274617","6","<div class=""flex flex-row stim-length pb-8 md:pd-20 justify-evenly items-center""><div class=""square""></div><div class=""square""></div><div class=""square""></div></div>","q","","matchness_test_3","match","方","q","true","match"
"","null","html-keynbutton-response","385","2.0.0","3275123","6","<div class=""pb-14 text-7xl"">+</div>","null","fixation","","","","","",""
"","501","html-keynbutton-response","386","2.0.0","3275625","6","<div class=""flex flex-row stim-length pb-8 md:pd-20 justify-evenly items-center""><div class=""square""></div><div class=""square""></div><div class=""square""></div></div>","q","","matchness_test_3","match","方","q","true","match"
"","null","html-keynbutton-response","387","2.0.0","3276139","6","<div class=""pb-14 text-7xl"">+</div>","null","fixation","","","","","",""
"","526","html-keynbutton-response","388","2.0.0","3276665","6","<div class=""flex flex-row stim-length pb-8 md:pd-20 justify-evenly items-center""><div class=""square""></div><div class=""circle""></div><div class=""square""></div></div>","p","","matchness_test_3","mismatch","圆","p","true","mismatch"
"","null","html-keynbutton-response","389","2.0.0","3277173","6","<div class=""pb-14 text-7xl"">+</div>","null","fixation","","","","","",""
"","563","html-keynbutton-response","390","2.0.0","3277737","6","<div class=""flex flex-row stim-length pb-8 md:pd-20 justify-evenly items-center""><div class=""circle""></div><div class=""circle""></div><div class=""circle""></div></div>","q","","matchness_test_3","match","圆","q","true","match"
"","null","html-keynbutton-response","391","2.0.0","3278239","6","<div class=""pb-14 text-7xl"">+</div>","null","fixation","","","","","",""
"","1369","html-keynbutton-response","392","2.0.0","3279609","6","<div class=""flex flex-row stim-length pb-8 md:pd-20 justify-evenly items-center""><div class=""circle""></div><div class=""square""></div><div class=""circle""></div></div>","p","","matchness_test_3","mismatch","方","p","true","mismatch"
"","341471","html-keynbutton-response","393","2.0.0","3621070","6","<div class=""jp""><p>您已完成4/10部分</p><p>请休息一会儿</p>
    <p>您的正确率是：98%</p>
    <p>您的平均反应时间是：632毫秒</p></div>"," ","block_feedback","","","","","",""
"","null","html-keynbutton-response","394","2.0.0","3624275","6","<count-down title=""""></count-down>","null","countDown_trial","","","","","",""
"","null","html-keynbutton-response","395","2.0.0","3624778","6","<div class=""pb-14 text-7xl"">+</div>","null","fixation","","","","","",""
"","482","html-keynbutton-response","396","2.0.0","3625261","6","<div class=""flex flex-row stim-length pb-8 md:pd-20 justify-evenly items-center""><div class=""square""></div><div class=""square""></div><div class=""square""></div></div>","q","","matchness_test_4","match","方","q","true","match"
"","null","html-keynbutton-response","397","2.0.0","3625777","6","<div class=""pb-14 text-7xl"">+</div>","null","fixation","","","","","",""
"","587","html-keynbutton-response","398","2.0.0","3626366","6","<div class=""flex flex-row stim-length pb-8 md:pd-20 justify-evenly items-center""><div class=""circle""></div><div class=""square""></div><div class=""circle""></div></div>","p","","matchness_test_4","mismatch","方","p","true","mismatch"
"","null","html-keynbutton-response","399","2.0.0","3626877","6","<div class=""pb-14 text-7xl"">+</div>","null","fixation","","","","","",""
"","624","html-keynbutton-response","400","2.0.0","3627501","6","<div class=""flex flex-row stim-length pb-8 md:pd-20 justify-evenly items-center""><div class=""circle""></div><div class=""circle""></div><div class=""circle""></div></div>","q","","matchness_test_4","match","圆","q","true","match"
"","null","html-keynbutton-response","401","2.0.0","3628009","6","<div class=""pb-14 text-7xl"">+</div>","null","fixation","","","","","",""
"","435","html-keynbutton-response","402","2.0.0","3628445","6","<div class=""flex flex-row stim-length pb-8 md:pd-20 justify-evenly items-center""><div class=""square""></div><div class=""circle""></div><div class=""square""></div></div>","p","","matchness_test_4","mismatch","圆","p","true","mismatch"
"","null","html-keynbutton-response","403","2.0.0","3628960","6","<div class=""pb-14 text-7xl"">+</div>","null","fixation","","","","","",""
"","540","html-keynbutton-response","404","2.0.0","3629501","6","<div class=""flex flex-row stim-length pb-8 md:pd-20 justify-evenly items-center""><div class=""circle""></div><div class=""square""></div><div class=""circle""></div></div>","p","","matchness_test_4","mismatch","方","p","true","mismatch"
"","null","html-keynbutton-response","405","2.0.0","3630010","6","<div class=""pb-14 text-7xl"">+</div>","null","fixation","","","","","",""
"","419","html-keynbutton-response","406","2.0.0","3630429","6","<div class=""flex flex-row stim-length pb-8 md:pd-20 justify-evenly items-center""><div class=""square""></div><div class=""square""></div><div class=""square""></div></div>","q","","matchness_test_4","match","方","q","true","match"
"","null","html-keynbutton-response","407","2.0.0","3630945","6","<div class=""pb-14 text-7xl"">+</div>","null","fixation","","","","","",""
"","476","html-keynbutton-response","408","2.0.0","3631421","6","<div class=""flex flex-row stim-length pb-8 md:pd-20 justify-evenly items-center""><div class=""square""></div><div class=""circle""></div><div class=""square""></div></div>","p","","matchness_test_4","mismatch","圆","p","true","mismatch"
"","null","html-keynbutton-response","409","2.0.0","3631928","6","<div class=""pb-14 text-7xl"">+</div>","null","fixation","","","","","",""
"","437","html-keynbutton-response","410","2.0.0","3632365","6","<div class=""flex flex-row stim-length pb-8 md:pd-20 justify-evenly items-center""><div class=""circle""></div><div class=""circle""></div><div class=""circle""></div></div>","q","","matchness_test_4","match","圆","q","true","match"
"","null","html-keynbutton-response","411","2.0.0","3632877","6","<div class=""pb-14 text-7xl"">+</div>","null","fixation","","","","","",""
"","463","html-keynbutton-response","412","2.0.0","3633341","6","<div class=""flex flex-row stim-length pb-8 md:pd-20 justify-evenly items-center""><div class=""circle""></div><div class=""square""></div><div class=""circle""></div></div>","p","","matchness_test_4","mismatch","方","p","true","mismatch"
"","null","html-keynbutton-response","413","2.0.0","3633846","6","<div class=""pb-14 text-7xl"">+</div>","null","fixation","","","","","",""
"","807","html-keynbutton-response","414","2.0.0","3634653","6","<div class=""flex flex-row stim-length pb-8 md:pd-20 justify-evenly items-center""><div class=""circle""></div><div class=""circle""></div><div class=""circle""></div></div>","q","","matchness_test_4","match","圆","q","true","match"
"","null","html-keynbutton-response","415","2.0.0","3635162","6","<div class=""pb-14 text-7xl"">+</div>","null","fixation","","","","","",""
"","755","html-keynbutton-response","416","2.0.0","3635918","6","<div class=""flex flex-row stim-length pb-8 md:pd-20 justify-evenly items-center""><div class=""square""></div><div class=""square""></div><div class=""square""></div></div>","q","","matchness_test_4","match","方","q","true","match"
"","null","html-keynbutton-response","417","2.0.0","3636428","6","<div class=""pb-14 text-7xl"">+</div>","null","fixation","","","","","",""
"","449","html-keynbutton-response","418","2.0.0","3636878","6","<div class=""flex flex-row stim-length pb-8 md:pd-20 justify-evenly items-center""><div class=""square""></div><div class=""circle""></div><div class=""square""></div></div>","p","","matchness_test_4","mismatch","圆","p","true","mismatch"
"","null","html-keynbutton-response","419","2.0.0","3637394","6","<div class=""pb-14 text-7xl"">+</div>","null","fixation","","","","","",""
"","570","html-keynbutton-response","420","2.0.0","3637964","6","<div class=""flex flex-row stim-length pb-8 md:pd-20 justify-evenly items-center""><div class=""square""></div><div class=""square""></div><div class=""square""></div></div>","q","","matchness_test_4","match","方","q","true","match"
"","null","html-keynbutton-response","421","2.0.0","3638478","6","<div class=""pb-14 text-7xl"">+</div>","null","fixation","","","","","",""
"","607","html-keynbutton-response","422","2.0.0","3639085","6","<div class=""flex flex-row stim-length pb-8 md:pd-20 justify-evenly items-center""><div class=""circle""></div><div class=""square""></div><div class=""circle""></div></div>","p","","matchness_test_4","mismatch","方","p","true","mismatch"
"","null","html-keynbutton-response","423","2.0.0","3639594","6","<div class=""pb-14 text-7xl"">+</div>","null","fixation","","","","","",""
"","434","html-keynbutton-response","424","2.0.0","3640029","6","<div class=""flex flex-row stim-length pb-8 md:pd-20 justify-evenly items-center""><div class=""circle""></div><div class=""circle""></div><div class=""circle""></div></div>","q","","matchness_test_4","match","圆","q","true","match"
"","null","html-keynbutton-response","425","2.0.0","3640544","6","<div class=""pb-14 text-7xl"">+</div>","null","fixation","","","","","",""
"","493","html-keynbutton-response","426","2.0.0","3641038","6","<div class=""flex flex-row stim-length pb-8 md:pd-20 justify-evenly items-center""><div class=""square""></div><div class=""circle""></div><div class=""square""></div></div>","p","","matchness_test_4","mismatch","圆","p","true","mismatch"
"","null","html-keynbutton-response","427","2.0.0","3641545","6","<div class=""pb-14 text-7xl"">+</div>","null","fixation","","","","","",""
"","451","html-keynbutton-response","428","2.0.0","3641998","6","<div class=""flex flex-row stim-length pb-8 md:pd-20 justify-evenly items-center""><div class=""circle""></div><div class=""square""></div><div class=""circle""></div></div>","p","","matchness_test_4","mismatch","方","p","true","mismatch"
"","null","html-keynbutton-response","429","2.0.0","3642511","6","<div class=""pb-14 text-7xl"">+</div>","null","fixation","","","","","",""
"","462","html-keynbutton-response","430","2.0.0","3642974","6","<div class=""flex flex-row stim-length pb-8 md:pd-20 justify-evenly items-center""><div class=""square""></div><div class=""circle""></div><div class=""square""></div></div>","q","","matchness_test_4","mismatch","圆","p","false","match"
"","null","html-keynbutton-response","431","2.0.0","3643480","6","<div class=""pb-14 text-7xl"">+</div>","null","fixation","","","","","",""
"","470","html-keynbutton-response","432","2.0.0","3643950","6","<div class=""flex flex-row stim-length pb-8 md:pd-20 justify-evenly items-center""><div class=""square""></div><div class=""square""></div><div class=""square""></div></div>","q","","matchness_test_4","match","方","q","true","match"
"","null","html-keynbutton-response","433","2.0.0","3644461","6","<div class=""pb-14 text-7xl"">+</div>","null","fixation","","","","","",""
"","1296","html-keynbutton-response","434","2.0.0","3645758","6","<div class=""flex flex-row stim-length pb-8 md:pd-20 justify-evenly items-center""><div class=""circle""></div><div class=""circle""></div><div class=""circle""></div></div>","q","","matchness_test_4","match","圆","q","true","match"
"","null","html-keynbutton-response","435","2.0.0","3646265","6","<div class=""pb-14 text-7xl"">+</div>","null","fixation","","","","","",""
"","515","html-keynbutton-response","436","2.0.0","3646781","6","<div class=""flex flex-row stim-length pb-8 md:pd-20 justify-evenly items-center""><div class=""square""></div><div class=""square""></div><div class=""square""></div></div>","q","","matchness_test_4","match","方","q","true","match"
"","null","html-keynbutton-response","437","2.0.0","3647294","6","<div class=""pb-14 text-7xl"">+</div>","null","fixation","","","","","",""
"","752","html-keynbutton-response","438","2.0.0","3648046","6","<div class=""flex flex-row stim-length pb-8 md:pd-20 justify-evenly items-center""><div class=""square""></div><div class=""circle""></div><div class=""square""></div></div>","p","","matchness_test_4","mismatch","圆","p","true","mismatch"
"","null","html-keynbutton-response","439","2.0.0","3648561","6","<div class=""pb-14 text-7xl"">+</div>","null","fixation","","","","","",""
"","476","html-keynbutton-response","440","2.0.0","3649038","6","<div class=""flex flex-row stim-length pb-8 md:pd-20 justify-evenly items-center""><div class=""circle""></div><div class=""circle""></div><div class=""circle""></div></div>","q","","matchness_test_4","match","圆","q","true","match"
"","null","html-keynbutton-response","441","2.0.0","3649545","6","<div class=""pb-14 text-7xl"">+</div>","null","fixation","","","","","",""
"","518","html-keynbutton-response","442","2.0.0","3650064","6","<div class=""flex flex-row stim-length pb-8 md:pd-20 justify-evenly items-center""><div class=""circle""></div><div class=""square""></div><div class=""circle""></div></div>","p","","matchness_test_4","mismatch","方","p","true","mismatch"
"","null","html-keynbutton-response","443","2.0.0","3650578","6","<div class=""pb-14 text-7xl"">+</div>","null","fixation","","","","","",""
"","538","html-keynbutton-response","444","2.0.0","3651117","6","<div class=""flex flex-row stim-length pb-8 md:pd-20 justify-evenly items-center""><div class=""square""></div><div class=""circle""></div><div class=""square""></div></div>","p","","matchness_test_4","mismatch","圆","p","true","mismatch"
"","null","html-keynbutton-response","445","2.0.0","3651628","6","<div class=""pb-14 text-7xl"">+</div>","null","fixation","","","","","",""
"","464","html-keynbutton-response","446","2.0.0","3652093","6","<div class=""flex flex-row stim-length pb-8 md:pd-20 justify-evenly items-center""><div class=""circle""></div><div class=""square""></div><div class=""circle""></div></div>","p","","matchness_test_4","mismatch","方","p","true","mismatch"
"","null","html-keynbutton-response","447","2.0.0","3652596","6","<div class=""pb-14 text-7xl"">+</div>","null","fixation","","","","","",""
"","536","html-keynbutton-response","448","2.0.0","3653133","6","<div class=""flex flex-row stim-length pb-8 md:pd-20 justify-evenly items-center""><div class=""circle""></div><div class=""circle""></div><div class=""circle""></div></div>","q","","matchness_test_4","match","圆","q","true","match"
"","null","html-keynbutton-response","449","2.0.0","3653644","6","<div class=""pb-14 text-7xl"">+</div>","null","fixation","","","","","",""
"","720","html-keynbutton-response","450","2.0.0","3654366","6","<div class=""flex flex-row stim-length pb-8 md:pd-20 justify-evenly items-center""><div class=""square""></div><div class=""square""></div><div class=""square""></div></div>","q","","matchness_test_4","match","方","q","true","match"
"","null","html-keynbutton-response","451","2.0.0","3654878","6","<div class=""pb-14 text-7xl"">+</div>","null","fixation","","","","","",""
"","751","html-keynbutton-response","452","2.0.0","3655629","6","<div class=""flex flex-row stim-length pb-8 md:pd-20 justify-evenly items-center""><div class=""circle""></div><div class=""circle""></div><div class=""circle""></div></div>","q","","matchness_test_4","match","圆","q","true","match"
"","null","html-keynbutton-response","453","2.0.0","3656144","6","<div class=""pb-14 text-7xl"">+</div>","null","fixation","","","","","",""
"","541","html-keynbutton-response","454","2.0.0","3656686","6","<div class=""flex flex-row stim-length pb-8 md:pd-20 justify-evenly items-center""><div class=""circle""></div><div class=""square""></div><div class=""circle""></div></div>","p","","matchness_test_4","mismatch","方","p","true","mismatch"
"","null","html-keynbutton-response","455","2.0.0","3657194","6","<div class=""pb-14 text-7xl"">+</div>","null","fixation","","","","","",""
"","659","html-keynbutton-response","456","2.0.0","3657853","6","<div class=""flex flex-row stim-length pb-8 md:pd-20 justify-evenly items-center""><div class=""square""></div><div class=""circle""></div><div class=""square""></div></div>","p","","matchness_test_4","mismatch","圆","p","true","mismatch"
"","null","html-keynbutton-response","457","2.0.0","3658360","6","<div class=""pb-14 text-7xl"">+</div>","null","fixation","","","","","",""
"","852","html-keynbutton-response","458","2.0.0","3659213","6","<div class=""flex flex-row stim-length pb-8 md:pd-20 justify-evenly items-center""><div class=""square""></div><div class=""square""></div><div class=""square""></div></div>","q","","matchness_test_4","match","方","q","true","match"
