"success","rt","trial_type","trial_index","plugin_version","time_elapsed","subj_id","stimulus","response","trail_tag","task","ismatch","target","correct_key","correct","response_key"
"true","281647","fullscreen","0","2.0.0","282658","3","","","","","","","","",""
"","18783","html-keynbutton-response","1","2.0.0","301446","3","
        <div class=""jp px-2 xxs:px-5 mx-auto"">
        <p class=""text-center text-red-600 text-[1.2em] pb-5"">欢迎您参加知觉
          <strong>判断实验。</strong>
        </p>
        <p>接下来的任务中您将看到一排图形。</p>
        <p>(圆形●或方形■)</p><p>您的任务是<strong>忽略两侧的图形，专注于中间的图形</strong>。</p>
        <p>如果中间的图形是方，请按“q”；</p>
        <p>如果是圆，请按“p”。</p><p>请尽量又快又准地做出反应。</p>
      <p>请按空格键开始练习。</p>
      </div>"," ","","","","","","",""
"","null","html-keynbutton-response","2","2.0.0","304659","3","<count-down title=""""></count-down>","null","countDown_trial","","","","","",""
"","null","html-keynbutton-response","3","2.0.0","305172","3","<div class=""pb-14 text-7xl"">+</div>","null","fixation","","","","","",""
"","null","html-keynbutton-response","4","2.0.0","307183","3","<div class=""flex flex-row stim-length pb-8 md:pd-20 justify-evenly items-center""><div class=""circle""></div><div class=""circle""></div><div class=""circle""></div></div>","null","","shape_practice","match","圆","p","false","null"
"","null","html-keynbutton-response","5","2.0.0","307692","3","<span class='text-yellow-500 text-4xl md:text-5xl lg:text-6xl'>太慢!</span>","null","trial_feedback","","","","","",""
"","null","html-keynbutton-response","6","2.0.0","308211","3","<div class=""pb-14 text-7xl"">+</div>","null","fixation","","","","","",""
"","589","html-keynbutton-response","7","2.0.0","308801","3","<div class=""flex flex-row stim-length pb-8 md:pd-20 justify-evenly items-center""><div class=""square""></div><div class=""circle""></div><div class=""square""></div></div>","q","","shape_practice","mismatch","圆","p","false","方"
"","null","html-keynbutton-response","8","2.0.0","309307","3","<span class='text-red-500 text-4xl md:text-5xl lg:text-6xl'>错误!</span>","null","trial_feedback","","","","","",""
"","null","html-keynbutton-response","9","2.0.0","309824","3","<div class=""pb-14 text-7xl"">+</div>","null","fixation","","","","","",""
"","524","html-keynbutton-response","10","2.0.0","310350","3","<div class=""flex flex-row stim-length pb-8 md:pd-20 justify-evenly items-center""><div class=""square""></div><div class=""square""></div><div class=""square""></div></div>","q","","shape_practice","match","方","q","true","方"
"","null","html-keynbutton-response","11","2.0.0","310856","3","<span class='text-green-400 text-4xl md:text-5xl lg:text-6xl'>正确!</span>","null","trial_feedback","","","","","",""
"","null","html-keynbutton-response","12","2.0.0","311369","3","<div class=""pb-14 text-7xl"">+</div>","null","fixation","","","","","",""
"","419","html-keynbutton-response","13","2.0.0","311789","3","<div class=""flex flex-row stim-length pb-8 md:pd-20 justify-evenly items-center""><div class=""circle""></div><div class=""square""></div><div class=""circle""></div></div>","q","","shape_practice","mismatch","方","q","true","方"
"","null","html-keynbutton-response","14","2.0.0","312291","3","<span class='text-green-400 text-4xl md:text-5xl lg:text-6xl'>正确!</span>","null","trial_feedback","","","","","",""
"","null","html-keynbutton-response","15","2.0.0","312794","3","<div class=""pb-14 text-7xl"">+</div>","null","fixation","","","","","",""
"","268","html-keynbutton-response","16","2.0.0","313063","3","<div class=""flex flex-row stim-length pb-8 md:pd-20 justify-evenly items-center""><div class=""square""></div><div class=""circle""></div><div class=""square""></div></div>","p","","shape_practice","mismatch","圆","p","true","圆"
"","null","html-keynbutton-response","17","2.0.0","313566","3","<span class='text-green-400 text-4xl md:text-5xl lg:text-6xl'>正确!</span>","null","trial_feedback","","","","","",""
"","null","html-keynbutton-response","18","2.0.0","314073","3","<div class=""pb-14 text-7xl"">+</div>","null","fixation","","","","","",""
"","412","html-keynbutton-response","19","2.0.0","314486","3","<div class=""flex flex-row stim-length pb-8 md:pd-20 justify-evenly items-center""><div class=""circle""></div><div class=""circle""></div><div class=""circle""></div></div>","p","","shape_practice","match","圆","p","true","圆"
"","null","html-keynbutton-response","20","2.0.0","314993","3","<span class='text-green-400 text-4xl md:text-5xl lg:text-6xl'>正确!</span>","null","trial_feedback","","","","","",""
"","null","html-keynbutton-response","21","2.0.0","315507","3","<div class=""pb-14 text-7xl"">+</div>","null","fixation","","","","","",""
"","659","html-keynbutton-response","22","2.0.0","316167","3","<div class=""flex flex-row stim-length pb-8 md:pd-20 justify-evenly items-center""><div class=""circle""></div><div class=""square""></div><div class=""circle""></div></div>","q","","shape_practice","mismatch","方","q","true","方"
"","null","html-keynbutton-response","23","2.0.0","316674","3","<span class='text-green-400 text-4xl md:text-5xl lg:text-6xl'>正确!</span>","null","trial_feedback","","","","","",""
"","null","html-keynbutton-response","24","2.0.0","317175","3","<div class=""pb-14 text-7xl"">+</div>","null","fixation","","","","","",""
"","407","html-keynbutton-response","25","2.0.0","317583","3","<div class=""flex flex-row stim-length pb-8 md:pd-20 justify-evenly items-center""><div class=""square""></div><div class=""square""></div><div class=""square""></div></div>","q","","shape_practice","match","方","q","true","方"
"","null","html-keynbutton-response","26","2.0.0","318093","3","<span class='text-green-400 text-4xl md:text-5xl lg:text-6xl'>正确!</span>","null","trial_feedback","","","","","",""
"","null","html-keynbutton-response","27","2.0.0","318602","3","<div class=""pb-14 text-7xl"">+</div>","null","fixation","","","","","",""
"","421","html-keynbutton-response","28","2.0.0","319023","3","<div class=""flex flex-row stim-length pb-8 md:pd-20 justify-evenly items-center""><div class=""circle""></div><div class=""square""></div><div class=""circle""></div></div>","q","","shape_practice","mismatch","方","q","true","方"
"","null","html-keynbutton-response","29","2.0.0","319541","3","<span class='text-green-400 text-4xl md:text-5xl lg:text-6xl'>正确!</span>","null","trial_feedback","","","","","",""
"","null","html-keynbutton-response","30","2.0.0","320043","3","<div class=""pb-14 text-7xl"">+</div>","null","fixation","","","","","",""
"","330","html-keynbutton-response","31","2.0.0","320374","3","<div class=""flex flex-row stim-length pb-8 md:pd-20 justify-evenly items-center""><div class=""circle""></div><div class=""circle""></div><div class=""circle""></div></div>","p","","shape_practice","match","圆","p","true","圆"
"","null","html-keynbutton-response","32","2.0.0","320888","3","<span class='text-green-400 text-4xl md:text-5xl lg:text-6xl'>正确!</span>","null","trial_feedback","","","","","",""
"","null","html-keynbutton-response","33","2.0.0","321402","3","<div class=""pb-14 text-7xl"">+</div>","null","fixation","","","","","",""
"","385","html-keynbutton-response","34","2.0.0","321788","3","<div class=""flex flex-row stim-length pb-8 md:pd-20 justify-evenly items-center""><div class=""square""></div><div class=""square""></div><div class=""square""></div></div>","q","","shape_practice","match","方","q","true","方"
"","null","html-keynbutton-response","35","2.0.0","322290","3","<span class='text-green-400 text-4xl md:text-5xl lg:text-6xl'>正确!</span>","null","trial_feedback","","","","","",""
"","null","html-keynbutton-response","36","2.0.0","322793","3","<div class=""pb-14 text-7xl"">+</div>","null","fixation","","","","","",""
"","710","html-keynbutton-response","37","2.0.0","323505","3","<div class=""flex flex-row stim-length pb-8 md:pd-20 justify-evenly items-center""><div class=""square""></div><div class=""circle""></div><div class=""square""></div></div>","p","","shape_practice","mismatch","圆","p","true","圆"
"","null","html-keynbutton-response","38","2.0.0","324021","3","<span class='text-green-400 text-4xl md:text-5xl lg:text-6xl'>正确!</span>","null","trial_feedback","","","","","",""
"","null","html-keynbutton-response","39","2.0.0","324527","3","<div class=""pb-14 text-7xl"">+</div>","null","fixation","","","","","",""
"","466","html-keynbutton-response","40","2.0.0","324994","3","<div class=""flex flex-row stim-length pb-8 md:pd-20 justify-evenly items-center""><div class=""square""></div><div class=""circle""></div><div class=""square""></div></div>","p","","shape_practice","mismatch","圆","p","true","圆"
"","null","html-keynbutton-response","41","2.0.0","325495","3","<span class='text-green-400 text-4xl md:text-5xl lg:text-6xl'>正确!</span>","null","trial_feedback","","","","","",""
"","null","html-keynbutton-response","42","2.0.0","326002","3","<div class=""pb-14 text-7xl"">+</div>","null","fixation","","","","","",""
"","415","html-keynbutton-response","43","2.0.0","326417","3","<div class=""flex flex-row stim-length pb-8 md:pd-20 justify-evenly items-center""><div class=""square""></div><div class=""square""></div><div class=""square""></div></div>","q","","shape_practice","match","方","q","true","方"
"","null","html-keynbutton-response","44","2.0.0","326924","3","<span class='text-green-400 text-4xl md:text-5xl lg:text-6xl'>正确!</span>","null","trial_feedback","","","","","",""
"","null","html-keynbutton-response","45","2.0.0","327426","3","<div class=""pb-14 text-7xl"">+</div>","null","fixation","","","","","",""
"","645","html-keynbutton-response","46","2.0.0","328073","3","<div class=""flex flex-row stim-length pb-8 md:pd-20 justify-evenly items-center""><div class=""circle""></div><div class=""square""></div><div class=""circle""></div></div>","q","","shape_practice","mismatch","方","q","true","方"
"","null","html-keynbutton-response","47","2.0.0","328587","3","<span class='text-green-400 text-4xl md:text-5xl lg:text-6xl'>正确!</span>","null","trial_feedback","","","","","",""
"","null","html-keynbutton-response","48","2.0.0","329091","3","<div class=""pb-14 text-7xl"">+</div>","null","fixation","","","","","",""
"","376","html-keynbutton-response","49","2.0.0","329468","3","<div class=""flex flex-row stim-length pb-8 md:pd-20 justify-evenly items-center""><div class=""circle""></div><div class=""circle""></div><div class=""circle""></div></div>","p","","shape_practice","match","圆","p","true","圆"
"","null","html-keynbutton-response","50","2.0.0","329973","3","<span class='text-green-400 text-4xl md:text-5xl lg:text-6xl'>正确!</span>","null","trial_feedback","","","","","",""
"","null","html-keynbutton-response","51","2.0.0","330477","3","<div class=""pb-14 text-7xl"">+</div>","null","fixation","","","","","",""
"","432","html-keynbutton-response","52","2.0.0","330910","3","<div class=""flex flex-row stim-length pb-8 md:pd-20 justify-evenly items-center""><div class=""circle""></div><div class=""square""></div><div class=""circle""></div></div>","q","","shape_practice","mismatch","方","q","true","方"
"","null","html-keynbutton-response","53","2.0.0","331420","3","<span class='text-green-400 text-4xl md:text-5xl lg:text-6xl'>正确!</span>","null","trial_feedback","","","","","",""
"","null","html-keynbutton-response","54","2.0.0","331925","3","<div class=""pb-14 text-7xl"">+</div>","null","fixation","","","","","",""
"","352","html-keynbutton-response","55","2.0.0","332278","3","<div class=""flex flex-row stim-length pb-8 md:pd-20 justify-evenly items-center""><div class=""square""></div><div class=""circle""></div><div class=""square""></div></div>","p","","shape_practice","mismatch","圆","p","true","圆"
"","null","html-keynbutton-response","56","2.0.0","332792","3","<span class='text-green-400 text-4xl md:text-5xl lg:text-6xl'>正确!</span>","null","trial_feedback","","","","","",""
"","null","html-keynbutton-response","57","2.0.0","333306","3","<div class=""pb-14 text-7xl"">+</div>","null","fixation","","","","","",""
"","459","html-keynbutton-response","58","2.0.0","333765","3","<div class=""flex flex-row stim-length pb-8 md:pd-20 justify-evenly items-center""><div class=""circle""></div><div class=""circle""></div><div class=""circle""></div></div>","p","","shape_practice","match","圆","p","true","圆"
"","null","html-keynbutton-response","59","2.0.0","334272","3","<span class='text-green-400 text-4xl md:text-5xl lg:text-6xl'>正确!</span>","null","trial_feedback","","","","","",""
"","null","html-keynbutton-response","60","2.0.0","334777","3","<div class=""pb-14 text-7xl"">+</div>","null","fixation","","","","","",""
"","236","html-keynbutton-response","61","2.0.0","335014","3","<div class=""flex flex-row stim-length pb-8 md:pd-20 justify-evenly items-center""><div class=""square""></div><div class=""square""></div><div class=""square""></div></div>","q","","shape_practice","match","方","q","true","方"
"","null","html-keynbutton-response","62","2.0.0","335522","3","<span class='text-green-400 text-4xl md:text-5xl lg:text-6xl'>正确!</span>","null","trial_feedback","","","","","",""
"","3054","html-keynbutton-response","64","2.0.0","338583","3","<div class=""jp"">
    <p>您的正确率是：90%</p>
    <p>您的平均反应时间是：448毫秒</p></div>"," ","block_feedback","","","","","",""
"","3403","html-keynbutton-response","65","2.0.0","341986","3","
        <div class=""jp px-2 xxs:px-5 mx-auto"">
        <p class=""text-center text-red-600 text-[1.2em] pb-5"">练习结束，现在开始正式实验</p>
        <p>请注意：正式实验中将不再会呈现反馈。</p>
        </div>
        "," ","","","","","","",""
"","null","html-keynbutton-response","66","2.0.0","345190","3","<count-down title=""""></count-down>","null","countDown_trial","","","","","",""
"","null","html-keynbutton-response","67","2.0.0","345706","3","<div class=""pb-14 text-7xl"">+</div>","null","fixation","","","","","",""
"","430","html-keynbutton-response","68","2.0.0","346136","3","<div class=""flex flex-row stim-length pb-8 md:pd-20 justify-evenly items-center""><div class=""circle""></div><div class=""circle""></div><div class=""circle""></div></div>","p","","shape_test","match","圆","p","true","圆"
"","null","html-keynbutton-response","69","2.0.0","346643","3","<div class=""pb-14 text-7xl"">+</div>","null","fixation","","","","","",""
"","547","html-keynbutton-response","70","2.0.0","347191","3","<div class=""flex flex-row stim-length pb-8 md:pd-20 justify-evenly items-center""><div class=""square""></div><div class=""circle""></div><div class=""square""></div></div>","p","","shape_test","mismatch","圆","p","true","圆"
"","null","html-keynbutton-response","71","2.0.0","347693","3","<div class=""pb-14 text-7xl"">+</div>","null","fixation","","","","","",""
"","346","html-keynbutton-response","72","2.0.0","348040","3","<div class=""flex flex-row stim-length pb-8 md:pd-20 justify-evenly items-center""><div class=""square""></div><div class=""square""></div><div class=""square""></div></div>","q","","shape_test","match","方","q","true","方"
"","null","html-keynbutton-response","73","2.0.0","348551","3","<div class=""pb-14 text-7xl"">+</div>","null","fixation","","","","","",""
"","319","html-keynbutton-response","74","2.0.0","348871","3","<div class=""flex flex-row stim-length pb-8 md:pd-20 justify-evenly items-center""><div class=""circle""></div><div class=""square""></div><div class=""circle""></div></div>","q","","shape_test","mismatch","方","q","true","方"
"","null","html-keynbutton-response","75","2.0.0","349388","3","<div class=""pb-14 text-7xl"">+</div>","null","fixation","","","","","",""
"","311","html-keynbutton-response","76","2.0.0","349701","3","<div class=""flex flex-row stim-length pb-8 md:pd-20 justify-evenly items-center""><div class=""circle""></div><div class=""circle""></div><div class=""circle""></div></div>","p","","shape_test","match","圆","p","true","圆"
"","null","html-keynbutton-response","77","2.0.0","350207","3","<div class=""pb-14 text-7xl"">+</div>","null","fixation","","","","","",""
"","385","html-keynbutton-response","78","2.0.0","350593","3","<div class=""flex flex-row stim-length pb-8 md:pd-20 justify-evenly items-center""><div class=""square""></div><div class=""square""></div><div class=""square""></div></div>","q","","shape_test","match","方","q","true","方"
"","null","html-keynbutton-response","79","2.0.0","351103","3","<div class=""pb-14 text-7xl"">+</div>","null","fixation","","","","","",""
"","407","html-keynbutton-response","80","2.0.0","351511","3","<div class=""flex flex-row stim-length pb-8 md:pd-20 justify-evenly items-center""><div class=""circle""></div><div class=""square""></div><div class=""circle""></div></div>","q","","shape_test","mismatch","方","q","true","方"
"","null","html-keynbutton-response","81","2.0.0","352022","3","<div class=""pb-14 text-7xl"">+</div>","null","fixation","","","","","",""
"","310","html-keynbutton-response","82","2.0.0","352333","3","<div class=""flex flex-row stim-length pb-8 md:pd-20 justify-evenly items-center""><div class=""square""></div><div class=""circle""></div><div class=""square""></div></div>","p","","shape_test","mismatch","圆","p","true","圆"
"","null","html-keynbutton-response","83","2.0.0","352841","3","<div class=""pb-14 text-7xl"">+</div>","null","fixation","","","","","",""
"","339","html-keynbutton-response","84","2.0.0","353181","3","<div class=""flex flex-row stim-length pb-8 md:pd-20 justify-evenly items-center""><div class=""square""></div><div class=""circle""></div><div class=""square""></div></div>","p","","shape_test","mismatch","圆","p","true","圆"
"","null","html-keynbutton-response","85","2.0.0","353686","3","<div class=""pb-14 text-7xl"">+</div>","null","fixation","","","","","",""
"","334","html-keynbutton-response","86","2.0.0","354022","3","<div class=""flex flex-row stim-length pb-8 md:pd-20 justify-evenly items-center""><div class=""square""></div><div class=""square""></div><div class=""square""></div></div>","q","","shape_test","match","方","q","true","方"
"","null","html-keynbutton-response","87","2.0.0","354525","3","<div class=""pb-14 text-7xl"">+</div>","null","fixation","","","","","",""
"","322","html-keynbutton-response","88","2.0.0","354848","3","<div class=""flex flex-row stim-length pb-8 md:pd-20 justify-evenly items-center""><div class=""circle""></div><div class=""circle""></div><div class=""circle""></div></div>","p","","shape_test","match","圆","p","true","圆"
"","null","html-keynbutton-response","89","2.0.0","355357","3","<div class=""pb-14 text-7xl"">+</div>","null","fixation","","","","","",""
"","300","html-keynbutton-response","90","2.0.0","355658","3","<div class=""flex flex-row stim-length pb-8 md:pd-20 justify-evenly items-center""><div class=""circle""></div><div class=""square""></div><div class=""circle""></div></div>","q","","shape_test","mismatch","方","q","true","方"
"","null","html-keynbutton-response","91","2.0.0","356169","3","<div class=""pb-14 text-7xl"">+</div>","null","fixation","","","","","",""
"","388","html-keynbutton-response","92","2.0.0","356558","3","<div class=""flex flex-row stim-length pb-8 md:pd-20 justify-evenly items-center""><div class=""square""></div><div class=""circle""></div><div class=""square""></div></div>","p","","shape_test","mismatch","圆","p","true","圆"
"","null","html-keynbutton-response","93","2.0.0","357074","3","<div class=""pb-14 text-7xl"">+</div>","null","fixation","","","","","",""
"","377","html-keynbutton-response","94","2.0.0","357452","3","<div class=""flex flex-row stim-length pb-8 md:pd-20 justify-evenly items-center""><div class=""circle""></div><div class=""circle""></div><div class=""circle""></div></div>","p","","shape_test","match","圆","p","true","圆"
"","null","html-keynbutton-response","95","2.0.0","357957","3","<div class=""pb-14 text-7xl"">+</div>","null","fixation","","","","","",""
"","356","html-keynbutton-response","96","2.0.0","358314","3","<div class=""flex flex-row stim-length pb-8 md:pd-20 justify-evenly items-center""><div class=""square""></div><div class=""square""></div><div class=""square""></div></div>","q","","shape_test","match","方","q","true","方"
"","null","html-keynbutton-response","97","2.0.0","358820","3","<div class=""pb-14 text-7xl"">+</div>","null","fixation","","","","","",""
"","462","html-keynbutton-response","98","2.0.0","359284","3","<div class=""flex flex-row stim-length pb-8 md:pd-20 justify-evenly items-center""><div class=""circle""></div><div class=""square""></div><div class=""circle""></div></div>","q","","shape_test","mismatch","方","q","true","方"
"","null","html-keynbutton-response","99","2.0.0","359790","3","<div class=""pb-14 text-7xl"">+</div>","null","fixation","","","","","",""
"","377","html-keynbutton-response","100","2.0.0","360168","3","<div class=""flex flex-row stim-length pb-8 md:pd-20 justify-evenly items-center""><div class=""square""></div><div class=""circle""></div><div class=""square""></div></div>","p","","shape_test","mismatch","圆","p","true","圆"
"","null","html-keynbutton-response","101","2.0.0","360669","3","<div class=""pb-14 text-7xl"">+</div>","null","fixation","","","","","",""
"","326","html-keynbutton-response","102","2.0.0","360996","3","<div class=""flex flex-row stim-length pb-8 md:pd-20 justify-evenly items-center""><div class=""circle""></div><div class=""square""></div><div class=""circle""></div></div>","q","","shape_test","mismatch","方","q","true","方"
"","null","html-keynbutton-response","103","2.0.0","361506","3","<div class=""pb-14 text-7xl"">+</div>","null","fixation","","","","","",""
"","343","html-keynbutton-response","104","2.0.0","361850","3","<div class=""flex flex-row stim-length pb-8 md:pd-20 justify-evenly items-center""><div class=""circle""></div><div class=""circle""></div><div class=""circle""></div></div>","p","","shape_test","match","圆","p","true","圆"
"","null","html-keynbutton-response","105","2.0.0","362359","3","<div class=""pb-14 text-7xl"">+</div>","null","fixation","","","","","",""
"","361","html-keynbutton-response","106","2.0.0","362721","3","<div class=""flex flex-row stim-length pb-8 md:pd-20 justify-evenly items-center""><div class=""square""></div><div class=""square""></div><div class=""square""></div></div>","q","","shape_test","match","方","q","true","方"
"","null","html-keynbutton-response","107","2.0.0","363222","3","<div class=""pb-14 text-7xl"">+</div>","null","fixation","","","","","",""
"","417","html-keynbutton-response","108","2.0.0","363640","3","<div class=""flex flex-row stim-length pb-8 md:pd-20 justify-evenly items-center""><div class=""circle""></div><div class=""circle""></div><div class=""circle""></div></div>","q","","shape_test","match","圆","p","false","方"
"","null","html-keynbutton-response","109","2.0.0","364143","3","<div class=""pb-14 text-7xl"">+</div>","null","fixation","","","","","",""
"","456","html-keynbutton-response","110","2.0.0","364600","3","<div class=""flex flex-row stim-length pb-8 md:pd-20 justify-evenly items-center""><div class=""square""></div><div class=""circle""></div><div class=""square""></div></div>","p","","shape_test","mismatch","圆","p","true","圆"
"","null","html-keynbutton-response","111","2.0.0","365109","3","<div class=""pb-14 text-7xl"">+</div>","null","fixation","","","","","",""
"","397","html-keynbutton-response","112","2.0.0","365507","3","<div class=""flex flex-row stim-length pb-8 md:pd-20 justify-evenly items-center""><div class=""square""></div><div class=""square""></div><div class=""square""></div></div>","q","","shape_test","match","方","q","true","方"
"","null","html-keynbutton-response","113","2.0.0","366019","3","<div class=""pb-14 text-7xl"">+</div>","null","fixation","","","","","",""
"","407","html-keynbutton-response","114","2.0.0","366427","3","<div class=""flex flex-row stim-length pb-8 md:pd-20 justify-evenly items-center""><div class=""circle""></div><div class=""square""></div><div class=""circle""></div></div>","q","","shape_test","mismatch","方","q","true","方"
"","null","html-keynbutton-response","115","2.0.0","366942","3","<div class=""pb-14 text-7xl"">+</div>","null","fixation","","","","","",""
"","358","html-keynbutton-response","116","2.0.0","367301","3","<div class=""flex flex-row stim-length pb-8 md:pd-20 justify-evenly items-center""><div class=""square""></div><div class=""circle""></div><div class=""square""></div></div>","p","","shape_test","mismatch","圆","p","true","圆"
"","null","html-keynbutton-response","117","2.0.0","367811","3","<div class=""pb-14 text-7xl"">+</div>","null","fixation","","","","","",""
"","367","html-keynbutton-response","118","2.0.0","368179","3","<div class=""flex flex-row stim-length pb-8 md:pd-20 justify-evenly items-center""><div class=""circle""></div><div class=""circle""></div><div class=""circle""></div></div>","q","","shape_test","match","圆","p","false","方"
"","null","html-keynbutton-response","119","2.0.0","368688","3","<div class=""pb-14 text-7xl"">+</div>","null","fixation","","","","","",""
"","460","html-keynbutton-response","120","2.0.0","369149","3","<div class=""flex flex-row stim-length pb-8 md:pd-20 justify-evenly items-center""><div class=""circle""></div><div class=""square""></div><div class=""circle""></div></div>","q","","shape_test","mismatch","方","q","true","方"
"","null","html-keynbutton-response","121","2.0.0","369658","3","<div class=""pb-14 text-7xl"">+</div>","null","fixation","","","","","",""
"","422","html-keynbutton-response","122","2.0.0","370081","3","<div class=""flex flex-row stim-length pb-8 md:pd-20 justify-evenly items-center""><div class=""square""></div><div class=""square""></div><div class=""square""></div></div>","q","","shape_test","match","方","q","true","方"
"","null","html-keynbutton-response","123","2.0.0","370586","3","<div class=""pb-14 text-7xl"">+</div>","null","fixation","","","","","",""
"","369","html-keynbutton-response","124","2.0.0","370955","3","<div class=""flex flex-row stim-length pb-8 md:pd-20 justify-evenly items-center""><div class=""circle""></div><div class=""circle""></div><div class=""circle""></div></div>","p","","shape_test","match","圆","p","true","圆"
"","null","html-keynbutton-response","125","2.0.0","371461","3","<div class=""pb-14 text-7xl"">+</div>","null","fixation","","","","","",""
"","337","html-keynbutton-response","126","2.0.0","371799","3","<div class=""flex flex-row stim-length pb-8 md:pd-20 justify-evenly items-center""><div class=""circle""></div><div class=""square""></div><div class=""circle""></div></div>","q","","shape_test","mismatch","方","q","true","方"
"","null","html-keynbutton-response","127","2.0.0","372305","3","<div class=""pb-14 text-7xl"">+</div>","null","fixation","","","","","",""
"","408","html-keynbutton-response","128","2.0.0","372714","3","<div class=""flex flex-row stim-length pb-8 md:pd-20 justify-evenly items-center""><div class=""square""></div><div class=""square""></div><div class=""square""></div></div>","q","","shape_test","match","方","q","true","方"
"","null","html-keynbutton-response","129","2.0.0","373218","3","<div class=""pb-14 text-7xl"">+</div>","null","fixation","","","","","",""
"","340","html-keynbutton-response","130","2.0.0","373558","3","<div class=""flex flex-row stim-length pb-8 md:pd-20 justify-evenly items-center""><div class=""square""></div><div class=""circle""></div><div class=""square""></div></div>","p","","shape_test","mismatch","圆","p","true","圆"
"","null","html-keynbutton-response","131","2.0.0","374072","3","<div class=""pb-14 text-7xl"">+</div>","null","fixation","","","","","",""
"","399","html-keynbutton-response","132","2.0.0","374473","3","<div class=""flex flex-row stim-length pb-8 md:pd-20 justify-evenly items-center""><div class=""square""></div><div class=""square""></div><div class=""square""></div></div>","q","","shape_test","match","方","q","true","方"
"","null","html-keynbutton-response","133","2.0.0","374989","3","<div class=""pb-14 text-7xl"">+</div>","null","fixation","","","","","",""
"","419","html-keynbutton-response","134","2.0.0","375409","3","<div class=""flex flex-row stim-length pb-8 md:pd-20 justify-evenly items-center""><div class=""square""></div><div class=""circle""></div><div class=""square""></div></div>","p","","shape_test","mismatch","圆","p","true","圆"
"","null","html-keynbutton-response","135","2.0.0","375917","3","<div class=""pb-14 text-7xl"">+</div>","null","fixation","","","","","",""
"","402","html-keynbutton-response","136","2.0.0","376320","3","<div class=""flex flex-row stim-length pb-8 md:pd-20 justify-evenly items-center""><div class=""circle""></div><div class=""square""></div><div class=""circle""></div></div>","q","","shape_test","mismatch","方","q","true","方"
"","null","html-keynbutton-response","137","2.0.0","376826","3","<div class=""pb-14 text-7xl"">+</div>","null","fixation","","","","","",""
"","395","html-keynbutton-response","138","2.0.0","377222","3","<div class=""flex flex-row stim-length pb-8 md:pd-20 justify-evenly items-center""><div class=""circle""></div><div class=""circle""></div><div class=""circle""></div></div>","p","","shape_test","match","圆","p","true","圆"
"","null","html-keynbutton-response","139","2.0.0","377738","3","<div class=""pb-14 text-7xl"">+</div>","null","fixation","","","","","",""
"","361","html-keynbutton-response","140","2.0.0","378099","3","<div class=""flex flex-row stim-length pb-8 md:pd-20 justify-evenly items-center""><div class=""circle""></div><div class=""square""></div><div class=""circle""></div></div>","q","","shape_test","mismatch","方","q","true","方"
"","null","html-keynbutton-response","141","2.0.0","378604","3","<div class=""pb-14 text-7xl"">+</div>","null","fixation","","","","","",""
"","509","html-keynbutton-response","142","2.0.0","379113","3","<div class=""flex flex-row stim-length pb-8 md:pd-20 justify-evenly items-center""><div class=""square""></div><div class=""square""></div><div class=""square""></div></div>","q","","shape_test","match","方","q","true","方"
"","null","html-keynbutton-response","143","2.0.0","379621","3","<div class=""pb-14 text-7xl"">+</div>","null","fixation","","","","","",""
"","363","html-keynbutton-response","144","2.0.0","379984","3","<div class=""flex flex-row stim-length pb-8 md:pd-20 justify-evenly items-center""><div class=""square""></div><div class=""circle""></div><div class=""square""></div></div>","p","","shape_test","mismatch","圆","p","true","圆"
"","null","html-keynbutton-response","145","2.0.0","380488","3","<div class=""pb-14 text-7xl"">+</div>","null","fixation","","","","","",""
"","397","html-keynbutton-response","146","2.0.0","380885","3","<div class=""flex flex-row stim-length pb-8 md:pd-20 justify-evenly items-center""><div class=""circle""></div><div class=""circle""></div><div class=""circle""></div></div>","p","","shape_test","match","圆","p","true","圆"
"","5236","html-keynbutton-response","147","2.0.0","386124","3","<div class=""jp""><p>您已完成1/10部分</p><p>请休息一会儿</p>
    <p>您的正确率是：95%</p>
    <p>您的平均反应时间是：383毫秒</p></div>"," ","block_feedback","","","","","",""
"","null","html-keynbutton-response","148","2.0.0","389339","3","<count-down title=""""></count-down>","null","countDown_trial","","","","","",""
"","null","html-keynbutton-response","149","2.0.0","389842","3","<div class=""pb-14 text-7xl"">+</div>","null","fixation","","","","","",""
"","392","html-keynbutton-response","150","2.0.0","390235","3","<div class=""flex flex-row stim-length pb-8 md:pd-20 justify-evenly items-center""><div class=""square""></div><div class=""square""></div><div class=""square""></div></div>","q","","shape_test_1","match","方","q","true","方"
"","null","html-keynbutton-response","151","2.0.0","390736","3","<div class=""pb-14 text-7xl"">+</div>","null","fixation","","","","","",""
"","332","html-keynbutton-response","152","2.0.0","391069","3","<div class=""flex flex-row stim-length pb-8 md:pd-20 justify-evenly items-center""><div class=""circle""></div><div class=""square""></div><div class=""circle""></div></div>","q","","shape_test_1","mismatch","方","q","true","方"
"","null","html-keynbutton-response","153","2.0.0","391573","3","<div class=""pb-14 text-7xl"">+</div>","null","fixation","","","","","",""
"","302","html-keynbutton-response","154","2.0.0","391877","3","<div class=""flex flex-row stim-length pb-8 md:pd-20 justify-evenly items-center""><div class=""circle""></div><div class=""circle""></div><div class=""circle""></div></div>","p","","shape_test_1","match","圆","p","true","圆"
"","null","html-keynbutton-response","155","2.0.0","392388","3","<div class=""pb-14 text-7xl"">+</div>","null","fixation","","","","","",""
"","352","html-keynbutton-response","156","2.0.0","392740","3","<div class=""flex flex-row stim-length pb-8 md:pd-20 justify-evenly items-center""><div class=""square""></div><div class=""circle""></div><div class=""square""></div></div>","q","","shape_test_1","mismatch","圆","p","false","方"
"","null","html-keynbutton-response","157","2.0.0","393249","3","<div class=""pb-14 text-7xl"">+</div>","null","fixation","","","","","",""
"","568","html-keynbutton-response","158","2.0.0","393819","3","<div class=""flex flex-row stim-length pb-8 md:pd-20 justify-evenly items-center""><div class=""circle""></div><div class=""circle""></div><div class=""circle""></div></div>","p","","shape_test_1","match","圆","p","true","圆"
"","null","html-keynbutton-response","159","2.0.0","394323","3","<div class=""pb-14 text-7xl"">+</div>","null","fixation","","","","","",""
"","362","html-keynbutton-response","160","2.0.0","394686","3","<div class=""flex flex-row stim-length pb-8 md:pd-20 justify-evenly items-center""><div class=""square""></div><div class=""square""></div><div class=""square""></div></div>","q","","shape_test_1","match","方","q","true","方"
"","null","html-keynbutton-response","161","2.0.0","395188","3","<div class=""pb-14 text-7xl"">+</div>","null","fixation","","","","","",""
"","426","html-keynbutton-response","162","2.0.0","395614","3","<div class=""flex flex-row stim-length pb-8 md:pd-20 justify-evenly items-center""><div class=""circle""></div><div class=""square""></div><div class=""circle""></div></div>","q","","shape_test_1","mismatch","方","q","true","方"
"","null","html-keynbutton-response","163","2.0.0","396123","3","<div class=""pb-14 text-7xl"">+</div>","null","fixation","","","","","",""
"","381","html-keynbutton-response","164","2.0.0","396505","3","<div class=""flex flex-row stim-length pb-8 md:pd-20 justify-evenly items-center""><div class=""square""></div><div class=""circle""></div><div class=""square""></div></div>","p","","shape_test_1","mismatch","圆","p","true","圆"
"","null","html-keynbutton-response","165","2.0.0","397007","3","<div class=""pb-14 text-7xl"">+</div>","null","fixation","","","","","",""
"","355","html-keynbutton-response","166","2.0.0","397363","3","<div class=""flex flex-row stim-length pb-8 md:pd-20 justify-evenly items-center""><div class=""circle""></div><div class=""square""></div><div class=""circle""></div></div>","q","","shape_test_1","mismatch","方","q","true","方"
"","null","html-keynbutton-response","167","2.0.0","397867","3","<div class=""pb-14 text-7xl"">+</div>","null","fixation","","","","","",""
"","426","html-keynbutton-response","168","2.0.0","398293","3","<div class=""flex flex-row stim-length pb-8 md:pd-20 justify-evenly items-center""><div class=""square""></div><div class=""circle""></div><div class=""square""></div></div>","p","","shape_test_1","mismatch","圆","p","true","圆"
"","null","html-keynbutton-response","169","2.0.0","398804","3","<div class=""pb-14 text-7xl"">+</div>","null","fixation","","","","","",""
"","413","html-keynbutton-response","170","2.0.0","399218","3","<div class=""flex flex-row stim-length pb-8 md:pd-20 justify-evenly items-center""><div class=""square""></div><div class=""square""></div><div class=""square""></div></div>","p","","shape_test_1","match","方","q","false","圆"
"","null","html-keynbutton-response","171","2.0.0","399724","3","<div class=""pb-14 text-7xl"">+</div>","null","fixation","","","","","",""
"","502","html-keynbutton-response","172","2.0.0","400226","3","<div class=""flex flex-row stim-length pb-8 md:pd-20 justify-evenly items-center""><div class=""circle""></div><div class=""circle""></div><div class=""circle""></div></div>","p","","shape_test_1","match","圆","p","true","圆"
"","null","html-keynbutton-response","173","2.0.0","400738","3","<div class=""pb-14 text-7xl"">+</div>","null","fixation","","","","","",""
"","394","html-keynbutton-response","174","2.0.0","401133","3","<div class=""flex flex-row stim-length pb-8 md:pd-20 justify-evenly items-center""><div class=""square""></div><div class=""circle""></div><div class=""square""></div></div>","p","","shape_test_1","mismatch","圆","p","true","圆"
"","null","html-keynbutton-response","175","2.0.0","401640","3","<div class=""pb-14 text-7xl"">+</div>","null","fixation","","","","","",""
"","394","html-keynbutton-response","176","2.0.0","402035","3","<div class=""flex flex-row stim-length pb-8 md:pd-20 justify-evenly items-center""><div class=""circle""></div><div class=""circle""></div><div class=""circle""></div></div>","p","","shape_test_1","match","圆","p","true","圆"
"","null","html-keynbutton-response","177","2.0.0","402537","3","<div class=""pb-14 text-7xl"">+</div>","null","fixation","","","","","",""
"","412","html-keynbutton-response","178","2.0.0","402949","3","<div class=""flex flex-row stim-length pb-8 md:pd-20 justify-evenly items-center""><div class=""square""></div><div class=""square""></div><div class=""square""></div></div>","q","","shape_test_1","match","方","q","true","方"
"","null","html-keynbutton-response","179","2.0.0","403454","3","<div class=""pb-14 text-7xl"">+</div>","null","fixation","","","","","",""
"","473","html-keynbutton-response","180","2.0.0","403928","3","<div class=""flex flex-row stim-length pb-8 md:pd-20 justify-evenly items-center""><div class=""circle""></div><div class=""square""></div><div class=""circle""></div></div>","q","","shape_test_1","mismatch","方","q","true","方"
"","null","html-keynbutton-response","181","2.0.0","404433","3","<div class=""pb-14 text-7xl"">+</div>","null","fixation","","","","","",""
"","381","html-keynbutton-response","182","2.0.0","404815","3","<div class=""flex flex-row stim-length pb-8 md:pd-20 justify-evenly items-center""><div class=""square""></div><div class=""square""></div><div class=""square""></div></div>","q","","shape_test_1","match","方","q","true","方"
"","null","html-keynbutton-response","183","2.0.0","405332","3","<div class=""pb-14 text-7xl"">+</div>","null","fixation","","","","","",""
"","386","html-keynbutton-response","184","2.0.0","405718","3","<div class=""flex flex-row stim-length pb-8 md:pd-20 justify-evenly items-center""><div class=""circle""></div><div class=""circle""></div><div class=""circle""></div></div>","p","","shape_test_1","match","圆","p","true","圆"
"","null","html-keynbutton-response","185","2.0.0","406222","3","<div class=""pb-14 text-7xl"">+</div>","null","fixation","","","","","",""
"","375","html-keynbutton-response","186","2.0.0","406597","3","<div class=""flex flex-row stim-length pb-8 md:pd-20 justify-evenly items-center""><div class=""square""></div><div class=""circle""></div><div class=""square""></div></div>","q","","shape_test_1","mismatch","圆","p","false","方"
"","null","html-keynbutton-response","187","2.0.0","407103","3","<div class=""pb-14 text-7xl"">+</div>","null","fixation","","","","","",""
"","585","html-keynbutton-response","188","2.0.0","407689","3","<div class=""flex flex-row stim-length pb-8 md:pd-20 justify-evenly items-center""><div class=""circle""></div><div class=""square""></div><div class=""circle""></div></div>","q","","shape_test_1","mismatch","方","q","true","方"
"","null","html-keynbutton-response","189","2.0.0","408201","3","<div class=""pb-14 text-7xl"">+</div>","null","fixation","","","","","",""
"","464","html-keynbutton-response","190","2.0.0","408666","3","<div class=""flex flex-row stim-length pb-8 md:pd-20 justify-evenly items-center""><div class=""square""></div><div class=""circle""></div><div class=""square""></div></div>","p","","shape_test_1","mismatch","圆","p","true","圆"
"","null","html-keynbutton-response","191","2.0.0","409172","3","<div class=""pb-14 text-7xl"">+</div>","null","fixation","","","","","",""
"","586","html-keynbutton-response","192","2.0.0","409759","3","<div class=""flex flex-row stim-length pb-8 md:pd-20 justify-evenly items-center""><div class=""square""></div><div class=""square""></div><div class=""square""></div></div>","q","","shape_test_1","match","方","q","true","方"
"","null","html-keynbutton-response","193","2.0.0","410268","3","<div class=""pb-14 text-7xl"">+</div>","null","fixation","","","","","",""
"","399","html-keynbutton-response","194","2.0.0","410668","3","<div class=""flex flex-row stim-length pb-8 md:pd-20 justify-evenly items-center""><div class=""circle""></div><div class=""circle""></div><div class=""circle""></div></div>","p","","shape_test_1","match","圆","p","true","圆"
"","null","html-keynbutton-response","195","2.0.0","411172","3","<div class=""pb-14 text-7xl"">+</div>","null","fixation","","","","","",""
"","379","html-keynbutton-response","196","2.0.0","411551","3","<div class=""flex flex-row stim-length pb-8 md:pd-20 justify-evenly items-center""><div class=""circle""></div><div class=""square""></div><div class=""circle""></div></div>","q","","shape_test_1","mismatch","方","q","true","方"
"","null","html-keynbutton-response","197","2.0.0","412055","3","<div class=""pb-14 text-7xl"">+</div>","null","fixation","","","","","",""
"","396","html-keynbutton-response","198","2.0.0","412452","3","<div class=""flex flex-row stim-length pb-8 md:pd-20 justify-evenly items-center""><div class=""circle""></div><div class=""square""></div><div class=""circle""></div></div>","q","","shape_test_1","mismatch","方","q","true","方"
"","null","html-keynbutton-response","199","2.0.0","412966","3","<div class=""pb-14 text-7xl"">+</div>","null","fixation","","","","","",""
"","530","html-keynbutton-response","200","2.0.0","413497","3","<div class=""flex flex-row stim-length pb-8 md:pd-20 justify-evenly items-center""><div class=""circle""></div><div class=""circle""></div><div class=""circle""></div></div>","p","","shape_test_1","match","圆","p","true","圆"
"","null","html-keynbutton-response","201","2.0.0","414000","3","<div class=""pb-14 text-7xl"">+</div>","null","fixation","","","","","",""
"","501","html-keynbutton-response","202","2.0.0","414502","3","<div class=""flex flex-row stim-length pb-8 md:pd-20 justify-evenly items-center""><div class=""square""></div><div class=""circle""></div><div class=""square""></div></div>","p","","shape_test_1","mismatch","圆","p","true","圆"
"","null","html-keynbutton-response","203","2.0.0","415006","3","<div class=""pb-14 text-7xl"">+</div>","null","fixation","","","","","",""
"","454","html-keynbutton-response","204","2.0.0","415460","3","<div class=""flex flex-row stim-length pb-8 md:pd-20 justify-evenly items-center""><div class=""square""></div><div class=""square""></div><div class=""square""></div></div>","q","","shape_test_1","match","方","q","true","方"
"","null","html-keynbutton-response","205","2.0.0","415969","3","<div class=""pb-14 text-7xl"">+</div>","null","fixation","","","","","",""
"","468","html-keynbutton-response","206","2.0.0","416437","3","<div class=""flex flex-row stim-length pb-8 md:pd-20 justify-evenly items-center""><div class=""circle""></div><div class=""circle""></div><div class=""circle""></div></div>","p","","shape_test_1","match","圆","p","true","圆"
"","null","html-keynbutton-response","207","2.0.0","416940","3","<div class=""pb-14 text-7xl"">+</div>","null","fixation","","","","","",""
"","441","html-keynbutton-response","208","2.0.0","417382","3","<div class=""flex flex-row stim-length pb-8 md:pd-20 justify-evenly items-center""><div class=""square""></div><div class=""circle""></div><div class=""square""></div></div>","p","","shape_test_1","mismatch","圆","p","true","圆"
"","null","html-keynbutton-response","209","2.0.0","417886","3","<div class=""pb-14 text-7xl"">+</div>","null","fixation","","","","","",""
"","334","html-keynbutton-response","210","2.0.0","418221","3","<div class=""flex flex-row stim-length pb-8 md:pd-20 justify-evenly items-center""><div class=""square""></div><div class=""square""></div><div class=""square""></div></div>","q","","shape_test_1","match","方","q","true","方"
"","null","html-keynbutton-response","211","2.0.0","418736","3","<div class=""pb-14 text-7xl"">+</div>","null","fixation","","","","","",""
"","371","html-keynbutton-response","212","2.0.0","419107","3","<div class=""flex flex-row stim-length pb-8 md:pd-20 justify-evenly items-center""><div class=""circle""></div><div class=""square""></div><div class=""circle""></div></div>","q","","shape_test_1","mismatch","方","q","true","方"
"","null","html-keynbutton-response","213","2.0.0","419620","3","<div class=""pb-14 text-7xl"">+</div>","null","fixation","","","","","",""
"","456","html-keynbutton-response","214","2.0.0","420076","3","<div class=""flex flex-row stim-length pb-8 md:pd-20 justify-evenly items-center""><div class=""circle""></div><div class=""circle""></div><div class=""circle""></div></div>","p","","shape_test_1","match","圆","p","true","圆"
"","null","html-keynbutton-response","215","2.0.0","420585","3","<div class=""pb-14 text-7xl"">+</div>","null","fixation","","","","","",""
"","423","html-keynbutton-response","216","2.0.0","421009","3","<div class=""flex flex-row stim-length pb-8 md:pd-20 justify-evenly items-center""><div class=""square""></div><div class=""square""></div><div class=""square""></div></div>","q","","shape_test_1","match","方","q","true","方"
"","null","html-keynbutton-response","217","2.0.0","421524","3","<div class=""pb-14 text-7xl"">+</div>","null","fixation","","","","","",""
"","345","html-keynbutton-response","218","2.0.0","421870","3","<div class=""flex flex-row stim-length pb-8 md:pd-20 justify-evenly items-center""><div class=""square""></div><div class=""circle""></div><div class=""square""></div></div>","p","","shape_test_1","mismatch","圆","p","true","圆"
"","null","html-keynbutton-response","219","2.0.0","422374","3","<div class=""pb-14 text-7xl"">+</div>","null","fixation","","","","","",""
"","377","html-keynbutton-response","220","2.0.0","422751","3","<div class=""flex flex-row stim-length pb-8 md:pd-20 justify-evenly items-center""><div class=""circle""></div><div class=""square""></div><div class=""circle""></div></div>","q","","shape_test_1","mismatch","方","q","true","方"
"","null","html-keynbutton-response","221","2.0.0","423253","3","<div class=""pb-14 text-7xl"">+</div>","null","fixation","","","","","",""
"","330","html-keynbutton-response","222","2.0.0","423584","3","<div class=""flex flex-row stim-length pb-8 md:pd-20 justify-evenly items-center""><div class=""square""></div><div class=""circle""></div><div class=""square""></div></div>","p","","shape_test_1","mismatch","圆","p","true","圆"
"","null","html-keynbutton-response","223","2.0.0","424087","3","<div class=""pb-14 text-7xl"">+</div>","null","fixation","","","","","",""
"","524","html-keynbutton-response","224","2.0.0","424612","3","<div class=""flex flex-row stim-length pb-8 md:pd-20 justify-evenly items-center""><div class=""circle""></div><div class=""square""></div><div class=""circle""></div></div>","q","","shape_test_1","mismatch","方","q","true","方"
"","null","html-keynbutton-response","225","2.0.0","425117","3","<div class=""pb-14 text-7xl"">+</div>","null","fixation","","","","","",""
"","363","html-keynbutton-response","226","2.0.0","425480","3","<div class=""flex flex-row stim-length pb-8 md:pd-20 justify-evenly items-center""><div class=""square""></div><div class=""square""></div><div class=""square""></div></div>","q","","shape_test_1","match","方","q","true","方"
"","null","html-keynbutton-response","227","2.0.0","425987","3","<div class=""pb-14 text-7xl"">+</div>","null","fixation","","","","","",""
"","319","html-keynbutton-response","228","2.0.0","426307","3","<div class=""flex flex-row stim-length pb-8 md:pd-20 justify-evenly items-center""><div class=""circle""></div><div class=""circle""></div><div class=""circle""></div></div>","q","","shape_test_1","match","圆","p","false","方"
"","3274","html-keynbutton-response","229","2.0.0","429584","3","<div class=""jp""><p>您已完成2/10部分</p><p>请休息一会儿</p>
    <p>您的正确率是：90%</p>
    <p>您的平均反应时间是：417毫秒</p></div>"," ","block_feedback","","","","","",""
"","null","html-keynbutton-response","230","2.0.0","432789","3","<count-down title=""""></count-down>","null","countDown_trial","","","","","",""
"","null","html-keynbutton-response","231","2.0.0","433304","3","<div class=""pb-14 text-7xl"">+</div>","null","fixation","","","","","",""
"","410","html-keynbutton-response","232","2.0.0","433715","3","<div class=""flex flex-row stim-length pb-8 md:pd-20 justify-evenly items-center""><div class=""circle""></div><div class=""circle""></div><div class=""circle""></div></div>","p","","shape_test_2","match","圆","p","true","圆"
"","null","html-keynbutton-response","233","2.0.0","434221","3","<div class=""pb-14 text-7xl"">+</div>","null","fixation","","","","","",""
"","411","html-keynbutton-response","234","2.0.0","434633","3","<div class=""flex flex-row stim-length pb-8 md:pd-20 justify-evenly items-center""><div class=""square""></div><div class=""square""></div><div class=""square""></div></div>","q","","shape_test_2","match","方","q","true","方"
"","null","html-keynbutton-response","235","2.0.0","435148","3","<div class=""pb-14 text-7xl"">+</div>","null","fixation","","","","","",""
"","434","html-keynbutton-response","236","2.0.0","435583","3","<div class=""flex flex-row stim-length pb-8 md:pd-20 justify-evenly items-center""><div class=""square""></div><div class=""circle""></div><div class=""square""></div></div>","p","","shape_test_2","mismatch","圆","p","true","圆"
"","null","html-keynbutton-response","237","2.0.0","436090","3","<div class=""pb-14 text-7xl"">+</div>","null","fixation","","","","","",""
"","378","html-keynbutton-response","238","2.0.0","436468","3","<div class=""flex flex-row stim-length pb-8 md:pd-20 justify-evenly items-center""><div class=""circle""></div><div class=""square""></div><div class=""circle""></div></div>","q","","shape_test_2","mismatch","方","q","true","方"
"","null","html-keynbutton-response","239","2.0.0","436973","3","<div class=""pb-14 text-7xl"">+</div>","null","fixation","","","","","",""
"","360","html-keynbutton-response","240","2.0.0","437334","3","<div class=""flex flex-row stim-length pb-8 md:pd-20 justify-evenly items-center""><div class=""square""></div><div class=""square""></div><div class=""square""></div></div>","q","","shape_test_2","match","方","q","true","方"
"","null","html-keynbutton-response","241","2.0.0","437850","3","<div class=""pb-14 text-7xl"">+</div>","null","fixation","","","","","",""
"","384","html-keynbutton-response","242","2.0.0","438235","3","<div class=""flex flex-row stim-length pb-8 md:pd-20 justify-evenly items-center""><div class=""circle""></div><div class=""square""></div><div class=""circle""></div></div>","q","","shape_test_2","mismatch","方","q","true","方"
"","null","html-keynbutton-response","243","2.0.0","438751","3","<div class=""pb-14 text-7xl"">+</div>","null","fixation","","","","","",""
"","366","html-keynbutton-response","244","2.0.0","439118","3","<div class=""flex flex-row stim-length pb-8 md:pd-20 justify-evenly items-center""><div class=""circle""></div><div class=""circle""></div><div class=""circle""></div></div>","p","","shape_test_2","match","圆","p","true","圆"
"","null","html-keynbutton-response","245","2.0.0","439624","3","<div class=""pb-14 text-7xl"">+</div>","null","fixation","","","","","",""
"","434","html-keynbutton-response","246","2.0.0","440059","3","<div class=""flex flex-row stim-length pb-8 md:pd-20 justify-evenly items-center""><div class=""square""></div><div class=""circle""></div><div class=""square""></div></div>","p","","shape_test_2","mismatch","圆","p","true","圆"
"","null","html-keynbutton-response","247","2.0.0","440572","3","<div class=""pb-14 text-7xl"">+</div>","null","fixation","","","","","",""
"","383","html-keynbutton-response","248","2.0.0","440948","3","<div class=""flex flex-row stim-length pb-8 md:pd-20 justify-evenly items-center""><div class=""circle""></div><div class=""circle""></div><div class=""circle""></div></div>","p","","shape_test_2","match","圆","p","true","圆"
"","null","html-keynbutton-response","249","2.0.0","441463","3","<div class=""pb-14 text-7xl"">+</div>","null","fixation","","","","","",""
"","415","html-keynbutton-response","250","2.0.0","441879","3","<div class=""flex flex-row stim-length pb-8 md:pd-20 justify-evenly items-center""><div class=""square""></div><div class=""circle""></div><div class=""square""></div></div>","p","","shape_test_2","mismatch","圆","p","true","圆"
"","null","html-keynbutton-response","251","2.0.0","442391","3","<div class=""pb-14 text-7xl"">+</div>","null","fixation","","","","","",""
"","345","html-keynbutton-response","252","2.0.0","442736","3","<div class=""flex flex-row stim-length pb-8 md:pd-20 justify-evenly items-center""><div class=""square""></div><div class=""square""></div><div class=""square""></div></div>","q","","shape_test_2","match","方","q","true","方"
"","null","html-keynbutton-response","253","2.0.0","443246","3","<div class=""pb-14 text-7xl"">+</div>","null","fixation","","","","","",""
"","282","html-keynbutton-response","254","2.0.0","443529","3","<div class=""flex flex-row stim-length pb-8 md:pd-20 justify-evenly items-center""><div class=""circle""></div><div class=""square""></div><div class=""circle""></div></div>","q","","shape_test_2","mismatch","方","q","true","方"
"","null","html-keynbutton-response","255","2.0.0","444034","3","<div class=""pb-14 text-7xl"">+</div>","null","fixation","","","","","",""
"","315","html-keynbutton-response","256","2.0.0","444350","3","<div class=""flex flex-row stim-length pb-8 md:pd-20 justify-evenly items-center""><div class=""square""></div><div class=""circle""></div><div class=""square""></div></div>","p","","shape_test_2","mismatch","圆","p","true","圆"
"","null","html-keynbutton-response","257","2.0.0","444859","3","<div class=""pb-14 text-7xl"">+</div>","null","fixation","","","","","",""
"","334","html-keynbutton-response","258","2.0.0","445194","3","<div class=""flex flex-row stim-length pb-8 md:pd-20 justify-evenly items-center""><div class=""square""></div><div class=""square""></div><div class=""square""></div></div>","q","","shape_test_2","match","方","q","true","方"
"","null","html-keynbutton-response","259","2.0.0","445696","3","<div class=""pb-14 text-7xl"">+</div>","null","fixation","","","","","",""
"","297","html-keynbutton-response","260","2.0.0","445993","3","<div class=""flex flex-row stim-length pb-8 md:pd-20 justify-evenly items-center""><div class=""circle""></div><div class=""square""></div><div class=""circle""></div></div>","q","","shape_test_2","mismatch","方","q","true","方"
"","null","html-keynbutton-response","261","2.0.0","446498","3","<div class=""pb-14 text-7xl"">+</div>","null","fixation","","","","","",""
"","375","html-keynbutton-response","262","2.0.0","446874","3","<div class=""flex flex-row stim-length pb-8 md:pd-20 justify-evenly items-center""><div class=""circle""></div><div class=""circle""></div><div class=""circle""></div></div>","p","","shape_test_2","match","圆","p","true","圆"
"","null","html-keynbutton-response","263","2.0.0","447389","3","<div class=""pb-14 text-7xl"">+</div>","null","fixation","","","","","",""
"","310","html-keynbutton-response","264","2.0.0","447700","3","<div class=""flex flex-row stim-length pb-8 md:pd-20 justify-evenly items-center""><div class=""circle""></div><div class=""square""></div><div class=""circle""></div></div>","q","","shape_test_2","mismatch","方","q","true","方"
"","null","html-keynbutton-response","265","2.0.0","448215","3","<div class=""pb-14 text-7xl"">+</div>","null","fixation","","","","","",""
"","439","html-keynbutton-response","266","2.0.0","448655","3","<div class=""flex flex-row stim-length pb-8 md:pd-20 justify-evenly items-center""><div class=""square""></div><div class=""circle""></div><div class=""square""></div></div>","p","","shape_test_2","mismatch","圆","p","true","圆"
"","null","html-keynbutton-response","267","2.0.0","449157","3","<div class=""pb-14 text-7xl"">+</div>","null","fixation","","","","","",""
"","414","html-keynbutton-response","268","2.0.0","449571","3","<div class=""flex flex-row stim-length pb-8 md:pd-20 justify-evenly items-center""><div class=""circle""></div><div class=""circle""></div><div class=""circle""></div></div>","p","","shape_test_2","match","圆","p","true","圆"
"","null","html-keynbutton-response","269","2.0.0","450073","3","<div class=""pb-14 text-7xl"">+</div>","null","fixation","","","","","",""
"","464","html-keynbutton-response","270","2.0.0","450538","3","<div class=""flex flex-row stim-length pb-8 md:pd-20 justify-evenly items-center""><div class=""square""></div><div class=""square""></div><div class=""square""></div></div>","q","","shape_test_2","match","方","q","true","方"
"","null","html-keynbutton-response","271","2.0.0","451048","3","<div class=""pb-14 text-7xl"">+</div>","null","fixation","","","","","",""
"","391","html-keynbutton-response","272","2.0.0","451440","3","<div class=""flex flex-row stim-length pb-8 md:pd-20 justify-evenly items-center""><div class=""circle""></div><div class=""square""></div><div class=""circle""></div></div>","q","","shape_test_2","mismatch","方","q","true","方"
"","null","html-keynbutton-response","273","2.0.0","451947","3","<div class=""pb-14 text-7xl"">+</div>","null","fixation","","","","","",""
"","471","html-keynbutton-response","274","2.0.0","452418","3","<div class=""flex flex-row stim-length pb-8 md:pd-20 justify-evenly items-center""><div class=""circle""></div><div class=""circle""></div><div class=""circle""></div></div>","p","","shape_test_2","match","圆","p","true","圆"
"","null","html-keynbutton-response","275","2.0.0","452930","3","<div class=""pb-14 text-7xl"">+</div>","null","fixation","","","","","",""
"","368","html-keynbutton-response","276","2.0.0","453299","3","<div class=""flex flex-row stim-length pb-8 md:pd-20 justify-evenly items-center""><div class=""square""></div><div class=""square""></div><div class=""square""></div></div>","q","","shape_test_2","match","方","q","true","方"
"","null","html-keynbutton-response","277","2.0.0","453814","3","<div class=""pb-14 text-7xl"">+</div>","null","fixation","","","","","",""
"","508","html-keynbutton-response","278","2.0.0","454323","3","<div class=""flex flex-row stim-length pb-8 md:pd-20 justify-evenly items-center""><div class=""square""></div><div class=""circle""></div><div class=""square""></div></div>","q","","shape_test_2","mismatch","圆","p","false","方"
"","null","html-keynbutton-response","279","2.0.0","454826","3","<div class=""pb-14 text-7xl"">+</div>","null","fixation","","","","","",""
"","498","html-keynbutton-response","280","2.0.0","455325","3","<div class=""flex flex-row stim-length pb-8 md:pd-20 justify-evenly items-center""><div class=""square""></div><div class=""square""></div><div class=""square""></div></div>","q","","shape_test_2","match","方","q","true","方"
"","null","html-keynbutton-response","281","2.0.0","455832","3","<div class=""pb-14 text-7xl"">+</div>","null","fixation","","","","","",""
"","426","html-keynbutton-response","282","2.0.0","456259","3","<div class=""flex flex-row stim-length pb-8 md:pd-20 justify-evenly items-center""><div class=""square""></div><div class=""circle""></div><div class=""square""></div></div>","p","","shape_test_2","mismatch","圆","p","true","圆"
"","null","html-keynbutton-response","283","2.0.0","456766","3","<div class=""pb-14 text-7xl"">+</div>","null","fixation","","","","","",""
"","398","html-keynbutton-response","284","2.0.0","457164","3","<div class=""flex flex-row stim-length pb-8 md:pd-20 justify-evenly items-center""><div class=""circle""></div><div class=""square""></div><div class=""circle""></div></div>","q","","shape_test_2","mismatch","方","q","true","方"
"","null","html-keynbutton-response","285","2.0.0","457673","3","<div class=""pb-14 text-7xl"">+</div>","null","fixation","","","","","",""
"","426","html-keynbutton-response","286","2.0.0","458100","3","<div class=""flex flex-row stim-length pb-8 md:pd-20 justify-evenly items-center""><div class=""circle""></div><div class=""circle""></div><div class=""circle""></div></div>","p","","shape_test_2","match","圆","p","true","圆"
"","null","html-keynbutton-response","287","2.0.0","458609","3","<div class=""pb-14 text-7xl"">+</div>","null","fixation","","","","","",""
"","415","html-keynbutton-response","288","2.0.0","459025","3","<div class=""flex flex-row stim-length pb-8 md:pd-20 justify-evenly items-center""><div class=""square""></div><div class=""circle""></div><div class=""square""></div></div>","p","","shape_test_2","mismatch","圆","p","true","圆"
"","null","html-keynbutton-response","289","2.0.0","459529","3","<div class=""pb-14 text-7xl"">+</div>","null","fixation","","","","","",""
"","301","html-keynbutton-response","290","2.0.0","459830","3","<div class=""flex flex-row stim-length pb-8 md:pd-20 justify-evenly items-center""><div class=""square""></div><div class=""square""></div><div class=""square""></div></div>","q","","shape_test_2","match","方","q","true","方"
"","null","html-keynbutton-response","291","2.0.0","460344","3","<div class=""pb-14 text-7xl"">+</div>","null","fixation","","","","","",""
"","296","html-keynbutton-response","292","2.0.0","460641","3","<div class=""flex flex-row stim-length pb-8 md:pd-20 justify-evenly items-center""><div class=""circle""></div><div class=""circle""></div><div class=""circle""></div></div>","p","","shape_test_2","match","圆","p","true","圆"
"","null","html-keynbutton-response","293","2.0.0","461147","3","<div class=""pb-14 text-7xl"">+</div>","null","fixation","","","","","",""
"","362","html-keynbutton-response","294","2.0.0","461509","3","<div class=""flex flex-row stim-length pb-8 md:pd-20 justify-evenly items-center""><div class=""circle""></div><div class=""square""></div><div class=""circle""></div></div>","q","","shape_test_2","mismatch","方","q","true","方"
"","null","html-keynbutton-response","295","2.0.0","462013","3","<div class=""pb-14 text-7xl"">+</div>","null","fixation","","","","","",""
"","420","html-keynbutton-response","296","2.0.0","462433","3","<div class=""flex flex-row stim-length pb-8 md:pd-20 justify-evenly items-center""><div class=""circle""></div><div class=""circle""></div><div class=""circle""></div></div>","p","","shape_test_2","match","圆","p","true","圆"
"","null","html-keynbutton-response","297","2.0.0","462948","3","<div class=""pb-14 text-7xl"">+</div>","null","fixation","","","","","",""
"","390","html-keynbutton-response","298","2.0.0","463340","3","<div class=""flex flex-row stim-length pb-8 md:pd-20 justify-evenly items-center""><div class=""circle""></div><div class=""square""></div><div class=""circle""></div></div>","q","","shape_test_2","mismatch","方","q","true","方"
"","null","html-keynbutton-response","299","2.0.0","463846","3","<div class=""pb-14 text-7xl"">+</div>","null","fixation","","","","","",""
"","313","html-keynbutton-response","300","2.0.0","464160","3","<div class=""flex flex-row stim-length pb-8 md:pd-20 justify-evenly items-center""><div class=""square""></div><div class=""square""></div><div class=""square""></div></div>","p","","shape_test_2","match","方","q","false","圆"
"","null","html-keynbutton-response","301","2.0.0","464661","3","<div class=""pb-14 text-7xl"">+</div>","null","fixation","","","","","",""
"","306","html-keynbutton-response","302","2.0.0","464968","3","<div class=""flex flex-row stim-length pb-8 md:pd-20 justify-evenly items-center""><div class=""square""></div><div class=""circle""></div><div class=""square""></div></div>","p","","shape_test_2","mismatch","圆","p","true","圆"
"","null","html-keynbutton-response","303","2.0.0","465477","3","<div class=""pb-14 text-7xl"">+</div>","null","fixation","","","","","",""
"","334","html-keynbutton-response","304","2.0.0","465811","3","<div class=""flex flex-row stim-length pb-8 md:pd-20 justify-evenly items-center""><div class=""square""></div><div class=""square""></div><div class=""square""></div></div>","q","","shape_test_2","match","方","q","true","方"
"","null","html-keynbutton-response","305","2.0.0","466313","3","<div class=""pb-14 text-7xl"">+</div>","null","fixation","","","","","",""
"","383","html-keynbutton-response","306","2.0.0","466696","3","<div class=""flex flex-row stim-length pb-8 md:pd-20 justify-evenly items-center""><div class=""circle""></div><div class=""square""></div><div class=""circle""></div></div>","q","","shape_test_2","mismatch","方","q","true","方"
"","null","html-keynbutton-response","307","2.0.0","467209","3","<div class=""pb-14 text-7xl"">+</div>","null","fixation","","","","","",""
"","441","html-keynbutton-response","308","2.0.0","467651","3","<div class=""flex flex-row stim-length pb-8 md:pd-20 justify-evenly items-center""><div class=""circle""></div><div class=""circle""></div><div class=""circle""></div></div>","q","","shape_test_2","match","圆","p","false","方"
"","null","html-keynbutton-response","309","2.0.0","468166","3","<div class=""pb-14 text-7xl"">+</div>","null","fixation","","","","","",""
"","576","html-keynbutton-response","310","2.0.0","468742","3","<div class=""flex flex-row stim-length pb-8 md:pd-20 justify-evenly items-center""><div class=""square""></div><div class=""circle""></div><div class=""square""></div></div>","p","","shape_test_2","mismatch","圆","p","true","圆"
"","4178","html-keynbutton-response","311","2.0.0","472922","3","<div class=""jp""><p>您已完成3/10部分</p><p>请休息一会儿</p>
    <p>您的正确率是：93%</p>
    <p>您的平均反应时间是：389毫秒</p></div>"," ","block_feedback","","","","","",""
"","null","html-keynbutton-response","312","2.0.0","476130","3","<count-down title=""""></count-down>","null","countDown_trial","","","","","",""
"","null","html-keynbutton-response","313","2.0.0","476648","3","<div class=""pb-14 text-7xl"">+</div>","null","fixation","","","","","",""
"","533","html-keynbutton-response","314","2.0.0","477182","3","<div class=""flex flex-row stim-length pb-8 md:pd-20 justify-evenly items-center""><div class=""square""></div><div class=""square""></div><div class=""square""></div></div>","q","","shape_test_3","match","方","q","true","方"
"","null","html-keynbutton-response","315","2.0.0","477695","3","<div class=""pb-14 text-7xl"">+</div>","null","fixation","","","","","",""
"","384","html-keynbutton-response","316","2.0.0","478080","3","<div class=""flex flex-row stim-length pb-8 md:pd-20 justify-evenly items-center""><div class=""square""></div><div class=""circle""></div><div class=""square""></div></div>","p","","shape_test_3","mismatch","圆","p","true","圆"
"","null","html-keynbutton-response","317","2.0.0","478596","3","<div class=""pb-14 text-7xl"">+</div>","null","fixation","","","","","",""
"","423","html-keynbutton-response","318","2.0.0","479019","3","<div class=""flex flex-row stim-length pb-8 md:pd-20 justify-evenly items-center""><div class=""circle""></div><div class=""circle""></div><div class=""circle""></div></div>","p","","shape_test_3","match","圆","p","true","圆"
"","null","html-keynbutton-response","319","2.0.0","479522","3","<div class=""pb-14 text-7xl"">+</div>","null","fixation","","","","","",""
"","334","html-keynbutton-response","320","2.0.0","479857","3","<div class=""flex flex-row stim-length pb-8 md:pd-20 justify-evenly items-center""><div class=""circle""></div><div class=""square""></div><div class=""circle""></div></div>","q","","shape_test_3","mismatch","方","q","true","方"
"","null","html-keynbutton-response","321","2.0.0","480363","3","<div class=""pb-14 text-7xl"">+</div>","null","fixation","","","","","",""
"","381","html-keynbutton-response","322","2.0.0","480745","3","<div class=""flex flex-row stim-length pb-8 md:pd-20 justify-evenly items-center""><div class=""square""></div><div class=""square""></div><div class=""square""></div></div>","q","","shape_test_3","match","方","q","true","方"
"","null","html-keynbutton-response","323","2.0.0","481260","3","<div class=""pb-14 text-7xl"">+</div>","null","fixation","","","","","",""
"","371","html-keynbutton-response","324","2.0.0","481632","3","<div class=""flex flex-row stim-length pb-8 md:pd-20 justify-evenly items-center""><div class=""square""></div><div class=""circle""></div><div class=""square""></div></div>","p","","shape_test_3","mismatch","圆","p","true","圆"
"","null","html-keynbutton-response","325","2.0.0","482142","3","<div class=""pb-14 text-7xl"">+</div>","null","fixation","","","","","",""
"","637","html-keynbutton-response","326","2.0.0","482780","3","<div class=""flex flex-row stim-length pb-8 md:pd-20 justify-evenly items-center""><div class=""circle""></div><div class=""square""></div><div class=""circle""></div></div>","q","","shape_test_3","mismatch","方","q","true","方"
"","null","html-keynbutton-response","327","2.0.0","483295","3","<div class=""pb-14 text-7xl"">+</div>","null","fixation","","","","","",""
"","340","html-keynbutton-response","328","2.0.0","483636","3","<div class=""flex flex-row stim-length pb-8 md:pd-20 justify-evenly items-center""><div class=""circle""></div><div class=""circle""></div><div class=""circle""></div></div>","p","","shape_test_3","match","圆","p","true","圆"
"","null","html-keynbutton-response","329","2.0.0","484144","3","<div class=""pb-14 text-7xl"">+</div>","null","fixation","","","","","",""
"","396","html-keynbutton-response","330","2.0.0","484541","3","<div class=""flex flex-row stim-length pb-8 md:pd-20 justify-evenly items-center""><div class=""circle""></div><div class=""square""></div><div class=""circle""></div></div>","q","","shape_test_3","mismatch","方","q","true","方"
"","null","html-keynbutton-response","331","2.0.0","485045","3","<div class=""pb-14 text-7xl"">+</div>","null","fixation","","","","","",""
"","354","html-keynbutton-response","332","2.0.0","485400","3","<div class=""flex flex-row stim-length pb-8 md:pd-20 justify-evenly items-center""><div class=""circle""></div><div class=""circle""></div><div class=""circle""></div></div>","p","","shape_test_3","match","圆","p","true","圆"
"","null","html-keynbutton-response","333","2.0.0","485913","3","<div class=""pb-14 text-7xl"">+</div>","null","fixation","","","","","",""
"","404","html-keynbutton-response","334","2.0.0","486317","3","<div class=""flex flex-row stim-length pb-8 md:pd-20 justify-evenly items-center""><div class=""square""></div><div class=""circle""></div><div class=""square""></div></div>","q","","shape_test_3","mismatch","圆","p","false","方"
"","null","html-keynbutton-response","335","2.0.0","486826","3","<div class=""pb-14 text-7xl"">+</div>","null","fixation","","","","","",""
"","333","html-keynbutton-response","336","2.0.0","487160","3","<div class=""flex flex-row stim-length pb-8 md:pd-20 justify-evenly items-center""><div class=""square""></div><div class=""square""></div><div class=""square""></div></div>","q","","shape_test_3","match","方","q","true","方"
"","null","html-keynbutton-response","337","2.0.0","487663","3","<div class=""pb-14 text-7xl"">+</div>","null","fixation","","","","","",""
"","478","html-keynbutton-response","338","2.0.0","488142","3","<div class=""flex flex-row stim-length pb-8 md:pd-20 justify-evenly items-center""><div class=""square""></div><div class=""square""></div><div class=""square""></div></div>","q","","shape_test_3","match","方","q","true","方"
"","null","html-keynbutton-response","339","2.0.0","488648","3","<div class=""pb-14 text-7xl"">+</div>","null","fixation","","","","","",""
"","374","html-keynbutton-response","340","2.0.0","489023","3","<div class=""flex flex-row stim-length pb-8 md:pd-20 justify-evenly items-center""><div class=""square""></div><div class=""circle""></div><div class=""square""></div></div>","p","","shape_test_3","mismatch","圆","p","true","圆"
"","null","html-keynbutton-response","341","2.0.0","489524","3","<div class=""pb-14 text-7xl"">+</div>","null","fixation","","","","","",""
"","432","html-keynbutton-response","342","2.0.0","489957","3","<div class=""flex flex-row stim-length pb-8 md:pd-20 justify-evenly items-center""><div class=""circle""></div><div class=""square""></div><div class=""circle""></div></div>","q","","shape_test_3","mismatch","方","q","true","方"
"","null","html-keynbutton-response","343","2.0.0","490463","3","<div class=""pb-14 text-7xl"">+</div>","null","fixation","","","","","",""
"","421","html-keynbutton-response","344","2.0.0","490885","3","<div class=""flex flex-row stim-length pb-8 md:pd-20 justify-evenly items-center""><div class=""circle""></div><div class=""circle""></div><div class=""circle""></div></div>","q","","shape_test_3","match","圆","p","false","方"
"","null","html-keynbutton-response","345","2.0.0","491398","3","<div class=""pb-14 text-7xl"">+</div>","null","fixation","","","","","",""
"","446","html-keynbutton-response","346","2.0.0","491845","3","<div class=""flex flex-row stim-length pb-8 md:pd-20 justify-evenly items-center""><div class=""square""></div><div class=""circle""></div><div class=""square""></div></div>","p","","shape_test_3","mismatch","圆","p","true","圆"
"","null","html-keynbutton-response","347","2.0.0","492360","3","<div class=""pb-14 text-7xl"">+</div>","null","fixation","","","","","",""
"","465","html-keynbutton-response","348","2.0.0","492826","3","<div class=""flex flex-row stim-length pb-8 md:pd-20 justify-evenly items-center""><div class=""circle""></div><div class=""square""></div><div class=""circle""></div></div>","q","","shape_test_3","mismatch","方","q","true","方"
"","null","html-keynbutton-response","349","2.0.0","493332","3","<div class=""pb-14 text-7xl"">+</div>","null","fixation","","","","","",""
"","452","html-keynbutton-response","350","2.0.0","493785","3","<div class=""flex flex-row stim-length pb-8 md:pd-20 justify-evenly items-center""><div class=""square""></div><div class=""square""></div><div class=""square""></div></div>","q","","shape_test_3","match","方","q","true","方"
"","null","html-keynbutton-response","351","2.0.0","494296","3","<div class=""pb-14 text-7xl"">+</div>","null","fixation","","","","","",""
"","458","html-keynbutton-response","352","2.0.0","494754","3","<div class=""flex flex-row stim-length pb-8 md:pd-20 justify-evenly items-center""><div class=""circle""></div><div class=""circle""></div><div class=""circle""></div></div>","p","","shape_test_3","match","圆","p","true","圆"
"","null","html-keynbutton-response","353","2.0.0","495262","3","<div class=""pb-14 text-7xl"">+</div>","null","fixation","","","","","",""
"","452","html-keynbutton-response","354","2.0.0","495714","3","<div class=""flex flex-row stim-length pb-8 md:pd-20 justify-evenly items-center""><div class=""circle""></div><div class=""circle""></div><div class=""circle""></div></div>","p","","shape_test_3","match","圆","p","true","圆"
"","null","html-keynbutton-response","355","2.0.0","496216","3","<div class=""pb-14 text-7xl"">+</div>","null","fixation","","","","","",""
"","383","html-keynbutton-response","356","2.0.0","496600","3","<div class=""flex flex-row stim-length pb-8 md:pd-20 justify-evenly items-center""><div class=""square""></div><div class=""square""></div><div class=""square""></div></div>","q","","shape_test_3","match","方","q","true","方"
"","null","html-keynbutton-response","357","2.0.0","497106","3","<div class=""pb-14 text-7xl"">+</div>","null","fixation","","","","","",""
"","640","html-keynbutton-response","358","2.0.0","497748","3","<div class=""flex flex-row stim-length pb-8 md:pd-20 justify-evenly items-center""><div class=""circle""></div><div class=""square""></div><div class=""circle""></div></div>","q","","shape_test_3","mismatch","方","q","true","方"
"","null","html-keynbutton-response","359","2.0.0","498264","3","<div class=""pb-14 text-7xl"">+</div>","null","fixation","","","","","",""
"","456","html-keynbutton-response","360","2.0.0","498720","3","<div class=""flex flex-row stim-length pb-8 md:pd-20 justify-evenly items-center""><div class=""square""></div><div class=""circle""></div><div class=""square""></div></div>","p","","shape_test_3","mismatch","圆","p","true","圆"
"","null","html-keynbutton-response","361","2.0.0","499227","3","<div class=""pb-14 text-7xl"">+</div>","null","fixation","","","","","",""
"","399","html-keynbutton-response","362","2.0.0","499627","3","<div class=""flex flex-row stim-length pb-8 md:pd-20 justify-evenly items-center""><div class=""square""></div><div class=""circle""></div><div class=""square""></div></div>","p","","shape_test_3","mismatch","圆","p","true","圆"
"","null","html-keynbutton-response","363","2.0.0","500145","3","<div class=""pb-14 text-7xl"">+</div>","null","fixation","","","","","",""
"","491","html-keynbutton-response","364","2.0.0","500637","3","<div class=""flex flex-row stim-length pb-8 md:pd-20 justify-evenly items-center""><div class=""circle""></div><div class=""circle""></div><div class=""circle""></div></div>","p","","shape_test_3","match","圆","p","true","圆"
"","null","html-keynbutton-response","365","2.0.0","501151","3","<div class=""pb-14 text-7xl"">+</div>","null","fixation","","","","","",""
"","393","html-keynbutton-response","366","2.0.0","501545","3","<div class=""flex flex-row stim-length pb-8 md:pd-20 justify-evenly items-center""><div class=""circle""></div><div class=""square""></div><div class=""circle""></div></div>","q","","shape_test_3","mismatch","方","q","true","方"
"","null","html-keynbutton-response","367","2.0.0","502048","3","<div class=""pb-14 text-7xl"">+</div>","null","fixation","","","","","",""
"","542","html-keynbutton-response","368","2.0.0","502591","3","<div class=""flex flex-row stim-length pb-8 md:pd-20 justify-evenly items-center""><div class=""square""></div><div class=""square""></div><div class=""square""></div></div>","p","","shape_test_3","match","方","q","false","圆"
"","null","html-keynbutton-response","369","2.0.0","503104","3","<div class=""pb-14 text-7xl"">+</div>","null","fixation","","","","","",""
"","496","html-keynbutton-response","370","2.0.0","503601","3","<div class=""flex flex-row stim-length pb-8 md:pd-20 justify-evenly items-center""><div class=""circle""></div><div class=""circle""></div><div class=""circle""></div></div>","p","","shape_test_3","match","圆","p","true","圆"
"","null","html-keynbutton-response","371","2.0.0","504105","3","<div class=""pb-14 text-7xl"">+</div>","null","fixation","","","","","",""
"","470","html-keynbutton-response","372","2.0.0","504576","3","<div class=""flex flex-row stim-length pb-8 md:pd-20 justify-evenly items-center""><div class=""square""></div><div class=""circle""></div><div class=""square""></div></div>","p","","shape_test_3","mismatch","圆","p","true","圆"
"","null","html-keynbutton-response","373","2.0.0","505089","3","<div class=""pb-14 text-7xl"">+</div>","null","fixation","","","","","",""
"","501","html-keynbutton-response","374","2.0.0","505591","3","<div class=""flex flex-row stim-length pb-8 md:pd-20 justify-evenly items-center""><div class=""circle""></div><div class=""square""></div><div class=""circle""></div></div>","q","","shape_test_3","mismatch","方","q","true","方"
"","null","html-keynbutton-response","375","2.0.0","506106","3","<div class=""pb-14 text-7xl"">+</div>","null","fixation","","","","","",""
"","405","html-keynbutton-response","376","2.0.0","506512","3","<div class=""flex flex-row stim-length pb-8 md:pd-20 justify-evenly items-center""><div class=""square""></div><div class=""square""></div><div class=""square""></div></div>","q","","shape_test_3","match","方","q","true","方"
"","null","html-keynbutton-response","377","2.0.0","507017","3","<div class=""pb-14 text-7xl"">+</div>","null","fixation","","","","","",""
"","413","html-keynbutton-response","378","2.0.0","507430","3","<div class=""flex flex-row stim-length pb-8 md:pd-20 justify-evenly items-center""><div class=""square""></div><div class=""square""></div><div class=""square""></div></div>","q","","shape_test_3","match","方","q","true","方"
"","null","html-keynbutton-response","379","2.0.0","507939","3","<div class=""pb-14 text-7xl"">+</div>","null","fixation","","","","","",""
"","438","html-keynbutton-response","380","2.0.0","508378","3","<div class=""flex flex-row stim-length pb-8 md:pd-20 justify-evenly items-center""><div class=""square""></div><div class=""circle""></div><div class=""square""></div></div>","p","","shape_test_3","mismatch","圆","p","true","圆"
"","null","html-keynbutton-response","381","2.0.0","508887","3","<div class=""pb-14 text-7xl"">+</div>","null","fixation","","","","","",""
"","454","html-keynbutton-response","382","2.0.0","509342","3","<div class=""flex flex-row stim-length pb-8 md:pd-20 justify-evenly items-center""><div class=""circle""></div><div class=""circle""></div><div class=""circle""></div></div>","p","","shape_test_3","match","圆","p","true","圆"
"","null","html-keynbutton-response","383","2.0.0","509850","3","<div class=""pb-14 text-7xl"">+</div>","null","fixation","","","","","",""
"","464","html-keynbutton-response","384","2.0.0","510316","3","<div class=""flex flex-row stim-length pb-8 md:pd-20 justify-evenly items-center""><div class=""circle""></div><div class=""square""></div><div class=""circle""></div></div>","q","","shape_test_3","mismatch","方","q","true","方"
"","null","html-keynbutton-response","385","2.0.0","510822","3","<div class=""pb-14 text-7xl"">+</div>","null","fixation","","","","","",""
"","400","html-keynbutton-response","386","2.0.0","511223","3","<div class=""flex flex-row stim-length pb-8 md:pd-20 justify-evenly items-center""><div class=""square""></div><div class=""square""></div><div class=""square""></div></div>","q","","shape_test_3","match","方","q","true","方"
"","null","html-keynbutton-response","387","2.0.0","511733","3","<div class=""pb-14 text-7xl"">+</div>","null","fixation","","","","","",""
"","427","html-keynbutton-response","388","2.0.0","512160","3","<div class=""flex flex-row stim-length pb-8 md:pd-20 justify-evenly items-center""><div class=""circle""></div><div class=""square""></div><div class=""circle""></div></div>","q","","shape_test_3","mismatch","方","q","true","方"
"","null","html-keynbutton-response","389","2.0.0","512670","3","<div class=""pb-14 text-7xl"">+</div>","null","fixation","","","","","",""
"","391","html-keynbutton-response","390","2.0.0","513062","3","<div class=""flex flex-row stim-length pb-8 md:pd-20 justify-evenly items-center""><div class=""square""></div><div class=""circle""></div><div class=""square""></div></div>","p","","shape_test_3","mismatch","圆","p","true","圆"
"","null","html-keynbutton-response","391","2.0.0","513570","3","<div class=""pb-14 text-7xl"">+</div>","null","fixation","","","","","",""
"","447","html-keynbutton-response","392","2.0.0","514018","3","<div class=""flex flex-row stim-length pb-8 md:pd-20 justify-evenly items-center""><div class=""circle""></div><div class=""circle""></div><div class=""circle""></div></div>","p","","shape_test_3","match","圆","p","true","圆"
"","2574","html-keynbutton-response","393","2.0.0","516594","3","<div class=""jp""><p>您已完成4/10部分</p><p>请休息一会儿</p>
    <p>您的正确率是：93%</p>
    <p>您的平均反应时间是：437毫秒</p></div>"," ","block_feedback","","","","","",""
"","null","html-keynbutton-response","394","2.0.0","519804","3","<count-down title=""""></count-down>","null","countDown_trial","","","","","",""
"","null","html-keynbutton-response","395","2.0.0","520321","3","<div class=""pb-14 text-7xl"">+</div>","null","fixation","","","","","",""
"","506","html-keynbutton-response","396","2.0.0","520828","3","<div class=""flex flex-row stim-length pb-8 md:pd-20 justify-evenly items-center""><div class=""circle""></div><div class=""square""></div><div class=""circle""></div></div>","q","","shape_test_4","mismatch","方","q","true","方"
"","null","html-keynbutton-response","397","2.0.0","521337","3","<div class=""pb-14 text-7xl"">+</div>","null","fixation","","","","","",""
"","383","html-keynbutton-response","398","2.0.0","521721","3","<div class=""flex flex-row stim-length pb-8 md:pd-20 justify-evenly items-center""><div class=""square""></div><div class=""square""></div><div class=""square""></div></div>","q","","shape_test_4","match","方","q","true","方"
"","null","html-keynbutton-response","399","2.0.0","522234","3","<div class=""pb-14 text-7xl"">+</div>","null","fixation","","","","","",""
"","336","html-keynbutton-response","400","2.0.0","522571","3","<div class=""flex flex-row stim-length pb-8 md:pd-20 justify-evenly items-center""><div class=""square""></div><div class=""circle""></div><div class=""square""></div></div>","p","","shape_test_4","mismatch","圆","p","true","圆"
"","null","html-keynbutton-response","401","2.0.0","523086","3","<div class=""pb-14 text-7xl"">+</div>","null","fixation","","","","","",""
"","352","html-keynbutton-response","402","2.0.0","523439","3","<div class=""flex flex-row stim-length pb-8 md:pd-20 justify-evenly items-center""><div class=""circle""></div><div class=""circle""></div><div class=""circle""></div></div>","p","","shape_test_4","match","圆","p","true","圆"
"","null","html-keynbutton-response","403","2.0.0","523952","3","<div class=""pb-14 text-7xl"">+</div>","null","fixation","","","","","",""
"","385","html-keynbutton-response","404","2.0.0","524338","3","<div class=""flex flex-row stim-length pb-8 md:pd-20 justify-evenly items-center""><div class=""circle""></div><div class=""circle""></div><div class=""circle""></div></div>","p","","shape_test_4","match","圆","p","true","圆"
"","null","html-keynbutton-response","405","2.0.0","524852","3","<div class=""pb-14 text-7xl"">+</div>","null","fixation","","","","","",""
"","390","html-keynbutton-response","406","2.0.0","525243","3","<div class=""flex flex-row stim-length pb-8 md:pd-20 justify-evenly items-center""><div class=""square""></div><div class=""circle""></div><div class=""square""></div></div>","p","","shape_test_4","mismatch","圆","p","true","圆"
"","null","html-keynbutton-response","407","2.0.0","525751","3","<div class=""pb-14 text-7xl"">+</div>","null","fixation","","","","","",""
"","319","html-keynbutton-response","408","2.0.0","526071","3","<div class=""flex flex-row stim-length pb-8 md:pd-20 justify-evenly items-center""><div class=""square""></div><div class=""square""></div><div class=""square""></div></div>","q","","shape_test_4","match","方","q","true","方"
"","null","html-keynbutton-response","409","2.0.0","526582","3","<div class=""pb-14 text-7xl"">+</div>","null","fixation","","","","","",""
"","314","html-keynbutton-response","410","2.0.0","526896","3","<div class=""flex flex-row stim-length pb-8 md:pd-20 justify-evenly items-center""><div class=""circle""></div><div class=""square""></div><div class=""circle""></div></div>","q","","shape_test_4","mismatch","方","q","true","方"
"","null","html-keynbutton-response","411","2.0.0","527400","3","<div class=""pb-14 text-7xl"">+</div>","null","fixation","","","","","",""
"","308","html-keynbutton-response","412","2.0.0","527709","3","<div class=""flex flex-row stim-length pb-8 md:pd-20 justify-evenly items-center""><div class=""circle""></div><div class=""square""></div><div class=""circle""></div></div>","q","","shape_test_4","mismatch","方","q","true","方"
"","null","html-keynbutton-response","413","2.0.0","528218","3","<div class=""pb-14 text-7xl"">+</div>","null","fixation","","","","","",""
"","398","html-keynbutton-response","414","2.0.0","528616","3","<div class=""flex flex-row stim-length pb-8 md:pd-20 justify-evenly items-center""><div class=""circle""></div><div class=""circle""></div><div class=""circle""></div></div>","p","","shape_test_4","match","圆","p","true","圆"
"","null","html-keynbutton-response","415","2.0.0","529132","3","<div class=""pb-14 text-7xl"">+</div>","null","fixation","","","","","",""
"","399","html-keynbutton-response","416","2.0.0","529532","3","<div class=""flex flex-row stim-length pb-8 md:pd-20 justify-evenly items-center""><div class=""square""></div><div class=""circle""></div><div class=""square""></div></div>","p","","shape_test_4","mismatch","圆","p","true","圆"
"","null","html-keynbutton-response","417","2.0.0","530037","3","<div class=""pb-14 text-7xl"">+</div>","null","fixation","","","","","",""
"","397","html-keynbutton-response","418","2.0.0","530435","3","<div class=""flex flex-row stim-length pb-8 md:pd-20 justify-evenly items-center""><div class=""square""></div><div class=""square""></div><div class=""square""></div></div>","q","","shape_test_4","match","方","q","true","方"
"","null","html-keynbutton-response","419","2.0.0","530939","3","<div class=""pb-14 text-7xl"">+</div>","null","fixation","","","","","",""
"","442","html-keynbutton-response","420","2.0.0","531382","3","<div class=""flex flex-row stim-length pb-8 md:pd-20 justify-evenly items-center""><div class=""circle""></div><div class=""circle""></div><div class=""circle""></div></div>","p","","shape_test_4","match","圆","p","true","圆"
"","null","html-keynbutton-response","421","2.0.0","531896","3","<div class=""pb-14 text-7xl"">+</div>","null","fixation","","","","","",""
"","603","html-keynbutton-response","422","2.0.0","532501","3","<div class=""flex flex-row stim-length pb-8 md:pd-20 justify-evenly items-center""><div class=""circle""></div><div class=""square""></div><div class=""circle""></div></div>","q","","shape_test_4","mismatch","方","q","true","方"
"","null","html-keynbutton-response","423","2.0.0","533018","3","<div class=""pb-14 text-7xl"">+</div>","null","fixation","","","","","",""
"","516","html-keynbutton-response","424","2.0.0","533535","3","<div class=""flex flex-row stim-length pb-8 md:pd-20 justify-evenly items-center""><div class=""square""></div><div class=""square""></div><div class=""square""></div></div>","q","","shape_test_4","match","方","q","true","方"
"","null","html-keynbutton-response","425","2.0.0","534036","3","<div class=""pb-14 text-7xl"">+</div>","null","fixation","","","","","",""
"","420","html-keynbutton-response","426","2.0.0","534456","3","<div class=""flex flex-row stim-length pb-8 md:pd-20 justify-evenly items-center""><div class=""square""></div><div class=""circle""></div><div class=""square""></div></div>","p","","shape_test_4","mismatch","圆","p","true","圆"
"","null","html-keynbutton-response","427","2.0.0","534964","3","<div class=""pb-14 text-7xl"">+</div>","null","fixation","","","","","",""
"","390","html-keynbutton-response","428","2.0.0","535355","3","<div class=""flex flex-row stim-length pb-8 md:pd-20 justify-evenly items-center""><div class=""square""></div><div class=""circle""></div><div class=""square""></div></div>","p","","shape_test_4","mismatch","圆","p","true","圆"
"","null","html-keynbutton-response","429","2.0.0","535867","3","<div class=""pb-14 text-7xl"">+</div>","null","fixation","","","","","",""
"","438","html-keynbutton-response","430","2.0.0","536305","3","<div class=""flex flex-row stim-length pb-8 md:pd-20 justify-evenly items-center""><div class=""circle""></div><div class=""circle""></div><div class=""circle""></div></div>","p","","shape_test_4","match","圆","p","true","圆"
"","null","html-keynbutton-response","431","2.0.0","536815","3","<div class=""pb-14 text-7xl"">+</div>","null","fixation","","","","","",""
"","537","html-keynbutton-response","432","2.0.0","537353","3","<div class=""flex flex-row stim-length pb-8 md:pd-20 justify-evenly items-center""><div class=""circle""></div><div class=""square""></div><div class=""circle""></div></div>","q","","shape_test_4","mismatch","方","q","true","方"
"","null","html-keynbutton-response","433","2.0.0","537868","3","<div class=""pb-14 text-7xl"">+</div>","null","fixation","","","","","",""
"","523","html-keynbutton-response","434","2.0.0","538392","3","<div class=""flex flex-row stim-length pb-8 md:pd-20 justify-evenly items-center""><div class=""square""></div><div class=""square""></div><div class=""square""></div></div>","q","","shape_test_4","match","方","q","true","方"
"","null","html-keynbutton-response","435","2.0.0","538901","3","<div class=""pb-14 text-7xl"">+</div>","null","fixation","","","","","",""
"","587","html-keynbutton-response","436","2.0.0","539488","3","<div class=""flex flex-row stim-length pb-8 md:pd-20 justify-evenly items-center""><div class=""square""></div><div class=""square""></div><div class=""square""></div></div>","q","","shape_test_4","match","方","q","true","方"
"","null","html-keynbutton-response","437","2.0.0","539999","3","<div class=""pb-14 text-7xl"">+</div>","null","fixation","","","","","",""
"","458","html-keynbutton-response","438","2.0.0","540457","3","<div class=""flex flex-row stim-length pb-8 md:pd-20 justify-evenly items-center""><div class=""circle""></div><div class=""square""></div><div class=""circle""></div></div>","q","","shape_test_4","mismatch","方","q","true","方"
"","null","html-keynbutton-response","439","2.0.0","540969","3","<div class=""pb-14 text-7xl"">+</div>","null","fixation","","","","","",""
"","407","html-keynbutton-response","440","2.0.0","541376","3","<div class=""flex flex-row stim-length pb-8 md:pd-20 justify-evenly items-center""><div class=""circle""></div><div class=""circle""></div><div class=""circle""></div></div>","p","","shape_test_4","match","圆","p","true","圆"
"","null","html-keynbutton-response","441","2.0.0","541880","3","<div class=""pb-14 text-7xl"">+</div>","null","fixation","","","","","",""
"","381","html-keynbutton-response","442","2.0.0","542262","3","<div class=""flex flex-row stim-length pb-8 md:pd-20 justify-evenly items-center""><div class=""square""></div><div class=""circle""></div><div class=""square""></div></div>","p","","shape_test_4","mismatch","圆","p","true","圆"
"","null","html-keynbutton-response","443","2.0.0","542772","3","<div class=""pb-14 text-7xl"">+</div>","null","fixation","","","","","",""
"","410","html-keynbutton-response","444","2.0.0","543184","3","<div class=""flex flex-row stim-length pb-8 md:pd-20 justify-evenly items-center""><div class=""square""></div><div class=""square""></div><div class=""square""></div></div>","q","","shape_test_4","match","方","q","true","方"
"","null","html-keynbutton-response","445","2.0.0","543690","3","<div class=""pb-14 text-7xl"">+</div>","null","fixation","","","","","",""
"","400","html-keynbutton-response","446","2.0.0","544091","3","<div class=""flex flex-row stim-length pb-8 md:pd-20 justify-evenly items-center""><div class=""circle""></div><div class=""square""></div><div class=""circle""></div></div>","q","","shape_test_4","mismatch","方","q","true","方"
"","null","html-keynbutton-response","447","2.0.0","544601","3","<div class=""pb-14 text-7xl"">+</div>","null","fixation","","","","","",""
"","413","html-keynbutton-response","448","2.0.0","545015","3","<div class=""flex flex-row stim-length pb-8 md:pd-20 justify-evenly items-center""><div class=""square""></div><div class=""circle""></div><div class=""square""></div></div>","p","","shape_test_4","mismatch","圆","p","true","圆"
"","null","html-keynbutton-response","449","2.0.0","545518","3","<div class=""pb-14 text-7xl"">+</div>","null","fixation","","","","","",""
"","332","html-keynbutton-response","450","2.0.0","545851","3","<div class=""flex flex-row stim-length pb-8 md:pd-20 justify-evenly items-center""><div class=""circle""></div><div class=""circle""></div><div class=""circle""></div></div>","p","","shape_test_4","match","圆","p","true","圆"
"","null","html-keynbutton-response","451","2.0.0","546367","3","<div class=""pb-14 text-7xl"">+</div>","null","fixation","","","","","",""
"","409","html-keynbutton-response","452","2.0.0","546776","3","<div class=""flex flex-row stim-length pb-8 md:pd-20 justify-evenly items-center""><div class=""square""></div><div class=""circle""></div><div class=""square""></div></div>","p","","shape_test_4","mismatch","圆","p","true","圆"
"","null","html-keynbutton-response","453","2.0.0","547285","3","<div class=""pb-14 text-7xl"">+</div>","null","fixation","","","","","",""
"","373","html-keynbutton-response","454","2.0.0","547659","3","<div class=""flex flex-row stim-length pb-8 md:pd-20 justify-evenly items-center""><div class=""circle""></div><div class=""circle""></div><div class=""circle""></div></div>","p","","shape_test_4","match","圆","p","true","圆"
"","null","html-keynbutton-response","455","2.0.0","548168","3","<div class=""pb-14 text-7xl"">+</div>","null","fixation","","","","","",""
"","478","html-keynbutton-response","456","2.0.0","548647","3","<div class=""flex flex-row stim-length pb-8 md:pd-20 justify-evenly items-center""><div class=""square""></div><div class=""square""></div><div class=""square""></div></div>","q","","shape_test_4","match","方","q","true","方"
"","null","html-keynbutton-response","457","2.0.0","549163","3","<div class=""pb-14 text-7xl"">+</div>","null","fixation","","","","","",""
"","449","html-keynbutton-response","458","2.0.0","549613","3","<div class=""flex flex-row stim-length pb-8 md:pd-20 justify-evenly items-center""><div class=""circle""></div><div class=""square""></div><div class=""circle""></div></div>","q","","shape_test_4","mismatch","方","q","true","方"
"","null","html-keynbutton-response","459","2.0.0","550117","3","<div class=""pb-14 text-7xl"">+</div>","null","fixation","","","","","",""
"","395","html-keynbutton-response","460","2.0.0","550513","3","<div class=""flex flex-row stim-length pb-8 md:pd-20 justify-evenly items-center""><div class=""circle""></div><div class=""square""></div><div class=""circle""></div></div>","q","","shape_test_4","mismatch","方","q","true","方"
"","null","html-keynbutton-response","461","2.0.0","551018","3","<div class=""pb-14 text-7xl"">+</div>","null","fixation","","","","","",""
"","481","html-keynbutton-response","462","2.0.0","551500","3","<div class=""flex flex-row stim-length pb-8 md:pd-20 justify-evenly items-center""><div class=""square""></div><div class=""square""></div><div class=""square""></div></div>","q","","shape_test_4","match","方","q","true","方"
"","null","html-keynbutton-response","463","2.0.0","552002","3","<div class=""pb-14 text-7xl"">+</div>","null","fixation","","","","","",""
"","423","html-keynbutton-response","464","2.0.0","552426","3","<div class=""flex flex-row stim-length pb-8 md:pd-20 justify-evenly items-center""><div class=""square""></div><div class=""circle""></div><div class=""square""></div></div>","p","","shape_test_4","mismatch","圆","p","true","圆"
"","null","html-keynbutton-response","465","2.0.0","552935","3","<div class=""pb-14 text-7xl"">+</div>","null","fixation","","","","","",""
"","372","html-keynbutton-response","466","2.0.0","553308","3","<div class=""flex flex-row stim-length pb-8 md:pd-20 justify-evenly items-center""><div class=""circle""></div><div class=""circle""></div><div class=""circle""></div></div>","p","","shape_test_4","match","圆","p","true","圆"
"","null","html-keynbutton-response","467","2.0.0","553819","3","<div class=""pb-14 text-7xl"">+</div>","null","fixation","","","","","",""
"","324","html-keynbutton-response","468","2.0.0","554143","3","<div class=""flex flex-row stim-length pb-8 md:pd-20 justify-evenly items-center""><div class=""circle""></div><div class=""circle""></div><div class=""circle""></div></div>","p","","shape_test_4","match","圆","p","true","圆"
"","null","html-keynbutton-response","469","2.0.0","554651","3","<div class=""pb-14 text-7xl"">+</div>","null","fixation","","","","","",""
