"success","rt","trial_type","trial_index","plugin_version","time_elapsed","subj_id","stimulus","response","trail_tag","task","ismatch","target","correct_key","correct","response_key"
"true","3885265","fullscreen","0","2.0.0","3886278","19","","","","","","","","",""
"","32552","html-keynbutton-response","1","2.0.0","3918831","19","
        <div class=""jp px-2 xxs:px-5 mx-auto"">
        <p class=""text-center text-red-600 text-[1.2em] pb-5"">欢迎您参加知觉
          <strong>判断实验。</strong>
        </p>
        <p>接下来的任务中您将看到一排图形。</p>
        <p>(圆形●或方形■)</p><p>您的任务是<strong>忽略两侧的图形，专注于中间的图形</strong>。</p>
        <p>如果中间的图形是方，请按“q”；</p>
        <p>如果是圆，请按“p”。</p><p>请尽量又快又准地做出反应。</p>
      <p>请按空格键开始练习。</p>
      </div>"," ","","","","","","",""
"","null","html-keynbutton-response","2","2.0.0","3922046","19","<count-down title=""""></count-down>","null","countDown_trial","","","","","",""
"","null","html-keynbutton-response","3","2.0.0","3922551","19","<div class=""pb-14 text-7xl"">+</div>","null","fixation","","","","","",""
"","743","html-keynbutton-response","4","2.0.0","3923296","19","<div class=""flex flex-row stim-length pb-8 md:pd-20 justify-evenly items-center""><div class=""square""></div><div class=""square""></div><div class=""square""></div></div>","q","","shape_practice","match","方","q","true","方"
"","null","html-keynbutton-response","5","2.0.0","3923800","19","<span class='text-green-400 text-4xl md:text-5xl lg:text-6xl'>正确!</span>","null","trial_feedback","","","","","",""
"","null","html-keynbutton-response","6","2.0.0","3924304","19","<div class=""pb-14 text-7xl"">+</div>","null","fixation","","","","","",""
"","462","html-keynbutton-response","7","2.0.0","3924768","19","<div class=""flex flex-row stim-length pb-8 md:pd-20 justify-evenly items-center""><div class=""square""></div><div class=""circle""></div><div class=""square""></div></div>","p","","shape_practice","mismatch","圆","p","true","圆"
"","null","html-keynbutton-response","8","2.0.0","3925282","19","<span class='text-green-400 text-4xl md:text-5xl lg:text-6xl'>正确!</span>","null","trial_feedback","","","","","",""
"","null","html-keynbutton-response","9","2.0.0","3925799","19","<div class=""pb-14 text-7xl"">+</div>","null","fixation","","","","","",""
"","616","html-keynbutton-response","10","2.0.0","3926415","19","<div class=""flex flex-row stim-length pb-8 md:pd-20 justify-evenly items-center""><div class=""circle""></div><div class=""square""></div><div class=""circle""></div></div>","q","","shape_practice","mismatch","方","q","true","方"
"","null","html-keynbutton-response","11","2.0.0","3926932","19","<span class='text-green-400 text-4xl md:text-5xl lg:text-6xl'>正确!</span>","null","trial_feedback","","","","","",""
"","null","html-keynbutton-response","12","2.0.0","3927433","19","<div class=""pb-14 text-7xl"">+</div>","null","fixation","","","","","",""
"","661","html-keynbutton-response","13","2.0.0","3928096","19","<div class=""flex flex-row stim-length pb-8 md:pd-20 justify-evenly items-center""><div class=""circle""></div><div class=""circle""></div><div class=""circle""></div></div>","p","","shape_practice","match","圆","p","true","圆"
"","null","html-keynbutton-response","14","2.0.0","3928599","19","<span class='text-green-400 text-4xl md:text-5xl lg:text-6xl'>正确!</span>","null","trial_feedback","","","","","",""
"","null","html-keynbutton-response","15","2.0.0","3929100","19","<div class=""pb-14 text-7xl"">+</div>","null","fixation","","","","","",""
"","514","html-keynbutton-response","16","2.0.0","3929616","19","<div class=""flex flex-row stim-length pb-8 md:pd-20 justify-evenly items-center""><div class=""square""></div><div class=""square""></div><div class=""square""></div></div>","q","","shape_practice","match","方","q","true","方"
"","null","html-keynbutton-response","17","2.0.0","3930132","19","<span class='text-green-400 text-4xl md:text-5xl lg:text-6xl'>正确!</span>","null","trial_feedback","","","","","",""
"","null","html-keynbutton-response","18","2.0.0","3930635","19","<div class=""pb-14 text-7xl"">+</div>","null","fixation","","","","","",""
"","483","html-keynbutton-response","19","2.0.0","3931119","19","<div class=""flex flex-row stim-length pb-8 md:pd-20 justify-evenly items-center""><div class=""square""></div><div class=""circle""></div><div class=""square""></div></div>","p","","shape_practice","mismatch","圆","p","true","圆"
"","null","html-keynbutton-response","20","2.0.0","3931632","19","<span class='text-green-400 text-4xl md:text-5xl lg:text-6xl'>正确!</span>","null","trial_feedback","","","","","",""
"","null","html-keynbutton-response","21","2.0.0","3932148","19","<div class=""pb-14 text-7xl"">+</div>","null","fixation","","","","","",""
"","522","html-keynbutton-response","22","2.0.0","3932671","19","<div class=""flex flex-row stim-length pb-8 md:pd-20 justify-evenly items-center""><div class=""circle""></div><div class=""circle""></div><div class=""circle""></div></div>","p","","shape_practice","match","圆","p","true","圆"
"","null","html-keynbutton-response","23","2.0.0","3933180","19","<span class='text-green-400 text-4xl md:text-5xl lg:text-6xl'>正确!</span>","null","trial_feedback","","","","","",""
"","null","html-keynbutton-response","24","2.0.0","3933683","19","<div class=""pb-14 text-7xl"">+</div>","null","fixation","","","","","",""
"","412","html-keynbutton-response","25","2.0.0","3934096","19","<div class=""flex flex-row stim-length pb-8 md:pd-20 justify-evenly items-center""><div class=""circle""></div><div class=""square""></div><div class=""circle""></div></div>","q","","shape_practice","mismatch","方","q","true","方"
"","null","html-keynbutton-response","26","2.0.0","3934599","19","<span class='text-green-400 text-4xl md:text-5xl lg:text-6xl'>正确!</span>","null","trial_feedback","","","","","",""
"","null","html-keynbutton-response","27","2.0.0","3935115","19","<div class=""pb-14 text-7xl"">+</div>","null","fixation","","","","","",""
"","547","html-keynbutton-response","28","2.0.0","3935663","19","<div class=""flex flex-row stim-length pb-8 md:pd-20 justify-evenly items-center""><div class=""circle""></div><div class=""circle""></div><div class=""circle""></div></div>","p","","shape_practice","match","圆","p","true","圆"
"","null","html-keynbutton-response","29","2.0.0","3936166","19","<span class='text-green-400 text-4xl md:text-5xl lg:text-6xl'>正确!</span>","null","trial_feedback","","","","","",""
"","null","html-keynbutton-response","30","2.0.0","3936682","19","<div class=""pb-14 text-7xl"">+</div>","null","fixation","","","","","",""
"","404","html-keynbutton-response","31","2.0.0","3937087","19","<div class=""flex flex-row stim-length pb-8 md:pd-20 justify-evenly items-center""><div class=""circle""></div><div class=""square""></div><div class=""circle""></div></div>","q","","shape_practice","mismatch","方","q","true","方"
"","null","html-keynbutton-response","32","2.0.0","3937599","19","<span class='text-green-400 text-4xl md:text-5xl lg:text-6xl'>正确!</span>","null","trial_feedback","","","","","",""
"","null","html-keynbutton-response","33","2.0.0","3938115","19","<div class=""pb-14 text-7xl"">+</div>","null","fixation","","","","","",""
"","539","html-keynbutton-response","34","2.0.0","3938655","19","<div class=""flex flex-row stim-length pb-8 md:pd-20 justify-evenly items-center""><div class=""square""></div><div class=""square""></div><div class=""square""></div></div>","q","","shape_practice","match","方","q","true","方"
"","null","html-keynbutton-response","35","2.0.0","3939166","19","<span class='text-green-400 text-4xl md:text-5xl lg:text-6xl'>正确!</span>","null","trial_feedback","","","","","",""
"","null","html-keynbutton-response","36","2.0.0","3939682","19","<div class=""pb-14 text-7xl"">+</div>","null","fixation","","","","","",""
"","621","html-keynbutton-response","37","2.0.0","3940303","19","<div class=""flex flex-row stim-length pb-8 md:pd-20 justify-evenly items-center""><div class=""square""></div><div class=""circle""></div><div class=""square""></div></div>","p","","shape_practice","mismatch","圆","p","true","圆"
"","null","html-keynbutton-response","38","2.0.0","3940815","19","<span class='text-green-400 text-4xl md:text-5xl lg:text-6xl'>正确!</span>","null","trial_feedback","","","","","",""
"","null","html-keynbutton-response","39","2.0.0","3941316","19","<div class=""pb-14 text-7xl"">+</div>","null","fixation","","","","","",""
"","442","html-keynbutton-response","40","2.0.0","3941759","19","<div class=""flex flex-row stim-length pb-8 md:pd-20 justify-evenly items-center""><div class=""circle""></div><div class=""square""></div><div class=""circle""></div></div>","q","","shape_practice","mismatch","方","q","true","方"
"","null","html-keynbutton-response","41","2.0.0","3942265","19","<span class='text-green-400 text-4xl md:text-5xl lg:text-6xl'>正确!</span>","null","trial_feedback","","","","","",""
"","null","html-keynbutton-response","42","2.0.0","3942781","19","<div class=""pb-14 text-7xl"">+</div>","null","fixation","","","","","",""
"","721","html-keynbutton-response","43","2.0.0","3943504","19","<div class=""flex flex-row stim-length pb-8 md:pd-20 justify-evenly items-center""><div class=""square""></div><div class=""square""></div><div class=""square""></div></div>","q","","shape_practice","match","方","q","true","方"
"","null","html-keynbutton-response","44","2.0.0","3944014","19","<span class='text-green-400 text-4xl md:text-5xl lg:text-6xl'>正确!</span>","null","trial_feedback","","","","","",""
"","null","html-keynbutton-response","45","2.0.0","3944517","19","<div class=""pb-14 text-7xl"">+</div>","null","fixation","","","","","",""
"","538","html-keynbutton-response","46","2.0.0","3945055","19","<div class=""flex flex-row stim-length pb-8 md:pd-20 justify-evenly items-center""><div class=""circle""></div><div class=""circle""></div><div class=""circle""></div></div>","p","","shape_practice","match","圆","p","true","圆"
"","null","html-keynbutton-response","47","2.0.0","3945565","19","<span class='text-green-400 text-4xl md:text-5xl lg:text-6xl'>正确!</span>","null","trial_feedback","","","","","",""
"","null","html-keynbutton-response","48","2.0.0","3946066","19","<div class=""pb-14 text-7xl"">+</div>","null","fixation","","","","","",""
"","508","html-keynbutton-response","49","2.0.0","3946575","19","<div class=""flex flex-row stim-length pb-8 md:pd-20 justify-evenly items-center""><div class=""square""></div><div class=""circle""></div><div class=""square""></div></div>","p","","shape_practice","mismatch","圆","p","true","圆"
"","null","html-keynbutton-response","50","2.0.0","3947083","19","<span class='text-green-400 text-4xl md:text-5xl lg:text-6xl'>正确!</span>","null","trial_feedback","","","","","",""
"","null","html-keynbutton-response","51","2.0.0","3947598","19","<div class=""pb-14 text-7xl"">+</div>","null","fixation","","","","","",""
"","480","html-keynbutton-response","52","2.0.0","3948079","19","<div class=""flex flex-row stim-length pb-8 md:pd-20 justify-evenly items-center""><div class=""square""></div><div class=""square""></div><div class=""square""></div></div>","q","","shape_practice","match","方","q","true","方"
"","null","html-keynbutton-response","53","2.0.0","3948582","19","<span class='text-green-400 text-4xl md:text-5xl lg:text-6xl'>正确!</span>","null","trial_feedback","","","","","",""
"","null","html-keynbutton-response","54","2.0.0","3949098","19","<div class=""pb-14 text-7xl"">+</div>","null","fixation","","","","","",""
"","469","html-keynbutton-response","55","2.0.0","3949567","19","<div class=""flex flex-row stim-length pb-8 md:pd-20 justify-evenly items-center""><div class=""square""></div><div class=""circle""></div><div class=""square""></div></div>","p","","shape_practice","mismatch","圆","p","true","圆"
"","null","html-keynbutton-response","56","2.0.0","3950081","19","<span class='text-green-400 text-4xl md:text-5xl lg:text-6xl'>正确!</span>","null","trial_feedback","","","","","",""
"","null","html-keynbutton-response","57","2.0.0","3950583","19","<div class=""pb-14 text-7xl"">+</div>","null","fixation","","","","","",""
"","647","html-keynbutton-response","58","2.0.0","3951231","19","<div class=""flex flex-row stim-length pb-8 md:pd-20 justify-evenly items-center""><div class=""circle""></div><div class=""square""></div><div class=""circle""></div></div>","q","","shape_practice","mismatch","方","q","true","方"
"","null","html-keynbutton-response","59","2.0.0","3951736","19","<span class='text-green-400 text-4xl md:text-5xl lg:text-6xl'>正确!</span>","null","trial_feedback","","","","","",""
"","null","html-keynbutton-response","60","2.0.0","3952248","19","<div class=""pb-14 text-7xl"">+</div>","null","fixation","","","","","",""
"","565","html-keynbutton-response","61","2.0.0","3952815","19","<div class=""flex flex-row stim-length pb-8 md:pd-20 justify-evenly items-center""><div class=""circle""></div><div class=""circle""></div><div class=""circle""></div></div>","p","","shape_practice","match","圆","p","true","圆"
"","null","html-keynbutton-response","62","2.0.0","3953316","19","<span class='text-green-400 text-4xl md:text-5xl lg:text-6xl'>正确!</span>","null","trial_feedback","","","","","",""
"","3047","html-keynbutton-response","64","2.0.0","3956367","19","<div class=""jp"">
    <p>您的正确率是：100%</p>
    <p>您的平均反应时间是：545毫秒</p></div>"," ","block_feedback","","","","","",""
"","4702","html-keynbutton-response","65","2.0.0","3961071","19","
        <div class=""jp px-2 xxs:px-5 mx-auto"">
        <p class=""text-center text-red-600 text-[1.2em] pb-5"">练习结束，现在开始正式实验</p>
        <p>请注意：正式实验中将不再会呈现反馈。</p>
        </div>
        "," ","","","","","","",""
"","null","html-keynbutton-response","66","2.0.0","3964279","19","<count-down title=""""></count-down>","null","countDown_trial","","","","","",""
"","null","html-keynbutton-response","67","2.0.0","3964783","19","<div class=""pb-14 text-7xl"">+</div>","null","fixation","","","","","",""
"","463","html-keynbutton-response","68","2.0.0","3965246","19","<div class=""flex flex-row stim-length pb-8 md:pd-20 justify-evenly items-center""><div class=""square""></div><div class=""circle""></div><div class=""square""></div></div>","p","","shape_test","mismatch","圆","p","true","圆"
"","null","html-keynbutton-response","69","2.0.0","3965750","19","<div class=""pb-14 text-7xl"">+</div>","null","fixation","","","","","",""
"","472","html-keynbutton-response","70","2.0.0","3966222","19","<div class=""flex flex-row stim-length pb-8 md:pd-20 justify-evenly items-center""><div class=""square""></div><div class=""square""></div><div class=""square""></div></div>","q","","shape_test","match","方","q","true","方"
"","null","html-keynbutton-response","71","2.0.0","3966731","19","<div class=""pb-14 text-7xl"">+</div>","null","fixation","","","","","",""
"","451","html-keynbutton-response","72","2.0.0","3967183","19","<div class=""flex flex-row stim-length pb-8 md:pd-20 justify-evenly items-center""><div class=""circle""></div><div class=""square""></div><div class=""circle""></div></div>","q","","shape_test","mismatch","方","q","true","方"
"","null","html-keynbutton-response","73","2.0.0","3967698","19","<div class=""pb-14 text-7xl"">+</div>","null","fixation","","","","","",""
"","444","html-keynbutton-response","74","2.0.0","3968143","19","<div class=""flex flex-row stim-length pb-8 md:pd-20 justify-evenly items-center""><div class=""circle""></div><div class=""circle""></div><div class=""circle""></div></div>","p","","shape_test","match","圆","p","true","圆"
"","null","html-keynbutton-response","75","2.0.0","3968649","19","<div class=""pb-14 text-7xl"">+</div>","null","fixation","","","","","",""
"","453","html-keynbutton-response","76","2.0.0","3969103","19","<div class=""flex flex-row stim-length pb-8 md:pd-20 justify-evenly items-center""><div class=""circle""></div><div class=""square""></div><div class=""circle""></div></div>","q","","shape_test","mismatch","方","q","true","方"
"","null","html-keynbutton-response","77","2.0.0","3969615","19","<div class=""pb-14 text-7xl"">+</div>","null","fixation","","","","","",""
"","622","html-keynbutton-response","78","2.0.0","3970238","19","<div class=""flex flex-row stim-length pb-8 md:pd-20 justify-evenly items-center""><div class=""square""></div><div class=""square""></div><div class=""square""></div></div>","q","","shape_test","match","方","q","true","方"
"","null","html-keynbutton-response","79","2.0.0","3970748","19","<div class=""pb-14 text-7xl"">+</div>","null","fixation","","","","","",""
"","482","html-keynbutton-response","80","2.0.0","3971230","19","<div class=""flex flex-row stim-length pb-8 md:pd-20 justify-evenly items-center""><div class=""square""></div><div class=""circle""></div><div class=""square""></div></div>","p","","shape_test","mismatch","圆","p","true","圆"
"","null","html-keynbutton-response","81","2.0.0","3971733","19","<div class=""pb-14 text-7xl"">+</div>","null","fixation","","","","","",""
"","410","html-keynbutton-response","82","2.0.0","3972143","19","<div class=""flex flex-row stim-length pb-8 md:pd-20 justify-evenly items-center""><div class=""circle""></div><div class=""circle""></div><div class=""circle""></div></div>","p","","shape_test","match","圆","p","true","圆"
"","null","html-keynbutton-response","83","2.0.0","3972649","19","<div class=""pb-14 text-7xl"">+</div>","null","fixation","","","","","",""
"","421","html-keynbutton-response","84","2.0.0","3973071","19","<div class=""flex flex-row stim-length pb-8 md:pd-20 justify-evenly items-center""><div class=""square""></div><div class=""square""></div><div class=""square""></div></div>","q","","shape_test","match","方","q","true","方"
"","null","html-keynbutton-response","85","2.0.0","3973581","19","<div class=""pb-14 text-7xl"">+</div>","null","fixation","","","","","",""
"","513","html-keynbutton-response","86","2.0.0","3974095","19","<div class=""flex flex-row stim-length pb-8 md:pd-20 justify-evenly items-center""><div class=""square""></div><div class=""circle""></div><div class=""square""></div></div>","p","","shape_test","mismatch","圆","p","true","圆"
"","null","html-keynbutton-response","87","2.0.0","3974599","19","<div class=""pb-14 text-7xl"">+</div>","null","fixation","","","","","",""
"","519","html-keynbutton-response","88","2.0.0","3975119","19","<div class=""flex flex-row stim-length pb-8 md:pd-20 justify-evenly items-center""><div class=""circle""></div><div class=""circle""></div><div class=""circle""></div></div>","p","","shape_test","match","圆","p","true","圆"
"","null","html-keynbutton-response","89","2.0.0","3975632","19","<div class=""pb-14 text-7xl"">+</div>","null","fixation","","","","","",""
"","398","html-keynbutton-response","90","2.0.0","3976030","19","<div class=""flex flex-row stim-length pb-8 md:pd-20 justify-evenly items-center""><div class=""circle""></div><div class=""square""></div><div class=""circle""></div></div>","q","","shape_test","mismatch","方","q","true","方"
"","null","html-keynbutton-response","91","2.0.0","3976533","19","<div class=""pb-14 text-7xl"">+</div>","null","fixation","","","","","",""
"","425","html-keynbutton-response","92","2.0.0","3976959","19","<div class=""flex flex-row stim-length pb-8 md:pd-20 justify-evenly items-center""><div class=""circle""></div><div class=""square""></div><div class=""circle""></div></div>","q","","shape_test","mismatch","方","q","true","方"
"","null","html-keynbutton-response","93","2.0.0","3977466","19","<div class=""pb-14 text-7xl"">+</div>","null","fixation","","","","","",""
"","469","html-keynbutton-response","94","2.0.0","3977935","19","<div class=""flex flex-row stim-length pb-8 md:pd-20 justify-evenly items-center""><div class=""square""></div><div class=""circle""></div><div class=""square""></div></div>","p","","shape_test","mismatch","圆","p","true","圆"
"","null","html-keynbutton-response","95","2.0.0","3978448","19","<div class=""pb-14 text-7xl"">+</div>","null","fixation","","","","","",""
"","462","html-keynbutton-response","96","2.0.0","3978911","19","<div class=""flex flex-row stim-length pb-8 md:pd-20 justify-evenly items-center""><div class=""circle""></div><div class=""circle""></div><div class=""circle""></div></div>","p","","shape_test","match","圆","p","true","圆"
"","null","html-keynbutton-response","97","2.0.0","3979418","19","<div class=""pb-14 text-7xl"">+</div>","null","fixation","","","","","",""
"","452","html-keynbutton-response","98","2.0.0","3979871","19","<div class=""flex flex-row stim-length pb-8 md:pd-20 justify-evenly items-center""><div class=""square""></div><div class=""square""></div><div class=""square""></div></div>","q","","shape_test","match","方","q","true","方"
"","null","html-keynbutton-response","99","2.0.0","3980381","19","<div class=""pb-14 text-7xl"">+</div>","null","fixation","","","","","",""
"","497","html-keynbutton-response","100","2.0.0","3980879","19","<div class=""flex flex-row stim-length pb-8 md:pd-20 justify-evenly items-center""><div class=""square""></div><div class=""square""></div><div class=""square""></div></div>","q","","shape_test","match","方","q","true","方"
"","null","html-keynbutton-response","101","2.0.0","3981383","19","<div class=""pb-14 text-7xl"">+</div>","null","fixation","","","","","",""
"","328","html-keynbutton-response","102","2.0.0","3981712","19","<div class=""flex flex-row stim-length pb-8 md:pd-20 justify-evenly items-center""><div class=""circle""></div><div class=""square""></div><div class=""circle""></div></div>","q","","shape_test","mismatch","方","q","true","方"
"","null","html-keynbutton-response","103","2.0.0","3982216","19","<div class=""pb-14 text-7xl"">+</div>","null","fixation","","","","","",""
"","422","html-keynbutton-response","104","2.0.0","3982639","19","<div class=""flex flex-row stim-length pb-8 md:pd-20 justify-evenly items-center""><div class=""square""></div><div class=""circle""></div><div class=""square""></div></div>","p","","shape_test","mismatch","圆","p","true","圆"
"","null","html-keynbutton-response","105","2.0.0","3983148","19","<div class=""pb-14 text-7xl"">+</div>","null","fixation","","","","","",""
"","434","html-keynbutton-response","106","2.0.0","3983583","19","<div class=""flex flex-row stim-length pb-8 md:pd-20 justify-evenly items-center""><div class=""circle""></div><div class=""circle""></div><div class=""circle""></div></div>","p","","shape_test","match","圆","p","true","圆"
"","null","html-keynbutton-response","107","2.0.0","3984099","19","<div class=""pb-14 text-7xl"">+</div>","null","fixation","","","","","",""
"","443","html-keynbutton-response","108","2.0.0","3984543","19","<div class=""flex flex-row stim-length pb-8 md:pd-20 justify-evenly items-center""><div class=""circle""></div><div class=""circle""></div><div class=""circle""></div></div>","p","","shape_test","match","圆","p","true","圆"
"","null","html-keynbutton-response","109","2.0.0","3985049","19","<div class=""pb-14 text-7xl"">+</div>","null","fixation","","","","","",""
"","373","html-keynbutton-response","110","2.0.0","3985423","19","<div class=""flex flex-row stim-length pb-8 md:pd-20 justify-evenly items-center""><div class=""square""></div><div class=""circle""></div><div class=""square""></div></div>","p","","shape_test","mismatch","圆","p","true","圆"
"","null","html-keynbutton-response","111","2.0.0","3985931","19","<div class=""pb-14 text-7xl"">+</div>","null","fixation","","","","","",""
"","339","html-keynbutton-response","112","2.0.0","3986271","19","<div class=""flex flex-row stim-length pb-8 md:pd-20 justify-evenly items-center""><div class=""circle""></div><div class=""square""></div><div class=""circle""></div></div>","q","","shape_test","mismatch","方","q","true","方"
"","null","html-keynbutton-response","113","2.0.0","3986786","19","<div class=""pb-14 text-7xl"">+</div>","null","fixation","","","","","",""
"","364","html-keynbutton-response","114","2.0.0","3987151","19","<div class=""flex flex-row stim-length pb-8 md:pd-20 justify-evenly items-center""><div class=""square""></div><div class=""square""></div><div class=""square""></div></div>","q","","shape_test","match","方","q","true","方"
"","null","html-keynbutton-response","115","2.0.0","3987665","19","<div class=""pb-14 text-7xl"">+</div>","null","fixation","","","","","",""
"","397","html-keynbutton-response","116","2.0.0","3988063","19","<div class=""flex flex-row stim-length pb-8 md:pd-20 justify-evenly items-center""><div class=""square""></div><div class=""circle""></div><div class=""square""></div></div>","p","","shape_test","mismatch","圆","p","true","圆"
"","null","html-keynbutton-response","117","2.0.0","3988567","19","<div class=""pb-14 text-7xl"">+</div>","null","fixation","","","","","",""
"","360","html-keynbutton-response","118","2.0.0","3988927","19","<div class=""flex flex-row stim-length pb-8 md:pd-20 justify-evenly items-center""><div class=""square""></div><div class=""square""></div><div class=""square""></div></div>","q","","shape_test","match","方","q","true","方"
"","null","html-keynbutton-response","119","2.0.0","3989434","19","<div class=""pb-14 text-7xl"">+</div>","null","fixation","","","","","",""
"","404","html-keynbutton-response","120","2.0.0","3989839","19","<div class=""flex flex-row stim-length pb-8 md:pd-20 justify-evenly items-center""><div class=""circle""></div><div class=""circle""></div><div class=""circle""></div></div>","p","","shape_test","match","圆","p","true","圆"
"","null","html-keynbutton-response","121","2.0.0","3990347","19","<div class=""pb-14 text-7xl"">+</div>","null","fixation","","","","","",""
"","372","html-keynbutton-response","122","2.0.0","3990719","19","<div class=""flex flex-row stim-length pb-8 md:pd-20 justify-evenly items-center""><div class=""circle""></div><div class=""square""></div><div class=""circle""></div></div>","q","","shape_test","mismatch","方","q","true","方"
"","null","html-keynbutton-response","123","2.0.0","3991232","19","<div class=""pb-14 text-7xl"">+</div>","null","fixation","","","","","",""
"","398","html-keynbutton-response","124","2.0.0","3991631","19","<div class=""flex flex-row stim-length pb-8 md:pd-20 justify-evenly items-center""><div class=""circle""></div><div class=""circle""></div><div class=""circle""></div></div>","p","","shape_test","match","圆","p","true","圆"
"","null","html-keynbutton-response","125","2.0.0","3992132","19","<div class=""pb-14 text-7xl"">+</div>","null","fixation","","","","","",""
"","443","html-keynbutton-response","126","2.0.0","3992575","19","<div class=""flex flex-row stim-length pb-8 md:pd-20 justify-evenly items-center""><div class=""square""></div><div class=""circle""></div><div class=""square""></div></div>","p","","shape_test","mismatch","圆","p","true","圆"
"","null","html-keynbutton-response","127","2.0.0","3993083","19","<div class=""pb-14 text-7xl"">+</div>","null","fixation","","","","","",""
"","355","html-keynbutton-response","128","2.0.0","3993439","19","<div class=""flex flex-row stim-length pb-8 md:pd-20 justify-evenly items-center""><div class=""square""></div><div class=""square""></div><div class=""square""></div></div>","q","","shape_test","match","方","q","true","方"
"","null","html-keynbutton-response","129","2.0.0","3993954","19","<div class=""pb-14 text-7xl"">+</div>","null","fixation","","","","","",""
"","412","html-keynbutton-response","130","2.0.0","3994367","19","<div class=""flex flex-row stim-length pb-8 md:pd-20 justify-evenly items-center""><div class=""circle""></div><div class=""square""></div><div class=""circle""></div></div>","q","","shape_test","mismatch","方","q","true","方"
"","null","html-keynbutton-response","131","2.0.0","3994882","19","<div class=""pb-14 text-7xl"">+</div>","null","fixation","","","","","",""
"","380","html-keynbutton-response","132","2.0.0","3995263","19","<div class=""flex flex-row stim-length pb-8 md:pd-20 justify-evenly items-center""><div class=""circle""></div><div class=""square""></div><div class=""circle""></div></div>","q","","shape_test","mismatch","方","q","true","方"
"","null","html-keynbutton-response","133","2.0.0","3995766","19","<div class=""pb-14 text-7xl"">+</div>","null","fixation","","","","","",""
"","361","html-keynbutton-response","134","2.0.0","3996128","19","<div class=""flex flex-row stim-length pb-8 md:pd-20 justify-evenly items-center""><div class=""square""></div><div class=""square""></div><div class=""square""></div></div>","q","","shape_test","match","方","q","true","方"
"","null","html-keynbutton-response","135","2.0.0","3996634","19","<div class=""pb-14 text-7xl"">+</div>","null","fixation","","","","","",""
"","421","html-keynbutton-response","136","2.0.0","3997055","19","<div class=""flex flex-row stim-length pb-8 md:pd-20 justify-evenly items-center""><div class=""square""></div><div class=""circle""></div><div class=""square""></div></div>","p","","shape_test","mismatch","圆","p","true","圆"
"","null","html-keynbutton-response","137","2.0.0","3997565","19","<div class=""pb-14 text-7xl"">+</div>","null","fixation","","","","","",""
"","417","html-keynbutton-response","138","2.0.0","3997983","19","<div class=""flex flex-row stim-length pb-8 md:pd-20 justify-evenly items-center""><div class=""circle""></div><div class=""circle""></div><div class=""circle""></div></div>","p","","shape_test","match","圆","p","true","圆"
"","null","html-keynbutton-response","139","2.0.0","3998498","19","<div class=""pb-14 text-7xl"">+</div>","null","fixation","","","","","",""
"","428","html-keynbutton-response","140","2.0.0","3998927","19","<div class=""flex flex-row stim-length pb-8 md:pd-20 justify-evenly items-center""><div class=""circle""></div><div class=""square""></div><div class=""circle""></div></div>","q","","shape_test","mismatch","方","q","true","方"
"","null","html-keynbutton-response","141","2.0.0","3999437","19","<div class=""pb-14 text-7xl"">+</div>","null","fixation","","","","","",""
"","353","html-keynbutton-response","142","2.0.0","3999791","19","<div class=""flex flex-row stim-length pb-8 md:pd-20 justify-evenly items-center""><div class=""circle""></div><div class=""circle""></div><div class=""circle""></div></div>","p","","shape_test","match","圆","p","true","圆"
"","null","html-keynbutton-response","143","2.0.0","4000300","19","<div class=""pb-14 text-7xl"">+</div>","null","fixation","","","","","",""
"","466","html-keynbutton-response","144","2.0.0","4000767","19","<div class=""flex flex-row stim-length pb-8 md:pd-20 justify-evenly items-center""><div class=""square""></div><div class=""square""></div><div class=""square""></div></div>","q","","shape_test","match","方","q","true","方"
"","null","html-keynbutton-response","145","2.0.0","4001282","19","<div class=""pb-14 text-7xl"">+</div>","null","fixation","","","","","",""
"","348","html-keynbutton-response","146","2.0.0","4001631","19","<div class=""flex flex-row stim-length pb-8 md:pd-20 justify-evenly items-center""><div class=""square""></div><div class=""circle""></div><div class=""square""></div></div>","p","","shape_test","mismatch","圆","p","true","圆"
"","8318","html-keynbutton-response","147","2.0.0","4009944","19","<div class=""jp""><p>您已完成1/10部分</p><p>请休息一会儿</p>
    <p>您的正确率是：100%</p>
    <p>您的平均反应时间是：424毫秒</p></div>"," ","block_feedback","","","","","",""
"","null","html-keynbutton-response","148","2.0.0","4013155","19","<count-down title=""""></count-down>","null","countDown_trial","","","","","",""
"","null","html-keynbutton-response","149","2.0.0","4013659","19","<div class=""pb-14 text-7xl"">+</div>","null","fixation","","","","","",""
"","476","html-keynbutton-response","150","2.0.0","4014135","19","<div class=""flex flex-row stim-length pb-8 md:pd-20 justify-evenly items-center""><div class=""square""></div><div class=""circle""></div><div class=""square""></div></div>","p","","shape_test_1","mismatch","圆","p","true","圆"
"","null","html-keynbutton-response","151","2.0.0","4014641","19","<div class=""pb-14 text-7xl"">+</div>","null","fixation","","","","","",""
"","389","html-keynbutton-response","152","2.0.0","4015032","19","<div class=""flex flex-row stim-length pb-8 md:pd-20 justify-evenly items-center""><div class=""square""></div><div class=""square""></div><div class=""square""></div></div>","q","","shape_test_1","match","方","q","true","方"
"","null","html-keynbutton-response","153","2.0.0","4015539","19","<div class=""pb-14 text-7xl"">+</div>","null","fixation","","","","","",""
"","483","html-keynbutton-response","154","2.0.0","4016023","19","<div class=""flex flex-row stim-length pb-8 md:pd-20 justify-evenly items-center""><div class=""circle""></div><div class=""square""></div><div class=""circle""></div></div>","q","","shape_test_1","mismatch","方","q","true","方"
"","null","html-keynbutton-response","155","2.0.0","4016525","19","<div class=""pb-14 text-7xl"">+</div>","null","fixation","","","","","",""
"","378","html-keynbutton-response","156","2.0.0","4016903","19","<div class=""flex flex-row stim-length pb-8 md:pd-20 justify-evenly items-center""><div class=""circle""></div><div class=""circle""></div><div class=""circle""></div></div>","p","","shape_test_1","match","圆","p","true","圆"
"","null","html-keynbutton-response","157","2.0.0","4017410","19","<div class=""pb-14 text-7xl"">+</div>","null","fixation","","","","","",""
"","388","html-keynbutton-response","158","2.0.0","4017799","19","<div class=""flex flex-row stim-length pb-8 md:pd-20 justify-evenly items-center""><div class=""square""></div><div class=""square""></div><div class=""square""></div></div>","q","","shape_test_1","match","方","q","true","方"
"","null","html-keynbutton-response","159","2.0.0","4018310","19","<div class=""pb-14 text-7xl"">+</div>","null","fixation","","","","","",""
"","528","html-keynbutton-response","160","2.0.0","4018839","19","<div class=""flex flex-row stim-length pb-8 md:pd-20 justify-evenly items-center""><div class=""square""></div><div class=""circle""></div><div class=""square""></div></div>","p","","shape_test_1","mismatch","圆","p","true","圆"
"","null","html-keynbutton-response","161","2.0.0","4019342","19","<div class=""pb-14 text-7xl"">+</div>","null","fixation","","","","","",""
"","473","html-keynbutton-response","162","2.0.0","4019815","19","<div class=""flex flex-row stim-length pb-8 md:pd-20 justify-evenly items-center""><div class=""circle""></div><div class=""circle""></div><div class=""circle""></div></div>","p","","shape_test_1","match","圆","p","true","圆"
"","null","html-keynbutton-response","163","2.0.0","4020324","19","<div class=""pb-14 text-7xl"">+</div>","null","fixation","","","","","",""
"","435","html-keynbutton-response","164","2.0.0","4020759","19","<div class=""flex flex-row stim-length pb-8 md:pd-20 justify-evenly items-center""><div class=""circle""></div><div class=""square""></div><div class=""circle""></div></div>","q","","shape_test_1","mismatch","方","q","true","方"
"","null","html-keynbutton-response","165","2.0.0","4021274","19","<div class=""pb-14 text-7xl"">+</div>","null","fixation","","","","","",""
"","428","html-keynbutton-response","166","2.0.0","4021703","19","<div class=""flex flex-row stim-length pb-8 md:pd-20 justify-evenly items-center""><div class=""square""></div><div class=""square""></div><div class=""square""></div></div>","q","","shape_test_1","match","方","q","true","方"
"","null","html-keynbutton-response","167","2.0.0","4022208","19","<div class=""pb-14 text-7xl"">+</div>","null","fixation","","","","","",""
"","390","html-keynbutton-response","168","2.0.0","4022600","19","<div class=""flex flex-row stim-length pb-8 md:pd-20 justify-evenly items-center""><div class=""circle""></div><div class=""square""></div><div class=""circle""></div></div>","q","","shape_test_1","mismatch","方","q","true","方"
"","null","html-keynbutton-response","169","2.0.0","4023107","19","<div class=""pb-14 text-7xl"">+</div>","null","fixation","","","","","",""
"","356","html-keynbutton-response","170","2.0.0","4023464","19","<div class=""flex flex-row stim-length pb-8 md:pd-20 justify-evenly items-center""><div class=""square""></div><div class=""circle""></div><div class=""square""></div></div>","p","","shape_test_1","mismatch","圆","p","true","圆"
"","null","html-keynbutton-response","171","2.0.0","4023974","19","<div class=""pb-14 text-7xl"">+</div>","null","fixation","","","","","",""
"","353","html-keynbutton-response","172","2.0.0","4024328","19","<div class=""flex flex-row stim-length pb-8 md:pd-20 justify-evenly items-center""><div class=""circle""></div><div class=""circle""></div><div class=""circle""></div></div>","p","","shape_test_1","match","圆","p","true","圆"
"","null","html-keynbutton-response","173","2.0.0","4024841","19","<div class=""pb-14 text-7xl"">+</div>","null","fixation","","","","","",""
"","350","html-keynbutton-response","174","2.0.0","4025191","19","<div class=""flex flex-row stim-length pb-8 md:pd-20 justify-evenly items-center""><div class=""square""></div><div class=""circle""></div><div class=""square""></div></div>","p","","shape_test_1","mismatch","圆","p","true","圆"
"","null","html-keynbutton-response","175","2.0.0","4025707","19","<div class=""pb-14 text-7xl"">+</div>","null","fixation","","","","","",""
"","380","html-keynbutton-response","176","2.0.0","4026087","19","<div class=""flex flex-row stim-length pb-8 md:pd-20 justify-evenly items-center""><div class=""square""></div><div class=""square""></div><div class=""square""></div></div>","q","","shape_test_1","match","方","q","true","方"
"","null","html-keynbutton-response","177","2.0.0","4026592","19","<div class=""pb-14 text-7xl"">+</div>","null","fixation","","","","","",""
"","359","html-keynbutton-response","178","2.0.0","4026952","19","<div class=""flex flex-row stim-length pb-8 md:pd-20 justify-evenly items-center""><div class=""circle""></div><div class=""square""></div><div class=""circle""></div></div>","q","","shape_test_1","mismatch","方","q","true","方"
"","null","html-keynbutton-response","179","2.0.0","4027459","19","<div class=""pb-14 text-7xl"">+</div>","null","fixation","","","","","",""
"","355","html-keynbutton-response","180","2.0.0","4027815","19","<div class=""flex flex-row stim-length pb-8 md:pd-20 justify-evenly items-center""><div class=""circle""></div><div class=""circle""></div><div class=""circle""></div></div>","p","","shape_test_1","match","圆","p","true","圆"
"","null","html-keynbutton-response","181","2.0.0","4028324","19","<div class=""pb-14 text-7xl"">+</div>","null","fixation","","","","","",""
"","371","html-keynbutton-response","182","2.0.0","4028696","19","<div class=""flex flex-row stim-length pb-8 md:pd-20 justify-evenly items-center""><div class=""square""></div><div class=""circle""></div><div class=""square""></div></div>","p","","shape_test_1","mismatch","圆","p","true","圆"
"","null","html-keynbutton-response","183","2.0.0","4029207","19","<div class=""pb-14 text-7xl"">+</div>","null","fixation","","","","","",""
"","335","html-keynbutton-response","184","2.0.0","4029544","19","<div class=""flex flex-row stim-length pb-8 md:pd-20 justify-evenly items-center""><div class=""square""></div><div class=""square""></div><div class=""square""></div></div>","q","","shape_test_1","match","方","q","true","方"
"","null","html-keynbutton-response","185","2.0.0","4030057","19","<div class=""pb-14 text-7xl"">+</div>","null","fixation","","","","","",""
"","397","html-keynbutton-response","186","2.0.0","4030455","19","<div class=""flex flex-row stim-length pb-8 md:pd-20 justify-evenly items-center""><div class=""circle""></div><div class=""square""></div><div class=""circle""></div></div>","q","","shape_test_1","mismatch","方","q","true","方"
"","null","html-keynbutton-response","187","2.0.0","4030959","19","<div class=""pb-14 text-7xl"">+</div>","null","fixation","","","","","",""
"","424","html-keynbutton-response","188","2.0.0","4031383","19","<div class=""flex flex-row stim-length pb-8 md:pd-20 justify-evenly items-center""><div class=""circle""></div><div class=""circle""></div><div class=""circle""></div></div>","p","","shape_test_1","match","圆","p","true","圆"
"","null","html-keynbutton-response","189","2.0.0","4031889","19","<div class=""pb-14 text-7xl"">+</div>","null","fixation","","","","","",""
"","389","html-keynbutton-response","190","2.0.0","4032279","19","<div class=""flex flex-row stim-length pb-8 md:pd-20 justify-evenly items-center""><div class=""circle""></div><div class=""square""></div><div class=""circle""></div></div>","q","","shape_test_1","mismatch","方","q","true","方"
"","null","html-keynbutton-response","191","2.0.0","4032791","19","<div class=""pb-14 text-7xl"">+</div>","null","fixation","","","","","",""
"","400","html-keynbutton-response","192","2.0.0","4033192","19","<div class=""flex flex-row stim-length pb-8 md:pd-20 justify-evenly items-center""><div class=""square""></div><div class=""circle""></div><div class=""square""></div></div>","p","","shape_test_1","mismatch","圆","p","true","圆"
"","null","html-keynbutton-response","193","2.0.0","4033708","19","<div class=""pb-14 text-7xl"">+</div>","null","fixation","","","","","",""
"","411","html-keynbutton-response","194","2.0.0","4034119","19","<div class=""flex flex-row stim-length pb-8 md:pd-20 justify-evenly items-center""><div class=""circle""></div><div class=""circle""></div><div class=""circle""></div></div>","p","","shape_test_1","match","圆","p","true","圆"
"","null","html-keynbutton-response","195","2.0.0","4034628","19","<div class=""pb-14 text-7xl"">+</div>","null","fixation","","","","","",""
"","434","html-keynbutton-response","196","2.0.0","4035064","19","<div class=""flex flex-row stim-length pb-8 md:pd-20 justify-evenly items-center""><div class=""square""></div><div class=""square""></div><div class=""square""></div></div>","q","","shape_test_1","match","方","q","true","方"
"","null","html-keynbutton-response","197","2.0.0","4035575","19","<div class=""pb-14 text-7xl"">+</div>","null","fixation","","","","","",""
"","416","html-keynbutton-response","198","2.0.0","4035991","19","<div class=""flex flex-row stim-length pb-8 md:pd-20 justify-evenly items-center""><div class=""circle""></div><div class=""circle""></div><div class=""circle""></div></div>","p","","shape_test_1","match","圆","p","true","圆"
"","null","html-keynbutton-response","199","2.0.0","4036508","19","<div class=""pb-14 text-7xl"">+</div>","null","fixation","","","","","",""
"","459","html-keynbutton-response","200","2.0.0","4036967","19","<div class=""flex flex-row stim-length pb-8 md:pd-20 justify-evenly items-center""><div class=""square""></div><div class=""circle""></div><div class=""square""></div></div>","p","","shape_test_1","mismatch","圆","p","true","圆"
"","null","html-keynbutton-response","201","2.0.0","4037475","19","<div class=""pb-14 text-7xl"">+</div>","null","fixation","","","","","",""
"","435","html-keynbutton-response","202","2.0.0","4037911","19","<div class=""flex flex-row stim-length pb-8 md:pd-20 justify-evenly items-center""><div class=""circle""></div><div class=""square""></div><div class=""circle""></div></div>","q","","shape_test_1","mismatch","方","q","true","方"
"","null","html-keynbutton-response","203","2.0.0","4038424","19","<div class=""pb-14 text-7xl"">+</div>","null","fixation","","","","","",""
"","446","html-keynbutton-response","204","2.0.0","4038871","19","<div class=""flex flex-row stim-length pb-8 md:pd-20 justify-evenly items-center""><div class=""square""></div><div class=""square""></div><div class=""square""></div></div>","q","","shape_test_1","match","方","q","true","方"
"","null","html-keynbutton-response","205","2.0.0","4039377","19","<div class=""pb-14 text-7xl"">+</div>","null","fixation","","","","","",""
"","454","html-keynbutton-response","206","2.0.0","4039831","19","<div class=""flex flex-row stim-length pb-8 md:pd-20 justify-evenly items-center""><div class=""square""></div><div class=""circle""></div><div class=""square""></div></div>","p","","shape_test_1","mismatch","圆","p","true","圆"
"","null","html-keynbutton-response","207","2.0.0","4040339","19","<div class=""pb-14 text-7xl"">+</div>","null","fixation","","","","","",""
"","483","html-keynbutton-response","208","2.0.0","4040823","19","<div class=""flex flex-row stim-length pb-8 md:pd-20 justify-evenly items-center""><div class=""circle""></div><div class=""circle""></div><div class=""circle""></div></div>","p","","shape_test_1","match","圆","p","true","圆"
"","null","html-keynbutton-response","209","2.0.0","4041326","19","<div class=""pb-14 text-7xl"">+</div>","null","fixation","","","","","",""
"","425","html-keynbutton-response","210","2.0.0","4041752","19","<div class=""flex flex-row stim-length pb-8 md:pd-20 justify-evenly items-center""><div class=""circle""></div><div class=""square""></div><div class=""circle""></div></div>","q","","shape_test_1","mismatch","方","q","true","方"
"","null","html-keynbutton-response","211","2.0.0","4042258","19","<div class=""pb-14 text-7xl"">+</div>","null","fixation","","","","","",""
"","564","html-keynbutton-response","212","2.0.0","4042823","19","<div class=""flex flex-row stim-length pb-8 md:pd-20 justify-evenly items-center""><div class=""square""></div><div class=""square""></div><div class=""square""></div></div>","q","","shape_test_1","match","方","q","true","方"
"","null","html-keynbutton-response","213","2.0.0","4043326","19","<div class=""pb-14 text-7xl"">+</div>","null","fixation","","","","","",""
"","361","html-keynbutton-response","214","2.0.0","4043687","19","<div class=""flex flex-row stim-length pb-8 md:pd-20 justify-evenly items-center""><div class=""square""></div><div class=""square""></div><div class=""square""></div></div>","q","","shape_test_1","match","方","q","true","方"
"","null","html-keynbutton-response","215","2.0.0","4044192","19","<div class=""pb-14 text-7xl"">+</div>","null","fixation","","","","","",""
"","439","html-keynbutton-response","216","2.0.0","4044631","19","<div class=""flex flex-row stim-length pb-8 md:pd-20 justify-evenly items-center""><div class=""circle""></div><div class=""square""></div><div class=""circle""></div></div>","q","","shape_test_1","mismatch","方","q","true","方"
"","null","html-keynbutton-response","217","2.0.0","4045140","19","<div class=""pb-14 text-7xl"">+</div>","null","fixation","","","","","",""
"","450","html-keynbutton-response","218","2.0.0","4045592","19","<div class=""flex flex-row stim-length pb-8 md:pd-20 justify-evenly items-center""><div class=""square""></div><div class=""circle""></div><div class=""square""></div></div>","p","","shape_test_1","mismatch","圆","p","true","圆"
"","null","html-keynbutton-response","219","2.0.0","4046107","19","<div class=""pb-14 text-7xl"">+</div>","null","fixation","","","","","",""
"","475","html-keynbutton-response","220","2.0.0","4046583","19","<div class=""flex flex-row stim-length pb-8 md:pd-20 justify-evenly items-center""><div class=""circle""></div><div class=""circle""></div><div class=""circle""></div></div>","p","","shape_test_1","match","圆","p","true","圆"
"","null","html-keynbutton-response","221","2.0.0","4047090","19","<div class=""pb-14 text-7xl"">+</div>","null","fixation","","","","","",""
"","420","html-keynbutton-response","222","2.0.0","4047511","19","<div class=""flex flex-row stim-length pb-8 md:pd-20 justify-evenly items-center""><div class=""circle""></div><div class=""square""></div><div class=""circle""></div></div>","q","","shape_test_1","mismatch","方","q","true","方"
"","null","html-keynbutton-response","223","2.0.0","4048024","19","<div class=""pb-14 text-7xl"">+</div>","null","fixation","","","","","",""
"","446","html-keynbutton-response","224","2.0.0","4048470","19","<div class=""flex flex-row stim-length pb-8 md:pd-20 justify-evenly items-center""><div class=""square""></div><div class=""square""></div><div class=""square""></div></div>","q","","shape_test_1","match","方","q","true","方"
"","null","html-keynbutton-response","225","2.0.0","4048977","19","<div class=""pb-14 text-7xl"">+</div>","null","fixation","","","","","",""
"","535","html-keynbutton-response","226","2.0.0","4049511","19","<div class=""flex flex-row stim-length pb-8 md:pd-20 justify-evenly items-center""><div class=""square""></div><div class=""circle""></div><div class=""square""></div></div>","p","","shape_test_1","mismatch","圆","p","true","圆"
"","null","html-keynbutton-response","227","2.0.0","4050024","19","<div class=""pb-14 text-7xl"">+</div>","null","fixation","","","","","",""
"","431","html-keynbutton-response","228","2.0.0","4050456","19","<div class=""flex flex-row stim-length pb-8 md:pd-20 justify-evenly items-center""><div class=""circle""></div><div class=""circle""></div><div class=""circle""></div></div>","p","","shape_test_1","match","圆","p","true","圆"
"","8478","html-keynbutton-response","229","2.0.0","4058936","19","<div class=""jp""><p>您已完成2/10部分</p><p>请休息一会儿</p>
    <p>您的正确率是：100%</p>
    <p>您的平均反应时间是：423毫秒</p></div>"," ","block_feedback","","","","","",""
"","null","html-keynbutton-response","230","2.0.0","4062138","19","<count-down title=""""></count-down>","null","countDown_trial","","","","","",""
"","null","html-keynbutton-response","231","2.0.0","4062642","19","<div class=""pb-14 text-7xl"">+</div>","null","fixation","","","","","",""
"","500","html-keynbutton-response","232","2.0.0","4063143","19","<div class=""flex flex-row stim-length pb-8 md:pd-20 justify-evenly items-center""><div class=""circle""></div><div class=""circle""></div><div class=""circle""></div></div>","p","","shape_test_2","match","圆","p","true","圆"
"","null","html-keynbutton-response","233","2.0.0","4063658","19","<div class=""pb-14 text-7xl"">+</div>","null","fixation","","","","","",""
"","397","html-keynbutton-response","234","2.0.0","4064056","19","<div class=""flex flex-row stim-length pb-8 md:pd-20 justify-evenly items-center""><div class=""square""></div><div class=""square""></div><div class=""square""></div></div>","q","","shape_test_2","match","方","q","true","方"
"","null","html-keynbutton-response","235","2.0.0","4064558","19","<div class=""pb-14 text-7xl"">+</div>","null","fixation","","","","","",""
"","345","html-keynbutton-response","236","2.0.0","4064904","19","<div class=""flex flex-row stim-length pb-8 md:pd-20 justify-evenly items-center""><div class=""circle""></div><div class=""square""></div><div class=""circle""></div></div>","q","","shape_test_2","mismatch","方","q","true","方"
"","null","html-keynbutton-response","237","2.0.0","4065408","19","<div class=""pb-14 text-7xl"">+</div>","null","fixation","","","","","",""
"","390","html-keynbutton-response","238","2.0.0","4065800","19","<div class=""flex flex-row stim-length pb-8 md:pd-20 justify-evenly items-center""><div class=""square""></div><div class=""circle""></div><div class=""square""></div></div>","p","","shape_test_2","mismatch","圆","p","true","圆"
"","null","html-keynbutton-response","239","2.0.0","4066307","19","<div class=""pb-14 text-7xl"">+</div>","null","fixation","","","","","",""
"","323","html-keynbutton-response","240","2.0.0","4066632","19","<div class=""flex flex-row stim-length pb-8 md:pd-20 justify-evenly items-center""><div class=""circle""></div><div class=""square""></div><div class=""circle""></div></div>","q","","shape_test_2","mismatch","方","q","true","方"
"","null","html-keynbutton-response","241","2.0.0","4067141","19","<div class=""pb-14 text-7xl"">+</div>","null","fixation","","","","","",""
"","370","html-keynbutton-response","242","2.0.0","4067512","19","<div class=""flex flex-row stim-length pb-8 md:pd-20 justify-evenly items-center""><div class=""square""></div><div class=""square""></div><div class=""square""></div></div>","q","","shape_test_2","match","方","q","true","方"
"","null","html-keynbutton-response","243","2.0.0","4068024","19","<div class=""pb-14 text-7xl"">+</div>","null","fixation","","","","","",""
"","414","html-keynbutton-response","244","2.0.0","4068438","19","<div class=""flex flex-row stim-length pb-8 md:pd-20 justify-evenly items-center""><div class=""square""></div><div class=""circle""></div><div class=""square""></div></div>","p","","shape_test_2","mismatch","圆","p","true","圆"
"","null","html-keynbutton-response","245","2.0.0","4068942","19","<div class=""pb-14 text-7xl"">+</div>","null","fixation","","","","","",""
"","471","html-keynbutton-response","246","2.0.0","4069414","19","<div class=""flex flex-row stim-length pb-8 md:pd-20 justify-evenly items-center""><div class=""circle""></div><div class=""circle""></div><div class=""circle""></div></div>","p","","shape_test_2","match","圆","p","true","圆"
"","null","html-keynbutton-response","247","2.0.0","4069925","19","<div class=""pb-14 text-7xl"">+</div>","null","fixation","","","","","",""
"","514","html-keynbutton-response","248","2.0.0","4070447","19","<div class=""flex flex-row stim-length pb-8 md:pd-20 justify-evenly items-center""><div class=""circle""></div><div class=""square""></div><div class=""circle""></div></div>","q","","shape_test_2","mismatch","方","q","true","方"
"","null","html-keynbutton-response","249","2.0.0","4070949","19","<div class=""pb-14 text-7xl"">+</div>","null","fixation","","","","","",""
"","409","html-keynbutton-response","250","2.0.0","4071359","19","<div class=""flex flex-row stim-length pb-8 md:pd-20 justify-evenly items-center""><div class=""square""></div><div class=""square""></div><div class=""square""></div></div>","q","","shape_test_2","match","方","q","true","方"
"","null","html-keynbutton-response","251","2.0.0","4071866","19","<div class=""pb-14 text-7xl"">+</div>","null","fixation","","","","","",""
"","419","html-keynbutton-response","252","2.0.0","4072286","19","<div class=""flex flex-row stim-length pb-8 md:pd-20 justify-evenly items-center""><div class=""circle""></div><div class=""circle""></div><div class=""circle""></div></div>","p","","shape_test_2","match","圆","p","true","圆"
"","null","html-keynbutton-response","253","2.0.0","4072787","19","<div class=""pb-14 text-7xl"">+</div>","null","fixation","","","","","",""
"","540","html-keynbutton-response","254","2.0.0","4073327","19","<div class=""flex flex-row stim-length pb-8 md:pd-20 justify-evenly items-center""><div class=""square""></div><div class=""circle""></div><div class=""square""></div></div>","p","","shape_test_2","mismatch","圆","p","true","圆"
"","null","html-keynbutton-response","255","2.0.0","4073843","19","<div class=""pb-14 text-7xl"">+</div>","null","fixation","","","","","",""
"","410","html-keynbutton-response","256","2.0.0","4074254","19","<div class=""flex flex-row stim-length pb-8 md:pd-20 justify-evenly items-center""><div class=""circle""></div><div class=""square""></div><div class=""circle""></div></div>","q","","shape_test_2","mismatch","方","q","true","方"
"","null","html-keynbutton-response","257","2.0.0","4074765","19","<div class=""pb-14 text-7xl"">+</div>","null","fixation","","","","","",""
"","433","html-keynbutton-response","258","2.0.0","4075199","19","<div class=""flex flex-row stim-length pb-8 md:pd-20 justify-evenly items-center""><div class=""square""></div><div class=""square""></div><div class=""square""></div></div>","q","","shape_test_2","match","方","q","true","方"
"","null","html-keynbutton-response","259","2.0.0","4075715","19","<div class=""pb-14 text-7xl"">+</div>","null","fixation","","","","","",""
"","379","html-keynbutton-response","260","2.0.0","4076095","19","<div class=""flex flex-row stim-length pb-8 md:pd-20 justify-evenly items-center""><div class=""square""></div><div class=""circle""></div><div class=""square""></div></div>","p","","shape_test_2","mismatch","圆","p","true","圆"
"","null","html-keynbutton-response","261","2.0.0","4076600","19","<div class=""pb-14 text-7xl"">+</div>","null","fixation","","","","","",""
"","470","html-keynbutton-response","262","2.0.0","4077071","19","<div class=""flex flex-row stim-length pb-8 md:pd-20 justify-evenly items-center""><div class=""circle""></div><div class=""circle""></div><div class=""circle""></div></div>","p","","shape_test_2","match","圆","p","true","圆"
"","null","html-keynbutton-response","263","2.0.0","4077582","19","<div class=""pb-14 text-7xl"">+</div>","null","fixation","","","","","",""
"","401","html-keynbutton-response","264","2.0.0","4077983","19","<div class=""flex flex-row stim-length pb-8 md:pd-20 justify-evenly items-center""><div class=""circle""></div><div class=""square""></div><div class=""circle""></div></div>","q","","shape_test_2","mismatch","方","q","true","方"
"","null","html-keynbutton-response","265","2.0.0","4078498","19","<div class=""pb-14 text-7xl"">+</div>","null","fixation","","","","","",""
"","396","html-keynbutton-response","266","2.0.0","4078895","19","<div class=""flex flex-row stim-length pb-8 md:pd-20 justify-evenly items-center""><div class=""square""></div><div class=""circle""></div><div class=""square""></div></div>","p","","shape_test_2","mismatch","圆","p","true","圆"
"","null","html-keynbutton-response","267","2.0.0","4079399","19","<div class=""pb-14 text-7xl"">+</div>","null","fixation","","","","","",""
"","392","html-keynbutton-response","268","2.0.0","4079792","19","<div class=""flex flex-row stim-length pb-8 md:pd-20 justify-evenly items-center""><div class=""square""></div><div class=""square""></div><div class=""square""></div></div>","q","","shape_test_2","match","方","q","true","方"
"","null","html-keynbutton-response","269","2.0.0","4080297","19","<div class=""pb-14 text-7xl"">+</div>","null","fixation","","","","","",""
"","358","html-keynbutton-response","270","2.0.0","4080655","19","<div class=""flex flex-row stim-length pb-8 md:pd-20 justify-evenly items-center""><div class=""circle""></div><div class=""circle""></div><div class=""circle""></div></div>","p","","shape_test_2","match","圆","p","true","圆"
"","null","html-keynbutton-response","271","2.0.0","4081165","19","<div class=""pb-14 text-7xl"">+</div>","null","fixation","","","","","",""
"","337","html-keynbutton-response","272","2.0.0","4081503","19","<div class=""flex flex-row stim-length pb-8 md:pd-20 justify-evenly items-center""><div class=""square""></div><div class=""circle""></div><div class=""square""></div></div>","p","","shape_test_2","mismatch","圆","p","true","圆"
"","null","html-keynbutton-response","273","2.0.0","4082015","19","<div class=""pb-14 text-7xl"">+</div>","null","fixation","","","","","",""
"","383","html-keynbutton-response","274","2.0.0","4082398","19","<div class=""flex flex-row stim-length pb-8 md:pd-20 justify-evenly items-center""><div class=""circle""></div><div class=""square""></div><div class=""circle""></div></div>","p","","shape_test_2","mismatch","方","q","false","圆"
"","null","html-keynbutton-response","275","2.0.0","4082904","19","<div class=""pb-14 text-7xl"">+</div>","null","fixation","","","","","",""
"","470","html-keynbutton-response","276","2.0.0","4083374","19","<div class=""flex flex-row stim-length pb-8 md:pd-20 justify-evenly items-center""><div class=""circle""></div><div class=""circle""></div><div class=""circle""></div></div>","p","","shape_test_2","match","圆","p","true","圆"
"","null","html-keynbutton-response","277","2.0.0","4083881","19","<div class=""pb-14 text-7xl"">+</div>","null","fixation","","","","","",""
"","565","html-keynbutton-response","278","2.0.0","4084447","19","<div class=""flex flex-row stim-length pb-8 md:pd-20 justify-evenly items-center""><div class=""square""></div><div class=""square""></div><div class=""square""></div></div>","q","","shape_test_2","match","方","q","true","方"
"","null","html-keynbutton-response","279","2.0.0","4084950","19","<div class=""pb-14 text-7xl"">+</div>","null","fixation","","","","","",""
"","360","html-keynbutton-response","280","2.0.0","4085311","19","<div class=""flex flex-row stim-length pb-8 md:pd-20 justify-evenly items-center""><div class=""square""></div><div class=""square""></div><div class=""square""></div></div>","q","","shape_test_2","match","方","q","true","方"
"","null","html-keynbutton-response","281","2.0.0","4085817","19","<div class=""pb-14 text-7xl"">+</div>","null","fixation","","","","","",""
"","405","html-keynbutton-response","282","2.0.0","4086223","19","<div class=""flex flex-row stim-length pb-8 md:pd-20 justify-evenly items-center""><div class=""square""></div><div class=""circle""></div><div class=""square""></div></div>","p","","shape_test_2","mismatch","圆","p","true","圆"
"","null","html-keynbutton-response","283","2.0.0","4086732","19","<div class=""pb-14 text-7xl"">+</div>","null","fixation","","","","","",""
"","354","html-keynbutton-response","284","2.0.0","4087087","19","<div class=""flex flex-row stim-length pb-8 md:pd-20 justify-evenly items-center""><div class=""circle""></div><div class=""square""></div><div class=""circle""></div></div>","q","","shape_test_2","mismatch","方","q","true","方"
"","null","html-keynbutton-response","285","2.0.0","4087598","19","<div class=""pb-14 text-7xl"">+</div>","null","fixation","","","","","",""
"","352","html-keynbutton-response","286","2.0.0","4087951","19","<div class=""flex flex-row stim-length pb-8 md:pd-20 justify-evenly items-center""><div class=""circle""></div><div class=""circle""></div><div class=""circle""></div></div>","p","","shape_test_2","match","圆","p","true","圆"
"","null","html-keynbutton-response","287","2.0.0","4088465","19","<div class=""pb-14 text-7xl"">+</div>","null","fixation","","","","","",""
"","350","html-keynbutton-response","288","2.0.0","4088815","19","<div class=""flex flex-row stim-length pb-8 md:pd-20 justify-evenly items-center""><div class=""circle""></div><div class=""circle""></div><div class=""circle""></div></div>","p","","shape_test_2","match","圆","p","true","圆"
"","null","html-keynbutton-response","289","2.0.0","4089332","19","<div class=""pb-14 text-7xl"">+</div>","null","fixation","","","","","",""
"","411","html-keynbutton-response","290","2.0.0","4089743","19","<div class=""flex flex-row stim-length pb-8 md:pd-20 justify-evenly items-center""><div class=""square""></div><div class=""circle""></div><div class=""square""></div></div>","p","","shape_test_2","mismatch","圆","p","true","圆"
"","null","html-keynbutton-response","291","2.0.0","4090250","19","<div class=""pb-14 text-7xl"">+</div>","null","fixation","","","","","",""
"","437","html-keynbutton-response","292","2.0.0","4090687","19","<div class=""flex flex-row stim-length pb-8 md:pd-20 justify-evenly items-center""><div class=""circle""></div><div class=""square""></div><div class=""circle""></div></div>","q","","shape_test_2","mismatch","方","q","true","方"
"","null","html-keynbutton-response","293","2.0.0","4091202","19","<div class=""pb-14 text-7xl"">+</div>","null","fixation","","","","","",""
"","444","html-keynbutton-response","294","2.0.0","4091647","19","<div class=""flex flex-row stim-length pb-8 md:pd-20 justify-evenly items-center""><div class=""square""></div><div class=""square""></div><div class=""square""></div></div>","q","","shape_test_2","match","方","q","true","方"
"","null","html-keynbutton-response","295","2.0.0","4092150","19","<div class=""pb-14 text-7xl"">+</div>","null","fixation","","","","","",""
"","392","html-keynbutton-response","296","2.0.0","4092543","19","<div class=""flex flex-row stim-length pb-8 md:pd-20 justify-evenly items-center""><div class=""square""></div><div class=""square""></div><div class=""square""></div></div>","q","","shape_test_2","match","方","q","true","方"
"","null","html-keynbutton-response","297","2.0.0","4093049","19","<div class=""pb-14 text-7xl"">+</div>","null","fixation","","","","","",""
"","388","html-keynbutton-response","298","2.0.0","4093438","19","<div class=""flex flex-row stim-length pb-8 md:pd-20 justify-evenly items-center""><div class=""square""></div><div class=""circle""></div><div class=""square""></div></div>","p","","shape_test_2","mismatch","圆","p","true","圆"
"","null","html-keynbutton-response","299","2.0.0","4093949","19","<div class=""pb-14 text-7xl"">+</div>","null","fixation","","","","","",""
"","353","html-keynbutton-response","300","2.0.0","4094303","19","<div class=""flex flex-row stim-length pb-8 md:pd-20 justify-evenly items-center""><div class=""circle""></div><div class=""circle""></div><div class=""circle""></div></div>","p","","shape_test_2","match","圆","p","true","圆"
"","null","html-keynbutton-response","301","2.0.0","4094815","19","<div class=""pb-14 text-7xl"">+</div>","null","fixation","","","","","",""
"","447","html-keynbutton-response","302","2.0.0","4095263","19","<div class=""flex flex-row stim-length pb-8 md:pd-20 justify-evenly items-center""><div class=""circle""></div><div class=""square""></div><div class=""circle""></div></div>","q","","shape_test_2","mismatch","方","q","true","方"
"","null","html-keynbutton-response","303","2.0.0","4095766","19","<div class=""pb-14 text-7xl"">+</div>","null","fixation","","","","","",""
"","360","html-keynbutton-response","304","2.0.0","4096127","19","<div class=""flex flex-row stim-length pb-8 md:pd-20 justify-evenly items-center""><div class=""square""></div><div class=""circle""></div><div class=""square""></div></div>","p","","shape_test_2","mismatch","圆","p","true","圆"
"","null","html-keynbutton-response","305","2.0.0","4096633","19","<div class=""pb-14 text-7xl"">+</div>","null","fixation","","","","","",""
"","373","html-keynbutton-response","306","2.0.0","4097007","19","<div class=""flex flex-row stim-length pb-8 md:pd-20 justify-evenly items-center""><div class=""circle""></div><div class=""square""></div><div class=""circle""></div></div>","q","","shape_test_2","mismatch","方","q","true","方"
"","null","html-keynbutton-response","307","2.0.0","4097515","19","<div class=""pb-14 text-7xl"">+</div>","null","fixation","","","","","",""
"","388","html-keynbutton-response","308","2.0.0","4097903","19","<div class=""flex flex-row stim-length pb-8 md:pd-20 justify-evenly items-center""><div class=""square""></div><div class=""square""></div><div class=""square""></div></div>","p","","shape_test_2","match","方","q","false","圆"
"","null","html-keynbutton-response","309","2.0.0","4098415","19","<div class=""pb-14 text-7xl"">+</div>","null","fixation","","","","","",""
"","655","html-keynbutton-response","310","2.0.0","4099071","19","<div class=""flex flex-row stim-length pb-8 md:pd-20 justify-evenly items-center""><div class=""circle""></div><div class=""circle""></div><div class=""circle""></div></div>","p","","shape_test_2","match","圆","p","true","圆"
"","12910","html-keynbutton-response","311","2.0.0","4111983","19","<div class=""jp""><p>您已完成3/10部分</p><p>请休息一会儿</p>
    <p>您的正确率是：95%</p>
    <p>您的平均反应时间是：414毫秒</p></div>"," ","block_feedback","","","","","",""
"","null","html-keynbutton-response","312","2.0.0","4115196","19","<count-down title=""""></count-down>","null","countDown_trial","","","","","",""
"","null","html-keynbutton-response","313","2.0.0","4115700","19","<div class=""pb-14 text-7xl"">+</div>","null","fixation","","","","","",""
"","427","html-keynbutton-response","314","2.0.0","4116127","19","<div class=""flex flex-row stim-length pb-8 md:pd-20 justify-evenly items-center""><div class=""square""></div><div class=""circle""></div><div class=""square""></div></div>","p","","shape_test_3","mismatch","圆","p","true","圆"
"","null","html-keynbutton-response","315","2.0.0","4116634","19","<div class=""pb-14 text-7xl"">+</div>","null","fixation","","","","","",""
"","388","html-keynbutton-response","316","2.0.0","4117023","19","<div class=""flex flex-row stim-length pb-8 md:pd-20 justify-evenly items-center""><div class=""circle""></div><div class=""square""></div><div class=""circle""></div></div>","q","","shape_test_3","mismatch","方","q","true","方"
"","null","html-keynbutton-response","317","2.0.0","4117532","19","<div class=""pb-14 text-7xl"">+</div>","null","fixation","","","","","",""
"","466","html-keynbutton-response","318","2.0.0","4117999","19","<div class=""flex flex-row stim-length pb-8 md:pd-20 justify-evenly items-center""><div class=""circle""></div><div class=""circle""></div><div class=""circle""></div></div>","p","","shape_test_3","match","圆","p","true","圆"
"","null","html-keynbutton-response","319","2.0.0","4118515","19","<div class=""pb-14 text-7xl"">+</div>","null","fixation","","","","","",""
"","363","html-keynbutton-response","320","2.0.0","4118879","19","<div class=""flex flex-row stim-length pb-8 md:pd-20 justify-evenly items-center""><div class=""square""></div><div class=""square""></div><div class=""square""></div></div>","q","","shape_test_3","match","方","q","true","方"
"","null","html-keynbutton-response","321","2.0.0","4119383","19","<div class=""pb-14 text-7xl"">+</div>","null","fixation","","","","","",""
"","375","html-keynbutton-response","322","2.0.0","4119758","19","<div class=""flex flex-row stim-length pb-8 md:pd-20 justify-evenly items-center""><div class=""square""></div><div class=""square""></div><div class=""square""></div></div>","q","","shape_test_3","match","方","q","true","方"
"","null","html-keynbutton-response","323","2.0.0","4120266","19","<div class=""pb-14 text-7xl"">+</div>","null","fixation","","","","","",""
"","357","html-keynbutton-response","324","2.0.0","4120623","19","<div class=""flex flex-row stim-length pb-8 md:pd-20 justify-evenly items-center""><div class=""circle""></div><div class=""square""></div><div class=""circle""></div></div>","q","","shape_test_3","mismatch","方","q","true","方"
"","null","html-keynbutton-response","325","2.0.0","4121132","19","<div class=""pb-14 text-7xl"">+</div>","null","fixation","","","","","",""
"","339","html-keynbutton-response","326","2.0.0","4121471","19","<div class=""flex flex-row stim-length pb-8 md:pd-20 justify-evenly items-center""><div class=""square""></div><div class=""circle""></div><div class=""square""></div></div>","p","","shape_test_3","mismatch","圆","p","true","圆"
"","null","html-keynbutton-response","327","2.0.0","4121981","19","<div class=""pb-14 text-7xl"">+</div>","null","fixation","","","","","",""
"","305","html-keynbutton-response","328","2.0.0","4122287","19","<div class=""flex flex-row stim-length pb-8 md:pd-20 justify-evenly items-center""><div class=""circle""></div><div class=""circle""></div><div class=""circle""></div></div>","p","","shape_test_3","match","圆","p","true","圆"
"","null","html-keynbutton-response","329","2.0.0","4122799","19","<div class=""pb-14 text-7xl"">+</div>","null","fixation","","","","","",""
"","368","html-keynbutton-response","330","2.0.0","4123167","19","<div class=""flex flex-row stim-length pb-8 md:pd-20 justify-evenly items-center""><div class=""square""></div><div class=""circle""></div><div class=""square""></div></div>","p","","shape_test_3","mismatch","圆","p","true","圆"
"","null","html-keynbutton-response","331","2.0.0","4123681","19","<div class=""pb-14 text-7xl"">+</div>","null","fixation","","","","","",""
"","445","html-keynbutton-response","332","2.0.0","4124127","19","<div class=""flex flex-row stim-length pb-8 md:pd-20 justify-evenly items-center""><div class=""circle""></div><div class=""square""></div><div class=""circle""></div></div>","q","","shape_test_3","mismatch","方","q","true","方"
"","null","html-keynbutton-response","333","2.0.0","4124634","19","<div class=""pb-14 text-7xl"">+</div>","null","fixation","","","","","",""
"","628","html-keynbutton-response","334","2.0.0","4125263","19","<div class=""flex flex-row stim-length pb-8 md:pd-20 justify-evenly items-center""><div class=""circle""></div><div class=""circle""></div><div class=""circle""></div></div>","p","","shape_test_3","match","圆","p","true","圆"
"","null","html-keynbutton-response","335","2.0.0","4125767","19","<div class=""pb-14 text-7xl"">+</div>","null","fixation","","","","","",""
"","395","html-keynbutton-response","336","2.0.0","4126162","19","<div class=""flex flex-row stim-length pb-8 md:pd-20 justify-evenly items-center""><div class=""square""></div><div class=""square""></div><div class=""square""></div></div>","q","","shape_test_3","match","方","q","true","方"
"","null","html-keynbutton-response","337","2.0.0","4126666","19","<div class=""pb-14 text-7xl"">+</div>","null","fixation","","","","","",""
"","420","html-keynbutton-response","338","2.0.0","4127087","19","<div class=""flex flex-row stim-length pb-8 md:pd-20 justify-evenly items-center""><div class=""circle""></div><div class=""square""></div><div class=""circle""></div></div>","q","","shape_test_3","mismatch","方","q","true","方"
"","null","html-keynbutton-response","339","2.0.0","4127598","19","<div class=""pb-14 text-7xl"">+</div>","null","fixation","","","","","",""
"","432","html-keynbutton-response","340","2.0.0","4128031","19","<div class=""flex flex-row stim-length pb-8 md:pd-20 justify-evenly items-center""><div class=""circle""></div><div class=""circle""></div><div class=""circle""></div></div>","p","","shape_test_3","match","圆","p","true","圆"
"","null","html-keynbutton-response","341","2.0.0","4128533","19","<div class=""pb-14 text-7xl"">+</div>","null","fixation","","","","","",""
"","426","html-keynbutton-response","342","2.0.0","4128959","19","<div class=""flex flex-row stim-length pb-8 md:pd-20 justify-evenly items-center""><div class=""square""></div><div class=""square""></div><div class=""square""></div></div>","q","","shape_test_3","match","方","q","true","方"
"","null","html-keynbutton-response","343","2.0.0","4129466","19","<div class=""pb-14 text-7xl"">+</div>","null","fixation","","","","","",""
"","387","html-keynbutton-response","344","2.0.0","4129854","19","<div class=""flex flex-row stim-length pb-8 md:pd-20 justify-evenly items-center""><div class=""square""></div><div class=""circle""></div><div class=""square""></div></div>","p","","shape_test_3","mismatch","圆","p","true","圆"
"","null","html-keynbutton-response","345","2.0.0","4130365","19","<div class=""pb-14 text-7xl"">+</div>","null","fixation","","","","","",""
"","433","html-keynbutton-response","346","2.0.0","4130799","19","<div class=""flex flex-row stim-length pb-8 md:pd-20 justify-evenly items-center""><div class=""square""></div><div class=""circle""></div><div class=""square""></div></div>","p","","shape_test_3","mismatch","圆","p","true","圆"
"","null","html-keynbutton-response","347","2.0.0","4131300","19","<div class=""pb-14 text-7xl"">+</div>","null","fixation","","","","","",""
"","346","html-keynbutton-response","348","2.0.0","4131647","19","<div class=""flex flex-row stim-length pb-8 md:pd-20 justify-evenly items-center""><div class=""circle""></div><div class=""square""></div><div class=""circle""></div></div>","q","","shape_test_3","mismatch","方","q","true","方"
"","null","html-keynbutton-response","349","2.0.0","4132149","19","<div class=""pb-14 text-7xl"">+</div>","null","fixation","","","","","",""
"","521","html-keynbutton-response","350","2.0.0","4132671","19","<div class=""flex flex-row stim-length pb-8 md:pd-20 justify-evenly items-center""><div class=""circle""></div><div class=""circle""></div><div class=""circle""></div></div>","p","","shape_test_3","match","圆","p","true","圆"
"","null","html-keynbutton-response","351","2.0.0","4133182","19","<div class=""pb-14 text-7xl"">+</div>","null","fixation","","","","","",""
"","433","html-keynbutton-response","352","2.0.0","4133615","19","<div class=""flex flex-row stim-length pb-8 md:pd-20 justify-evenly items-center""><div class=""square""></div><div class=""square""></div><div class=""square""></div></div>","q","","shape_test_3","match","方","q","true","方"
"","null","html-keynbutton-response","353","2.0.0","4134116","19","<div class=""pb-14 text-7xl"">+</div>","null","fixation","","","","","",""
"","410","html-keynbutton-response","354","2.0.0","4134527","19","<div class=""flex flex-row stim-length pb-8 md:pd-20 justify-evenly items-center""><div class=""circle""></div><div class=""circle""></div><div class=""circle""></div></div>","p","","shape_test_3","match","圆","p","true","圆"
"","null","html-keynbutton-response","355","2.0.0","4135035","19","<div class=""pb-14 text-7xl"">+</div>","null","fixation","","","","","",""
"","436","html-keynbutton-response","356","2.0.0","4135472","19","<div class=""flex flex-row stim-length pb-8 md:pd-20 justify-evenly items-center""><div class=""circle""></div><div class=""square""></div><div class=""circle""></div></div>","q","","shape_test_3","mismatch","方","q","true","方"
"","null","html-keynbutton-response","357","2.0.0","4135982","19","<div class=""pb-14 text-7xl"">+</div>","null","fixation","","","","","",""
"","401","html-keynbutton-response","358","2.0.0","4136383","19","<div class=""flex flex-row stim-length pb-8 md:pd-20 justify-evenly items-center""><div class=""square""></div><div class=""square""></div><div class=""square""></div></div>","q","","shape_test_3","match","方","q","true","方"
"","null","html-keynbutton-response","359","2.0.0","4136898","19","<div class=""pb-14 text-7xl"">+</div>","null","fixation","","","","","",""
"","429","html-keynbutton-response","360","2.0.0","4137327","19","<div class=""flex flex-row stim-length pb-8 md:pd-20 justify-evenly items-center""><div class=""square""></div><div class=""circle""></div><div class=""square""></div></div>","p","","shape_test_3","mismatch","圆","p","true","圆"
"","null","html-keynbutton-response","361","2.0.0","4137834","19","<div class=""pb-14 text-7xl"">+</div>","null","fixation","","","","","",""
"","421","html-keynbutton-response","362","2.0.0","4138256","19","<div class=""flex flex-row stim-length pb-8 md:pd-20 justify-evenly items-center""><div class=""circle""></div><div class=""square""></div><div class=""circle""></div></div>","q","","shape_test_3","mismatch","方","q","true","方"
"","null","html-keynbutton-response","363","2.0.0","4138765","19","<div class=""pb-14 text-7xl"">+</div>","null","fixation","","","","","",""
"","417","html-keynbutton-response","364","2.0.0","4139183","19","<div class=""flex flex-row stim-length pb-8 md:pd-20 justify-evenly items-center""><div class=""square""></div><div class=""square""></div><div class=""square""></div></div>","q","","shape_test_3","match","方","q","true","方"
"","null","html-keynbutton-response","365","2.0.0","4139699","19","<div class=""pb-14 text-7xl"">+</div>","null","fixation","","","","","",""
"","428","html-keynbutton-response","366","2.0.0","4140127","19","<div class=""flex flex-row stim-length pb-8 md:pd-20 justify-evenly items-center""><div class=""square""></div><div class=""circle""></div><div class=""square""></div></div>","p","","shape_test_3","mismatch","圆","p","true","圆"
"","null","html-keynbutton-response","367","2.0.0","4140634","19","<div class=""pb-14 text-7xl"">+</div>","null","fixation","","","","","",""
"","453","html-keynbutton-response","368","2.0.0","4141088","19","<div class=""flex flex-row stim-length pb-8 md:pd-20 justify-evenly items-center""><div class=""circle""></div><div class=""circle""></div><div class=""circle""></div></div>","p","","shape_test_3","match","圆","p","true","圆"
"","null","html-keynbutton-response","369","2.0.0","4141598","19","<div class=""pb-14 text-7xl"">+</div>","null","fixation","","","","","",""
"","431","html-keynbutton-response","370","2.0.0","4142031","19","<div class=""flex flex-row stim-length pb-8 md:pd-20 justify-evenly items-center""><div class=""circle""></div><div class=""circle""></div><div class=""circle""></div></div>","p","","shape_test_3","match","圆","p","true","圆"
"","null","html-keynbutton-response","371","2.0.0","4142533","19","<div class=""pb-14 text-7xl"">+</div>","null","fixation","","","","","",""
"","456","html-keynbutton-response","372","2.0.0","4142991","19","<div class=""flex flex-row stim-length pb-8 md:pd-20 justify-evenly items-center""><div class=""square""></div><div class=""circle""></div><div class=""square""></div></div>","p","","shape_test_3","mismatch","圆","p","true","圆"
"","null","html-keynbutton-response","373","2.0.0","4143498","19","<div class=""pb-14 text-7xl"">+</div>","null","fixation","","","","","",""
"","372","html-keynbutton-response","374","2.0.0","4143871","19","<div class=""flex flex-row stim-length pb-8 md:pd-20 justify-evenly items-center""><div class=""circle""></div><div class=""square""></div><div class=""circle""></div></div>","q","","shape_test_3","mismatch","方","q","true","方"
"","null","html-keynbutton-response","375","2.0.0","4144382","19","<div class=""pb-14 text-7xl"">+</div>","null","fixation","","","","","",""
"","352","html-keynbutton-response","376","2.0.0","4144735","19","<div class=""flex flex-row stim-length pb-8 md:pd-20 justify-evenly items-center""><div class=""square""></div><div class=""square""></div><div class=""square""></div></div>","q","","shape_test_3","match","方","q","true","方"
"","null","html-keynbutton-response","377","2.0.0","4145248","19","<div class=""pb-14 text-7xl"">+</div>","null","fixation","","","","","",""
"","334","html-keynbutton-response","378","2.0.0","4145583","19","<div class=""flex flex-row stim-length pb-8 md:pd-20 justify-evenly items-center""><div class=""square""></div><div class=""square""></div><div class=""square""></div></div>","q","","shape_test_3","match","方","q","true","方"
"","null","html-keynbutton-response","379","2.0.0","4146099","19","<div class=""pb-14 text-7xl"">+</div>","null","fixation","","","","","",""
"","427","html-keynbutton-response","380","2.0.0","4146527","19","<div class=""flex flex-row stim-length pb-8 md:pd-20 justify-evenly items-center""><div class=""square""></div><div class=""circle""></div><div class=""square""></div></div>","p","","shape_test_3","mismatch","圆","p","true","圆"
"","null","html-keynbutton-response","381","2.0.0","4147034","19","<div class=""pb-14 text-7xl"">+</div>","null","fixation","","","","","",""
"","453","html-keynbutton-response","382","2.0.0","4147487","19","<div class=""flex flex-row stim-length pb-8 md:pd-20 justify-evenly items-center""><div class=""circle""></div><div class=""square""></div><div class=""circle""></div></div>","q","","shape_test_3","mismatch","方","q","true","方"
"","null","html-keynbutton-response","383","2.0.0","4147999","19","<div class=""pb-14 text-7xl"">+</div>","null","fixation","","","","","",""
"","384","html-keynbutton-response","384","2.0.0","4148383","19","<div class=""flex flex-row stim-length pb-8 md:pd-20 justify-evenly items-center""><div class=""circle""></div><div class=""circle""></div><div class=""circle""></div></div>","p","","shape_test_3","match","圆","p","true","圆"
"","null","html-keynbutton-response","385","2.0.0","4148899","19","<div class=""pb-14 text-7xl"">+</div>","null","fixation","","","","","",""
"","396","html-keynbutton-response","386","2.0.0","4149295","19","<div class=""flex flex-row stim-length pb-8 md:pd-20 justify-evenly items-center""><div class=""circle""></div><div class=""square""></div><div class=""circle""></div></div>","q","","shape_test_3","mismatch","方","q","true","方"
"","null","html-keynbutton-response","387","2.0.0","4149800","19","<div class=""pb-14 text-7xl"">+</div>","null","fixation","","","","","",""
"","423","html-keynbutton-response","388","2.0.0","4150223","19","<div class=""flex flex-row stim-length pb-8 md:pd-20 justify-evenly items-center""><div class=""square""></div><div class=""square""></div><div class=""square""></div></div>","q","","shape_test_3","match","方","q","true","方"
"","null","html-keynbutton-response","389","2.0.0","4150732","19","<div class=""pb-14 text-7xl"">+</div>","null","fixation","","","","","",""
"","451","html-keynbutton-response","390","2.0.0","4151183","19","<div class=""flex flex-row stim-length pb-8 md:pd-20 justify-evenly items-center""><div class=""square""></div><div class=""circle""></div><div class=""square""></div></div>","p","","shape_test_3","mismatch","圆","p","true","圆"
"","null","html-keynbutton-response","391","2.0.0","4151699","19","<div class=""pb-14 text-7xl"">+</div>","null","fixation","","","","","",""
"","492","html-keynbutton-response","392","2.0.0","4152191","19","<div class=""flex flex-row stim-length pb-8 md:pd-20 justify-evenly items-center""><div class=""circle""></div><div class=""circle""></div><div class=""circle""></div></div>","p","","shape_test_3","match","圆","p","true","圆"
"","4990","html-keynbutton-response","393","2.0.0","4157183","19","<div class=""jp""><p>您已完成4/10部分</p><p>请休息一会儿</p>
    <p>您的正确率是：100%</p>
    <p>您的平均反应时间是：416毫秒</p></div>"," ","block_feedback","","","","","",""
"","null","html-keynbutton-response","394","2.0.0","4160396","19","<count-down title=""""></count-down>","null","countDown_trial","","","","","",""
"","null","html-keynbutton-response","395","2.0.0","4160900","19","<div class=""pb-14 text-7xl"">+</div>","null","fixation","","","","","",""
"","539","html-keynbutton-response","396","2.0.0","4161439","19","<div class=""flex flex-row stim-length pb-8 md:pd-20 justify-evenly items-center""><div class=""square""></div><div class=""square""></div><div class=""square""></div></div>","q","","shape_test_4","match","方","q","true","方"
"","null","html-keynbutton-response","397","2.0.0","4161950","19","<div class=""pb-14 text-7xl"">+</div>","null","fixation","","","","","",""
"","401","html-keynbutton-response","398","2.0.0","4162351","19","<div class=""flex flex-row stim-length pb-8 md:pd-20 justify-evenly items-center""><div class=""square""></div><div class=""circle""></div><div class=""square""></div></div>","p","","shape_test_4","mismatch","圆","p","true","圆"
"","null","html-keynbutton-response","399","2.0.0","4162865","19","<div class=""pb-14 text-7xl"">+</div>","null","fixation","","","","","",""
"","445","html-keynbutton-response","400","2.0.0","4163311","19","<div class=""flex flex-row stim-length pb-8 md:pd-20 justify-evenly items-center""><div class=""circle""></div><div class=""circle""></div><div class=""circle""></div></div>","p","","shape_test_4","match","圆","p","true","圆"
"","null","html-keynbutton-response","401","2.0.0","4163818","19","<div class=""pb-14 text-7xl"">+</div>","null","fixation","","","","","",""
"","404","html-keynbutton-response","402","2.0.0","4164223","19","<div class=""flex flex-row stim-length pb-8 md:pd-20 justify-evenly items-center""><div class=""circle""></div><div class=""square""></div><div class=""circle""></div></div>","q","","shape_test_4","mismatch","方","q","true","方"
"","null","html-keynbutton-response","403","2.0.0","4164733","19","<div class=""pb-14 text-7xl"">+</div>","null","fixation","","","","","",""
"","481","html-keynbutton-response","404","2.0.0","4165215","19","<div class=""flex flex-row stim-length pb-8 md:pd-20 justify-evenly items-center""><div class=""square""></div><div class=""circle""></div><div class=""square""></div></div>","p","","shape_test_4","mismatch","圆","p","true","圆"
"","null","html-keynbutton-response","405","2.0.0","4165718","19","<div class=""pb-14 text-7xl"">+</div>","null","fixation","","","","","",""
"","377","html-keynbutton-response","406","2.0.0","4166095","19","<div class=""flex flex-row stim-length pb-8 md:pd-20 justify-evenly items-center""><div class=""square""></div><div class=""square""></div><div class=""square""></div></div>","q","","shape_test_4","match","方","q","true","方"
"","null","html-keynbutton-response","407","2.0.0","4166600","19","<div class=""pb-14 text-7xl"">+</div>","null","fixation","","","","","",""
"","438","html-keynbutton-response","408","2.0.0","4167039","19","<div class=""flex flex-row stim-length pb-8 md:pd-20 justify-evenly items-center""><div class=""circle""></div><div class=""square""></div><div class=""circle""></div></div>","q","","shape_test_4","mismatch","方","q","true","方"
"","null","html-keynbutton-response","409","2.0.0","4167549","19","<div class=""pb-14 text-7xl"">+</div>","null","fixation","","","","","",""
"","353","html-keynbutton-response","410","2.0.0","4167904","19","<div class=""flex flex-row stim-length pb-8 md:pd-20 justify-evenly items-center""><div class=""circle""></div><div class=""circle""></div><div class=""circle""></div></div>","p","","shape_test_4","match","圆","p","true","圆"
"","null","html-keynbutton-response","411","2.0.0","4168416","19","<div class=""pb-14 text-7xl"">+</div>","null","fixation","","","","","",""
"","367","html-keynbutton-response","412","2.0.0","4168783","19","<div class=""flex flex-row stim-length pb-8 md:pd-20 justify-evenly items-center""><div class=""square""></div><div class=""circle""></div><div class=""square""></div></div>","p","","shape_test_4","mismatch","圆","p","true","圆"
"","null","html-keynbutton-response","413","2.0.0","4169298","19","<div class=""pb-14 text-7xl"">+</div>","null","fixation","","","","","",""
"","380","html-keynbutton-response","414","2.0.0","4169679","19","<div class=""flex flex-row stim-length pb-8 md:pd-20 justify-evenly items-center""><div class=""square""></div><div class=""square""></div><div class=""square""></div></div>","q","","shape_test_4","match","方","q","true","方"
"","null","html-keynbutton-response","415","2.0.0","4170183","19","<div class=""pb-14 text-7xl"">+</div>","null","fixation","","","","","",""
"","344","html-keynbutton-response","416","2.0.0","4170527","19","<div class=""flex flex-row stim-length pb-8 md:pd-20 justify-evenly items-center""><div class=""circle""></div><div class=""square""></div><div class=""circle""></div></div>","q","","shape_test_4","mismatch","方","q","true","方"
"","null","html-keynbutton-response","417","2.0.0","4171034","19","<div class=""pb-14 text-7xl"">+</div>","null","fixation","","","","","",""
"","436","html-keynbutton-response","418","2.0.0","4171472","19","<div class=""flex flex-row stim-length pb-8 md:pd-20 justify-evenly items-center""><div class=""circle""></div><div class=""circle""></div><div class=""circle""></div></div>","q","","shape_test_4","match","圆","p","false","方"
"","null","html-keynbutton-response","419","2.0.0","4171982","19","<div class=""pb-14 text-7xl"">+</div>","null","fixation","","","","","",""
"","545","html-keynbutton-response","420","2.0.0","4172528","19","<div class=""flex flex-row stim-length pb-8 md:pd-20 justify-evenly items-center""><div class=""square""></div><div class=""circle""></div><div class=""square""></div></div>","p","","shape_test_4","mismatch","圆","p","true","圆"
"","null","html-keynbutton-response","421","2.0.0","4173034","19","<div class=""pb-14 text-7xl"">+</div>","null","fixation","","","","","",""
"","421","html-keynbutton-response","422","2.0.0","4173456","19","<div class=""flex flex-row stim-length pb-8 md:pd-20 justify-evenly items-center""><div class=""circle""></div><div class=""square""></div><div class=""circle""></div></div>","q","","shape_test_4","mismatch","方","q","true","方"
"","null","html-keynbutton-response","423","2.0.0","4173968","19","<div class=""pb-14 text-7xl"">+</div>","null","fixation","","","","","",""
"","543","html-keynbutton-response","424","2.0.0","4174512","19","<div class=""flex flex-row stim-length pb-8 md:pd-20 justify-evenly items-center""><div class=""circle""></div><div class=""circle""></div><div class=""circle""></div></div>","p","","shape_test_4","match","圆","p","true","圆"
"","null","html-keynbutton-response","425","2.0.0","4175017","19","<div class=""pb-14 text-7xl"">+</div>","null","fixation","","","","","",""
"","821","html-keynbutton-response","426","2.0.0","4175839","19","<div class=""flex flex-row stim-length pb-8 md:pd-20 justify-evenly items-center""><div class=""square""></div><div class=""square""></div><div class=""square""></div></div>","q","","shape_test_4","match","方","q","true","方"
"","null","html-keynbutton-response","427","2.0.0","4176347","19","<div class=""pb-14 text-7xl"">+</div>","null","fixation","","","","","",""
"","483","html-keynbutton-response","428","2.0.0","4176831","19","<div class=""flex flex-row stim-length pb-8 md:pd-20 justify-evenly items-center""><div class=""square""></div><div class=""circle""></div><div class=""square""></div></div>","p","","shape_test_4","mismatch","圆","p","true","圆"
"","null","html-keynbutton-response","429","2.0.0","4177333","19","<div class=""pb-14 text-7xl"">+</div>","null","fixation","","","","","",""
"","441","html-keynbutton-response","430","2.0.0","4177775","19","<div class=""flex flex-row stim-length pb-8 md:pd-20 justify-evenly items-center""><div class=""circle""></div><div class=""circle""></div><div class=""circle""></div></div>","p","","shape_test_4","match","圆","p","true","圆"
"","null","html-keynbutton-response","431","2.0.0","4178282","19","<div class=""pb-14 text-7xl"">+</div>","null","fixation","","","","","",""
"","389","html-keynbutton-response","432","2.0.0","4178671","19","<div class=""flex flex-row stim-length pb-8 md:pd-20 justify-evenly items-center""><div class=""circle""></div><div class=""square""></div><div class=""circle""></div></div>","q","","shape_test_4","mismatch","方","q","true","方"
"","null","html-keynbutton-response","433","2.0.0","4179182","19","<div class=""pb-14 text-7xl"">+</div>","null","fixation","","","","","",""
"","400","html-keynbutton-response","434","2.0.0","4179583","19","<div class=""flex flex-row stim-length pb-8 md:pd-20 justify-evenly items-center""><div class=""square""></div><div class=""square""></div><div class=""square""></div></div>","q","","shape_test_4","match","方","q","true","方"
"","null","html-keynbutton-response","435","2.0.0","4180100","19","<div class=""pb-14 text-7xl"">+</div>","null","fixation","","","","","",""
"","395","html-keynbutton-response","436","2.0.0","4180495","19","<div class=""flex flex-row stim-length pb-8 md:pd-20 justify-evenly items-center""><div class=""circle""></div><div class=""square""></div><div class=""circle""></div></div>","q","","shape_test_4","mismatch","方","q","true","方"
"","null","html-keynbutton-response","437","2.0.0","4181000","19","<div class=""pb-14 text-7xl"">+</div>","null","fixation","","","","","",""
"","423","html-keynbutton-response","438","2.0.0","4181424","19","<div class=""flex flex-row stim-length pb-8 md:pd-20 justify-evenly items-center""><div class=""square""></div><div class=""circle""></div><div class=""square""></div></div>","p","","shape_test_4","mismatch","圆","p","true","圆"
"","null","html-keynbutton-response","439","2.0.0","4181932","19","<div class=""pb-14 text-7xl"">+</div>","null","fixation","","","","","",""
"","530","html-keynbutton-response","440","2.0.0","4182463","19","<div class=""flex flex-row stim-length pb-8 md:pd-20 justify-evenly items-center""><div class=""circle""></div><div class=""circle""></div><div class=""circle""></div></div>","p","","shape_test_4","match","圆","p","true","圆"
"","null","html-keynbutton-response","441","2.0.0","4182967","19","<div class=""pb-14 text-7xl"">+</div>","null","fixation","","","","","",""
"","375","html-keynbutton-response","442","2.0.0","4183342","19","<div class=""flex flex-row stim-length pb-8 md:pd-20 justify-evenly items-center""><div class=""square""></div><div class=""square""></div><div class=""square""></div></div>","q","","shape_test_4","match","方","q","true","方"
"","null","html-keynbutton-response","443","2.0.0","4183851","19","<div class=""pb-14 text-7xl"">+</div>","null","fixation","","","","","",""
"","483","html-keynbutton-response","444","2.0.0","4184335","19","<div class=""flex flex-row stim-length pb-8 md:pd-20 justify-evenly items-center""><div class=""circle""></div><div class=""circle""></div><div class=""circle""></div></div>","p","","shape_test_4","match","圆","p","true","圆"
"","null","html-keynbutton-response","445","2.0.0","4184849","19","<div class=""pb-14 text-7xl"">+</div>","null","fixation","","","","","",""
"","413","html-keynbutton-response","446","2.0.0","4185262","19","<div class=""flex flex-row stim-length pb-8 md:pd-20 justify-evenly items-center""><div class=""square""></div><div class=""circle""></div><div class=""square""></div></div>","p","","shape_test_4","mismatch","圆","p","true","圆"
"","null","html-keynbutton-response","447","2.0.0","4185767","19","<div class=""pb-14 text-7xl"">+</div>","null","fixation","","","","","",""
"","424","html-keynbutton-response","448","2.0.0","4186191","19","<div class=""flex flex-row stim-length pb-8 md:pd-20 justify-evenly items-center""><div class=""circle""></div><div class=""square""></div><div class=""circle""></div></div>","q","","shape_test_4","mismatch","方","q","true","方"
"","null","html-keynbutton-response","449","2.0.0","4186698","19","<div class=""pb-14 text-7xl"">+</div>","null","fixation","","","","","",""
"","436","html-keynbutton-response","450","2.0.0","4187136","19","<div class=""flex flex-row stim-length pb-8 md:pd-20 justify-evenly items-center""><div class=""square""></div><div class=""square""></div><div class=""square""></div></div>","q","","shape_test_4","match","方","q","true","方"
"","null","html-keynbutton-response","451","2.0.0","4187648","19","<div class=""pb-14 text-7xl"">+</div>","null","fixation","","","","","",""
"","430","html-keynbutton-response","452","2.0.0","4188080","19","<div class=""flex flex-row stim-length pb-8 md:pd-20 justify-evenly items-center""><div class=""circle""></div><div class=""circle""></div><div class=""circle""></div></div>","p","","shape_test_4","match","圆","p","true","圆"
"","null","html-keynbutton-response","453","2.0.0","4188583","19","<div class=""pb-14 text-7xl"">+</div>","null","fixation","","","","","",""
"","456","html-keynbutton-response","454","2.0.0","4189039","19","<div class=""flex flex-row stim-length pb-8 md:pd-20 justify-evenly items-center""><div class=""square""></div><div class=""circle""></div><div class=""square""></div></div>","q","","shape_test_4","mismatch","圆","p","false","方"
"","null","html-keynbutton-response","455","2.0.0","4189547","19","<div class=""pb-14 text-7xl"">+</div>","null","fixation","","","","","",""
"","610","html-keynbutton-response","456","2.0.0","4190158","19","<div class=""flex flex-row stim-length pb-8 md:pd-20 justify-evenly items-center""><div class=""circle""></div><div class=""square""></div><div class=""circle""></div></div>","q","","shape_test_4","mismatch","方","q","true","方"
"","null","html-keynbutton-response","457","2.0.0","4190666","19","<div class=""pb-14 text-7xl"">+</div>","null","fixation","","","","","",""
"","532","html-keynbutton-response","458","2.0.0","4191199","19","<div class=""flex flex-row stim-length pb-8 md:pd-20 justify-evenly items-center""><div class=""square""></div><div class=""square""></div><div class=""square""></div></div>","q","","shape_test_4","match","方","q","true","方"
"","null","html-keynbutton-response","459","2.0.0","4191700","19","<div class=""pb-14 text-7xl"">+</div>","null","fixation","","","","","",""
"","426","html-keynbutton-response","460","2.0.0","4192127","19","<div class=""flex flex-row stim-length pb-8 md:pd-20 justify-evenly items-center""><div class=""square""></div><div class=""circle""></div><div class=""square""></div></div>","p","","shape_test_4","mismatch","圆","p","true","圆"
"","null","html-keynbutton-response","461","2.0.0","4192638","19","<div class=""pb-14 text-7xl"">+</div>","null","fixation","","","","","",""
"","497","html-keynbutton-response","462","2.0.0","4193135","19","<div class=""flex flex-row stim-length pb-8 md:pd-20 justify-evenly items-center""><div class=""circle""></div><div class=""square""></div><div class=""circle""></div></div>","q","","shape_test_4","mismatch","方","q","true","方"
"","null","html-keynbutton-response","463","2.0.0","4193649","19","<div class=""pb-14 text-7xl"">+</div>","null","fixation","","","","","",""
"","510","html-keynbutton-response","464","2.0.0","4194159","19","<div class=""flex flex-row stim-length pb-8 md:pd-20 justify-evenly items-center""><div class=""square""></div><div class=""square""></div><div class=""square""></div></div>","q","","shape_test_4","match","方","q","true","方"
"","null","html-keynbutton-response","465","2.0.0","4194667","19","<div class=""pb-14 text-7xl"">+</div>","null","fixation","","","","","",""
