"success","rt","trial_type","trial_index","plugin_version","time_elapsed","subj_id","stimulus","response","trail_tag","task","ismatch","target","correct_key","correct","response_key"
"true","2642309","fullscreen","0","2.0.0","2643322","17","","","","","","","","",""
"","29418","html-keynbutton-response","1","2.0.0","2672744","17","
        <div class=""jp px-2 xxs:px-5 mx-auto"">
        <p class=""text-center text-red-600 text-[1.2em] pb-5"">欢迎您参加知觉
          <strong>判断实验。</strong>
        </p>
        <p>接下来的任务中您将看到一排图形。</p>
        <p>(圆形●或方形■)</p><p>您的任务是<strong>忽略两侧的图形，专注于中间的图形</strong>。</p>
        <p>如果中间的图形是圆，请按“q”；</p>
        <p>如果是方，请按“p”。</p><p>请尽量又快又准地做出反应。</p>
      <p>请按空格键开始练习。</p>
      </div>"," ","","","","","","",""
"","null","html-keynbutton-response","2","2.0.0","2675954","17","<count-down title=""""></count-down>","null","countDown_trial","","","","","",""
"","null","html-keynbutton-response","3","2.0.0","2676459","17","<div class=""pb-14 text-7xl"">+</div>","null","fixation","","","","","",""
"","778","html-keynbutton-response","4","2.0.0","2677238","17","<div class=""flex flex-row stim-length pb-8 md:pd-20 justify-evenly items-center""><div class=""square""></div><div class=""square""></div><div class=""square""></div></div>","p","","shape_practice","match","方","p","true","方"
"","null","html-keynbutton-response","5","2.0.0","2677756","17","<span class='text-green-400 text-4xl md:text-5xl lg:text-6xl'>正确!</span>","null","trial_feedback","","","","","",""
"","null","html-keynbutton-response","6","2.0.0","2678258","17","<div class=""pb-14 text-7xl"">+</div>","null","fixation","","","","","",""
"","402","html-keynbutton-response","7","2.0.0","2678661","17","<div class=""flex flex-row stim-length pb-8 md:pd-20 justify-evenly items-center""><div class=""square""></div><div class=""circle""></div><div class=""square""></div></div>","q","","shape_practice","mismatch","圆","q","true","圆"
"","null","html-keynbutton-response","8","2.0.0","2679172","17","<span class='text-green-400 text-4xl md:text-5xl lg:text-6xl'>正确!</span>","null","trial_feedback","","","","","",""
"","null","html-keynbutton-response","9","2.0.0","2679675","17","<div class=""pb-14 text-7xl"">+</div>","null","fixation","","","","","",""
"","1433","html-keynbutton-response","10","2.0.0","2681109","17","<div class=""flex flex-row stim-length pb-8 md:pd-20 justify-evenly items-center""><div class=""circle""></div><div class=""square""></div><div class=""circle""></div></div>","p","","shape_practice","mismatch","方","p","true","方"
"","null","html-keynbutton-response","11","2.0.0","2681623","17","<span class='text-green-400 text-4xl md:text-5xl lg:text-6xl'>正确!</span>","null","trial_feedback","","","","","",""
"","null","html-keynbutton-response","12","2.0.0","2682140","17","<div class=""pb-14 text-7xl"">+</div>","null","fixation","","","","","",""
"","442","html-keynbutton-response","13","2.0.0","2682582","17","<div class=""flex flex-row stim-length pb-8 md:pd-20 justify-evenly items-center""><div class=""circle""></div><div class=""circle""></div><div class=""circle""></div></div>","q","","shape_practice","match","圆","q","true","圆"
"","null","html-keynbutton-response","14","2.0.0","2683090","17","<span class='text-green-400 text-4xl md:text-5xl lg:text-6xl'>正确!</span>","null","trial_feedback","","","","","",""
"","null","html-keynbutton-response","15","2.0.0","2683606","17","<div class=""pb-14 text-7xl"">+</div>","null","fixation","","","","","",""
"","447","html-keynbutton-response","16","2.0.0","2684054","17","<div class=""flex flex-row stim-length pb-8 md:pd-20 justify-evenly items-center""><div class=""circle""></div><div class=""circle""></div><div class=""circle""></div></div>","q","","shape_practice","match","圆","q","true","圆"
"","null","html-keynbutton-response","17","2.0.0","2684558","17","<span class='text-green-400 text-4xl md:text-5xl lg:text-6xl'>正确!</span>","null","trial_feedback","","","","","",""
"","null","html-keynbutton-response","18","2.0.0","2685073","17","<div class=""pb-14 text-7xl"">+</div>","null","fixation","","","","","",""
"","516","html-keynbutton-response","19","2.0.0","2685590","17","<div class=""flex flex-row stim-length pb-8 md:pd-20 justify-evenly items-center""><div class=""circle""></div><div class=""square""></div><div class=""circle""></div></div>","p","","shape_practice","mismatch","方","p","true","方"
"","null","html-keynbutton-response","20","2.0.0","2686106","17","<span class='text-green-400 text-4xl md:text-5xl lg:text-6xl'>正确!</span>","null","trial_feedback","","","","","",""
"","null","html-keynbutton-response","21","2.0.0","2686608","17","<div class=""pb-14 text-7xl"">+</div>","null","fixation","","","","","",""
"","356","html-keynbutton-response","22","2.0.0","2686965","17","<div class=""flex flex-row stim-length pb-8 md:pd-20 justify-evenly items-center""><div class=""square""></div><div class=""circle""></div><div class=""square""></div></div>","q","","shape_practice","mismatch","圆","q","true","圆"
"","null","html-keynbutton-response","23","2.0.0","2687473","17","<span class='text-green-400 text-4xl md:text-5xl lg:text-6xl'>正确!</span>","null","trial_feedback","","","","","",""
"","null","html-keynbutton-response","24","2.0.0","2687990","17","<div class=""pb-14 text-7xl"">+</div>","null","fixation","","","","","",""
"","399","html-keynbutton-response","25","2.0.0","2688390","17","<div class=""flex flex-row stim-length pb-8 md:pd-20 justify-evenly items-center""><div class=""square""></div><div class=""square""></div><div class=""square""></div></div>","p","","shape_practice","match","方","p","true","方"
"","null","html-keynbutton-response","26","2.0.0","2688906","17","<span class='text-green-400 text-4xl md:text-5xl lg:text-6xl'>正确!</span>","null","trial_feedback","","","","","",""
"","null","html-keynbutton-response","27","2.0.0","2689408","17","<div class=""pb-14 text-7xl"">+</div>","null","fixation","","","","","",""
"","421","html-keynbutton-response","28","2.0.0","2689830","17","<div class=""flex flex-row stim-length pb-8 md:pd-20 justify-evenly items-center""><div class=""circle""></div><div class=""circle""></div><div class=""circle""></div></div>","p","","shape_practice","match","圆","q","false","方"
"","null","html-keynbutton-response","29","2.0.0","2690339","17","<span class='text-red-500 text-4xl md:text-5xl lg:text-6xl'>错误!</span>","null","trial_feedback","","","","","",""
"","null","html-keynbutton-response","30","2.0.0","2690841","17","<div class=""pb-14 text-7xl"">+</div>","null","fixation","","","","","",""
"","363","html-keynbutton-response","31","2.0.0","2691205","17","<div class=""flex flex-row stim-length pb-8 md:pd-20 justify-evenly items-center""><div class=""square""></div><div class=""square""></div><div class=""square""></div></div>","p","","shape_practice","match","方","p","true","方"
"","null","html-keynbutton-response","32","2.0.0","2691707","17","<span class='text-green-400 text-4xl md:text-5xl lg:text-6xl'>正确!</span>","null","trial_feedback","","","","","",""
"","null","html-keynbutton-response","33","2.0.0","2692222","17","<div class=""pb-14 text-7xl"">+</div>","null","fixation","","","","","",""
"","471","html-keynbutton-response","34","2.0.0","2692694","17","<div class=""flex flex-row stim-length pb-8 md:pd-20 justify-evenly items-center""><div class=""circle""></div><div class=""square""></div><div class=""circle""></div></div>","p","","shape_practice","mismatch","方","p","true","方"
"","null","html-keynbutton-response","35","2.0.0","2693206","17","<span class='text-green-400 text-4xl md:text-5xl lg:text-6xl'>正确!</span>","null","trial_feedback","","","","","",""
"","null","html-keynbutton-response","36","2.0.0","2693708","17","<div class=""pb-14 text-7xl"">+</div>","null","fixation","","","","","",""
"","377","html-keynbutton-response","37","2.0.0","2694086","17","<div class=""flex flex-row stim-length pb-8 md:pd-20 justify-evenly items-center""><div class=""square""></div><div class=""circle""></div><div class=""square""></div></div>","q","","shape_practice","mismatch","圆","q","true","圆"
"","null","html-keynbutton-response","38","2.0.0","2694591","17","<span class='text-green-400 text-4xl md:text-5xl lg:text-6xl'>正确!</span>","null","trial_feedback","","","","","",""
"","null","html-keynbutton-response","39","2.0.0","2695107","17","<div class=""pb-14 text-7xl"">+</div>","null","fixation","","","","","",""
"","482","html-keynbutton-response","40","2.0.0","2695590","17","<div class=""flex flex-row stim-length pb-8 md:pd-20 justify-evenly items-center""><div class=""square""></div><div class=""circle""></div><div class=""square""></div></div>","q","","shape_practice","mismatch","圆","q","true","圆"
"","null","html-keynbutton-response","41","2.0.0","2696091","17","<span class='text-green-400 text-4xl md:text-5xl lg:text-6xl'>正确!</span>","null","trial_feedback","","","","","",""
"","null","html-keynbutton-response","42","2.0.0","2696607","17","<div class=""pb-14 text-7xl"">+</div>","null","fixation","","","","","",""
"","406","html-keynbutton-response","43","2.0.0","2697014","17","<div class=""flex flex-row stim-length pb-8 md:pd-20 justify-evenly items-center""><div class=""circle""></div><div class=""circle""></div><div class=""circle""></div></div>","q","","shape_practice","match","圆","q","true","圆"
"","null","html-keynbutton-response","44","2.0.0","2697522","17","<span class='text-green-400 text-4xl md:text-5xl lg:text-6xl'>正确!</span>","null","trial_feedback","","","","","",""
"","null","html-keynbutton-response","45","2.0.0","2698024","17","<div class=""pb-14 text-7xl"">+</div>","null","fixation","","","","","",""
"","365","html-keynbutton-response","46","2.0.0","2698390","17","<div class=""flex flex-row stim-length pb-8 md:pd-20 justify-evenly items-center""><div class=""square""></div><div class=""square""></div><div class=""square""></div></div>","p","","shape_practice","match","方","p","true","方"
"","null","html-keynbutton-response","47","2.0.0","2698891","17","<span class='text-green-400 text-4xl md:text-5xl lg:text-6xl'>正确!</span>","null","trial_feedback","","","","","",""
"","null","html-keynbutton-response","48","2.0.0","2699407","17","<div class=""pb-14 text-7xl"">+</div>","null","fixation","","","","","",""
"","455","html-keynbutton-response","49","2.0.0","2699860","17","<div class=""flex flex-row stim-length pb-8 md:pd-20 justify-evenly items-center""><div class=""circle""></div><div class=""square""></div><div class=""circle""></div></div>","p","","shape_practice","mismatch","方","p","true","方"
"","null","html-keynbutton-response","50","2.0.0","2700371","17","<span class='text-green-400 text-4xl md:text-5xl lg:text-6xl'>正确!</span>","null","trial_feedback","","","","","",""
"","null","html-keynbutton-response","51","2.0.0","2700872","17","<div class=""pb-14 text-7xl"">+</div>","null","fixation","","","","","",""
"","331","html-keynbutton-response","52","2.0.0","2701204","17","<div class=""flex flex-row stim-length pb-8 md:pd-20 justify-evenly items-center""><div class=""circle""></div><div class=""circle""></div><div class=""circle""></div></div>","q","","shape_practice","match","圆","q","true","圆"
"","null","html-keynbutton-response","53","2.0.0","2701706","17","<span class='text-green-400 text-4xl md:text-5xl lg:text-6xl'>正确!</span>","null","trial_feedback","","","","","",""
"","null","html-keynbutton-response","54","2.0.0","2702221","17","<div class=""pb-14 text-7xl"">+</div>","null","fixation","","","","","",""
"","473","html-keynbutton-response","55","2.0.0","2702695","17","<div class=""flex flex-row stim-length pb-8 md:pd-20 justify-evenly items-center""><div class=""circle""></div><div class=""square""></div><div class=""circle""></div></div>","p","","shape_practice","mismatch","方","p","true","方"
"","null","html-keynbutton-response","56","2.0.0","2703205","17","<span class='text-green-400 text-4xl md:text-5xl lg:text-6xl'>正确!</span>","null","trial_feedback","","","","","",""
"","null","html-keynbutton-response","57","2.0.0","2703721","17","<div class=""pb-14 text-7xl"">+</div>","null","fixation","","","","","",""
"","474","html-keynbutton-response","58","2.0.0","2704196","17","<div class=""flex flex-row stim-length pb-8 md:pd-20 justify-evenly items-center""><div class=""square""></div><div class=""square""></div><div class=""square""></div></div>","p","","shape_practice","match","方","p","true","方"
"","null","html-keynbutton-response","59","2.0.0","2704705","17","<span class='text-green-400 text-4xl md:text-5xl lg:text-6xl'>正确!</span>","null","trial_feedback","","","","","",""
"","null","html-keynbutton-response","60","2.0.0","2705221","17","<div class=""pb-14 text-7xl"">+</div>","null","fixation","","","","","",""
"","398","html-keynbutton-response","61","2.0.0","2705620","17","<div class=""flex flex-row stim-length pb-8 md:pd-20 justify-evenly items-center""><div class=""square""></div><div class=""circle""></div><div class=""square""></div></div>","q","","shape_practice","mismatch","圆","q","true","圆"
"","null","html-keynbutton-response","62","2.0.0","2706123","17","<span class='text-green-400 text-4xl md:text-5xl lg:text-6xl'>正确!</span>","null","trial_feedback","","","","","",""
"","2040","html-keynbutton-response","64","2.0.0","2708164","17","<div class=""jp"">
    <p>您的正确率是：95%</p>
    <p>您的平均反应时间是：489毫秒</p></div>"," ","block_feedback","","","","","",""
"","2750","html-keynbutton-response","65","2.0.0","2710916","17","
        <div class=""jp px-2 xxs:px-5 mx-auto"">
        <p class=""text-center text-red-600 text-[1.2em] pb-5"">练习结束，现在开始正式实验</p>
        <p>请注意：正式实验中将不再会呈现反馈。</p>
        </div>
        "," ","","","","","","",""
"","null","html-keynbutton-response","66","2.0.0","2714119","17","<count-down title=""""></count-down>","null","countDown_trial","","","","","",""
"","null","html-keynbutton-response","67","2.0.0","2714622","17","<div class=""pb-14 text-7xl"">+</div>","null","fixation","","","","","",""
"","422","html-keynbutton-response","68","2.0.0","2715044","17","<div class=""flex flex-row stim-length pb-8 md:pd-20 justify-evenly items-center""><div class=""circle""></div><div class=""circle""></div><div class=""circle""></div></div>","q","","shape_test","match","圆","q","true","圆"
"","null","html-keynbutton-response","69","2.0.0","2715554","17","<div class=""pb-14 text-7xl"">+</div>","null","fixation","","","","","",""
"","481","html-keynbutton-response","70","2.0.0","2716036","17","<div class=""flex flex-row stim-length pb-8 md:pd-20 justify-evenly items-center""><div class=""circle""></div><div class=""square""></div><div class=""circle""></div></div>","p","","shape_test","mismatch","方","p","true","方"
"","null","html-keynbutton-response","71","2.0.0","2716539","17","<div class=""pb-14 text-7xl"">+</div>","null","fixation","","","","","",""
"","376","html-keynbutton-response","72","2.0.0","2716916","17","<div class=""flex flex-row stim-length pb-8 md:pd-20 justify-evenly items-center""><div class=""square""></div><div class=""circle""></div><div class=""square""></div></div>","q","","shape_test","mismatch","圆","q","true","圆"
"","null","html-keynbutton-response","73","2.0.0","2717422","17","<div class=""pb-14 text-7xl"">+</div>","null","fixation","","","","","",""
"","373","html-keynbutton-response","74","2.0.0","2717796","17","<div class=""flex flex-row stim-length pb-8 md:pd-20 justify-evenly items-center""><div class=""square""></div><div class=""square""></div><div class=""square""></div></div>","p","","shape_test","match","方","p","true","方"
"","null","html-keynbutton-response","75","2.0.0","2718304","17","<div class=""pb-14 text-7xl"">+</div>","null","fixation","","","","","",""
"","419","html-keynbutton-response","76","2.0.0","2718724","17","<div class=""flex flex-row stim-length pb-8 md:pd-20 justify-evenly items-center""><div class=""circle""></div><div class=""square""></div><div class=""circle""></div></div>","p","","shape_test","mismatch","方","p","true","方"
"","null","html-keynbutton-response","77","2.0.0","2719238","17","<div class=""pb-14 text-7xl"">+</div>","null","fixation","","","","","",""
"","429","html-keynbutton-response","78","2.0.0","2719668","17","<div class=""flex flex-row stim-length pb-8 md:pd-20 justify-evenly items-center""><div class=""square""></div><div class=""circle""></div><div class=""square""></div></div>","q","","shape_test","mismatch","圆","q","true","圆"
"","null","html-keynbutton-response","79","2.0.0","2720172","17","<div class=""pb-14 text-7xl"">+</div>","null","fixation","","","","","",""
"","424","html-keynbutton-response","80","2.0.0","2720596","17","<div class=""flex flex-row stim-length pb-8 md:pd-20 justify-evenly items-center""><div class=""square""></div><div class=""square""></div><div class=""square""></div></div>","p","","shape_test","match","方","p","true","方"
"","null","html-keynbutton-response","81","2.0.0","2721104","17","<div class=""pb-14 text-7xl"">+</div>","null","fixation","","","","","",""
"","450","html-keynbutton-response","82","2.0.0","2721555","17","<div class=""flex flex-row stim-length pb-8 md:pd-20 justify-evenly items-center""><div class=""circle""></div><div class=""circle""></div><div class=""circle""></div></div>","q","","shape_test","match","圆","q","true","圆"
"","null","html-keynbutton-response","83","2.0.0","2722072","17","<div class=""pb-14 text-7xl"">+</div>","null","fixation","","","","","",""
"","363","html-keynbutton-response","84","2.0.0","2722436","17","<div class=""flex flex-row stim-length pb-8 md:pd-20 justify-evenly items-center""><div class=""square""></div><div class=""circle""></div><div class=""square""></div></div>","q","","shape_test","mismatch","圆","q","true","圆"
"","null","html-keynbutton-response","85","2.0.0","2722939","17","<div class=""pb-14 text-7xl"">+</div>","null","fixation","","","","","",""
"","520","html-keynbutton-response","86","2.0.0","2723460","17","<div class=""flex flex-row stim-length pb-8 md:pd-20 justify-evenly items-center""><div class=""circle""></div><div class=""circle""></div><div class=""circle""></div></div>","q","","shape_test","match","圆","q","true","圆"
"","null","html-keynbutton-response","87","2.0.0","2723972","17","<div class=""pb-14 text-7xl"">+</div>","null","fixation","","","","","",""
"","415","html-keynbutton-response","88","2.0.0","2724388","17","<div class=""flex flex-row stim-length pb-8 md:pd-20 justify-evenly items-center""><div class=""square""></div><div class=""square""></div><div class=""square""></div></div>","p","","shape_test","match","方","p","true","方"
"","null","html-keynbutton-response","89","2.0.0","2724904","17","<div class=""pb-14 text-7xl"">+</div>","null","fixation","","","","","",""
"","331","html-keynbutton-response","90","2.0.0","2725236","17","<div class=""flex flex-row stim-length pb-8 md:pd-20 justify-evenly items-center""><div class=""circle""></div><div class=""square""></div><div class=""circle""></div></div>","p","","shape_test","mismatch","方","p","true","方"
"","null","html-keynbutton-response","91","2.0.0","2725739","17","<div class=""pb-14 text-7xl"">+</div>","null","fixation","","","","","",""
"","359","html-keynbutton-response","92","2.0.0","2726099","17","<div class=""flex flex-row stim-length pb-8 md:pd-20 justify-evenly items-center""><div class=""square""></div><div class=""square""></div><div class=""square""></div></div>","p","","shape_test","match","方","p","true","方"
"","null","html-keynbutton-response","93","2.0.0","2726604","17","<div class=""pb-14 text-7xl"">+</div>","null","fixation","","","","","",""
"","391","html-keynbutton-response","94","2.0.0","2726996","17","<div class=""flex flex-row stim-length pb-8 md:pd-20 justify-evenly items-center""><div class=""square""></div><div class=""circle""></div><div class=""square""></div></div>","q","","shape_test","mismatch","圆","q","true","圆"
"","null","html-keynbutton-response","95","2.0.0","2727504","17","<div class=""pb-14 text-7xl"">+</div>","null","fixation","","","","","",""
"","435","html-keynbutton-response","96","2.0.0","2727940","17","<div class=""flex flex-row stim-length pb-8 md:pd-20 justify-evenly items-center""><div class=""circle""></div><div class=""circle""></div><div class=""circle""></div></div>","q","","shape_test","match","圆","q","true","圆"
"","null","html-keynbutton-response","97","2.0.0","2728454","17","<div class=""pb-14 text-7xl"">+</div>","null","fixation","","","","","",""
"","381","html-keynbutton-response","98","2.0.0","2728836","17","<div class=""flex flex-row stim-length pb-8 md:pd-20 justify-evenly items-center""><div class=""circle""></div><div class=""square""></div><div class=""circle""></div></div>","p","","shape_test","mismatch","方","p","true","方"
"","null","html-keynbutton-response","99","2.0.0","2729339","17","<div class=""pb-14 text-7xl"">+</div>","null","fixation","","","","","",""
"","361","html-keynbutton-response","100","2.0.0","2729701","17","<div class=""flex flex-row stim-length pb-8 md:pd-20 justify-evenly items-center""><div class=""square""></div><div class=""circle""></div><div class=""square""></div></div>","q","","shape_test","mismatch","圆","q","true","圆"
"","null","html-keynbutton-response","101","2.0.0","2730207","17","<div class=""pb-14 text-7xl"">+</div>","null","fixation","","","","","",""
"","340","html-keynbutton-response","102","2.0.0","2730548","17","<div class=""flex flex-row stim-length pb-8 md:pd-20 justify-evenly items-center""><div class=""circle""></div><div class=""square""></div><div class=""circle""></div></div>","p","","shape_test","mismatch","方","p","true","方"
"","null","html-keynbutton-response","103","2.0.0","2731056","17","<div class=""pb-14 text-7xl"">+</div>","null","fixation","","","","","",""
"","403","html-keynbutton-response","104","2.0.0","2731460","17","<div class=""flex flex-row stim-length pb-8 md:pd-20 justify-evenly items-center""><div class=""square""></div><div class=""square""></div><div class=""square""></div></div>","p","","shape_test","match","方","p","true","方"
"","null","html-keynbutton-response","105","2.0.0","2731971","17","<div class=""pb-14 text-7xl"">+</div>","null","fixation","","","","","",""
"","368","html-keynbutton-response","106","2.0.0","2732340","17","<div class=""flex flex-row stim-length pb-8 md:pd-20 justify-evenly items-center""><div class=""circle""></div><div class=""circle""></div><div class=""circle""></div></div>","q","","shape_test","match","圆","q","true","圆"
"","null","html-keynbutton-response","107","2.0.0","2732855","17","<div class=""pb-14 text-7xl"">+</div>","null","fixation","","","","","",""
"","316","html-keynbutton-response","108","2.0.0","2733172","17","<div class=""flex flex-row stim-length pb-8 md:pd-20 justify-evenly items-center""><div class=""circle""></div><div class=""circle""></div><div class=""circle""></div></div>","q","","shape_test","match","圆","q","true","圆"
"","null","html-keynbutton-response","109","2.0.0","2733687","17","<div class=""pb-14 text-7xl"">+</div>","null","fixation","","","","","",""
"","332","html-keynbutton-response","110","2.0.0","2734020","17","<div class=""flex flex-row stim-length pb-8 md:pd-20 justify-evenly items-center""><div class=""square""></div><div class=""circle""></div><div class=""square""></div></div>","q","","shape_test","mismatch","圆","q","true","圆"
"","null","html-keynbutton-response","111","2.0.0","2734522","17","<div class=""pb-14 text-7xl"">+</div>","null","fixation","","","","","",""
"","393","html-keynbutton-response","112","2.0.0","2734916","17","<div class=""flex flex-row stim-length pb-8 md:pd-20 justify-evenly items-center""><div class=""circle""></div><div class=""square""></div><div class=""circle""></div></div>","p","","shape_test","mismatch","方","p","true","方"
"","null","html-keynbutton-response","113","2.0.0","2735423","17","<div class=""pb-14 text-7xl"">+</div>","null","fixation","","","","","",""
"","436","html-keynbutton-response","114","2.0.0","2735860","17","<div class=""flex flex-row stim-length pb-8 md:pd-20 justify-evenly items-center""><div class=""square""></div><div class=""square""></div><div class=""square""></div></div>","p","","shape_test","match","方","p","true","方"
"","null","html-keynbutton-response","115","2.0.0","2736371","17","<div class=""pb-14 text-7xl"">+</div>","null","fixation","","","","","",""
"","351","html-keynbutton-response","116","2.0.0","2736723","17","<div class=""flex flex-row stim-length pb-8 md:pd-20 justify-evenly items-center""><div class=""square""></div><div class=""square""></div><div class=""square""></div></div>","p","","shape_test","match","方","p","true","方"
"","null","html-keynbutton-response","117","2.0.0","2737238","17","<div class=""pb-14 text-7xl"">+</div>","null","fixation","","","","","",""
"","396","html-keynbutton-response","118","2.0.0","2737635","17","<div class=""flex flex-row stim-length pb-8 md:pd-20 justify-evenly items-center""><div class=""circle""></div><div class=""circle""></div><div class=""circle""></div></div>","q","","shape_test","match","圆","q","true","圆"
"","null","html-keynbutton-response","119","2.0.0","2738138","17","<div class=""pb-14 text-7xl"">+</div>","null","fixation","","","","","",""
"","346","html-keynbutton-response","120","2.0.0","2738485","17","<div class=""flex flex-row stim-length pb-8 md:pd-20 justify-evenly items-center""><div class=""square""></div><div class=""circle""></div><div class=""square""></div></div>","q","","shape_test","mismatch","圆","q","true","圆"
"","null","html-keynbutton-response","121","2.0.0","2738989","17","<div class=""pb-14 text-7xl"">+</div>","null","fixation","","","","","",""
"","406","html-keynbutton-response","122","2.0.0","2739396","17","<div class=""flex flex-row stim-length pb-8 md:pd-20 justify-evenly items-center""><div class=""circle""></div><div class=""square""></div><div class=""circle""></div></div>","p","","shape_test","mismatch","方","p","true","方"
"","null","html-keynbutton-response","123","2.0.0","2739904","17","<div class=""pb-14 text-7xl"">+</div>","null","fixation","","","","","",""
"","451","html-keynbutton-response","124","2.0.0","2740356","17","<div class=""flex flex-row stim-length pb-8 md:pd-20 justify-evenly items-center""><div class=""square""></div><div class=""square""></div><div class=""square""></div></div>","p","","shape_test","match","方","p","true","方"
"","null","html-keynbutton-response","125","2.0.0","2740871","17","<div class=""pb-14 text-7xl"">+</div>","null","fixation","","","","","",""
"","428","html-keynbutton-response","126","2.0.0","2741300","17","<div class=""flex flex-row stim-length pb-8 md:pd-20 justify-evenly items-center""><div class=""square""></div><div class=""circle""></div><div class=""square""></div></div>","q","","shape_test","mismatch","圆","q","true","圆"
"","null","html-keynbutton-response","127","2.0.0","2741806","17","<div class=""pb-14 text-7xl"">+</div>","null","fixation","","","","","",""
"","405","html-keynbutton-response","128","2.0.0","2742212","17","<div class=""flex flex-row stim-length pb-8 md:pd-20 justify-evenly items-center""><div class=""circle""></div><div class=""square""></div><div class=""circle""></div></div>","p","","shape_test","mismatch","方","p","true","方"
"","null","html-keynbutton-response","129","2.0.0","2742720","17","<div class=""pb-14 text-7xl"">+</div>","null","fixation","","","","","",""
"","290","html-keynbutton-response","130","2.0.0","2743011","17","<div class=""flex flex-row stim-length pb-8 md:pd-20 justify-evenly items-center""><div class=""circle""></div><div class=""circle""></div><div class=""circle""></div></div>","q","","shape_test","match","圆","q","true","圆"
"","null","html-keynbutton-response","131","2.0.0","2743522","17","<div class=""pb-14 text-7xl"">+</div>","null","fixation","","","","","",""
"","321","html-keynbutton-response","132","2.0.0","2743844","17","<div class=""flex flex-row stim-length pb-8 md:pd-20 justify-evenly items-center""><div class=""circle""></div><div class=""circle""></div><div class=""circle""></div></div>","q","","shape_test","match","圆","q","true","圆"
"","null","html-keynbutton-response","133","2.0.0","2744354","17","<div class=""pb-14 text-7xl"">+</div>","null","fixation","","","","","",""
"","288","html-keynbutton-response","134","2.0.0","2744643","17","<div class=""flex flex-row stim-length pb-8 md:pd-20 justify-evenly items-center""><div class=""square""></div><div class=""circle""></div><div class=""square""></div></div>","q","","shape_test","mismatch","圆","q","true","圆"
"","null","html-keynbutton-response","135","2.0.0","2745155","17","<div class=""pb-14 text-7xl"">+</div>","null","fixation","","","","","",""
"","400","html-keynbutton-response","136","2.0.0","2745556","17","<div class=""flex flex-row stim-length pb-8 md:pd-20 justify-evenly items-center""><div class=""circle""></div><div class=""square""></div><div class=""circle""></div></div>","p","","shape_test","mismatch","方","p","true","方"
"","null","html-keynbutton-response","137","2.0.0","2746071","17","<div class=""pb-14 text-7xl"">+</div>","null","fixation","","","","","",""
"","396","html-keynbutton-response","138","2.0.0","2746468","17","<div class=""flex flex-row stim-length pb-8 md:pd-20 justify-evenly items-center""><div class=""square""></div><div class=""square""></div><div class=""square""></div></div>","p","","shape_test","match","方","p","true","方"
"","null","html-keynbutton-response","139","2.0.0","2746972","17","<div class=""pb-14 text-7xl"">+</div>","null","fixation","","","","","",""
"","327","html-keynbutton-response","140","2.0.0","2747300","17","<div class=""flex flex-row stim-length pb-8 md:pd-20 justify-evenly items-center""><div class=""circle""></div><div class=""square""></div><div class=""circle""></div></div>","p","","shape_test","mismatch","方","p","true","方"
"","null","html-keynbutton-response","141","2.0.0","2747806","17","<div class=""pb-14 text-7xl"">+</div>","null","fixation","","","","","",""
"","390","html-keynbutton-response","142","2.0.0","2748196","17","<div class=""flex flex-row stim-length pb-8 md:pd-20 justify-evenly items-center""><div class=""circle""></div><div class=""circle""></div><div class=""circle""></div></div>","q","","shape_test","match","圆","q","true","圆"
"","null","html-keynbutton-response","143","2.0.0","2748704","17","<div class=""pb-14 text-7xl"">+</div>","null","fixation","","","","","",""
"","451","html-keynbutton-response","144","2.0.0","2749156","17","<div class=""flex flex-row stim-length pb-8 md:pd-20 justify-evenly items-center""><div class=""square""></div><div class=""square""></div><div class=""square""></div></div>","p","","shape_test","match","方","p","true","方"
"","null","html-keynbutton-response","145","2.0.0","2749671","17","<div class=""pb-14 text-7xl"">+</div>","null","fixation","","","","","",""
"","396","html-keynbutton-response","146","2.0.0","2750068","17","<div class=""flex flex-row stim-length pb-8 md:pd-20 justify-evenly items-center""><div class=""square""></div><div class=""circle""></div><div class=""square""></div></div>","q","","shape_test","mismatch","圆","q","true","圆"
"","6958","html-keynbutton-response","147","2.0.0","2757028","17","<div class=""jp""><p>您已完成1/10部分</p><p>请休息一会儿</p>
    <p>您的正确率是：100%</p>
    <p>您的平均反应时间是：389毫秒</p></div>"," ","block_feedback","","","","","",""
"","null","html-keynbutton-response","148","2.0.0","2760237","17","<count-down title=""""></count-down>","null","countDown_trial","","","","","",""
"","null","html-keynbutton-response","149","2.0.0","2760741","17","<div class=""pb-14 text-7xl"">+</div>","null","fixation","","","","","",""
"","449","html-keynbutton-response","150","2.0.0","2761190","17","<div class=""flex flex-row stim-length pb-8 md:pd-20 justify-evenly items-center""><div class=""square""></div><div class=""square""></div><div class=""square""></div></div>","p","","shape_test_1","match","方","p","true","方"
"","null","html-keynbutton-response","151","2.0.0","2761691","17","<div class=""pb-14 text-7xl"">+</div>","null","fixation","","","","","",""
"","346","html-keynbutton-response","152","2.0.0","2762038","17","<div class=""flex flex-row stim-length pb-8 md:pd-20 justify-evenly items-center""><div class=""square""></div><div class=""circle""></div><div class=""square""></div></div>","q","","shape_test_1","mismatch","圆","q","true","圆"
"","null","html-keynbutton-response","153","2.0.0","2762541","17","<div class=""pb-14 text-7xl"">+</div>","null","fixation","","","","","",""
"","345","html-keynbutton-response","154","2.0.0","2762887","17","<div class=""flex flex-row stim-length pb-8 md:pd-20 justify-evenly items-center""><div class=""circle""></div><div class=""square""></div><div class=""circle""></div></div>","p","","shape_test_1","mismatch","方","p","true","方"
"","null","html-keynbutton-response","155","2.0.0","2763391","17","<div class=""pb-14 text-7xl"">+</div>","null","fixation","","","","","",""
"","310","html-keynbutton-response","156","2.0.0","2763702","17","<div class=""flex flex-row stim-length pb-8 md:pd-20 justify-evenly items-center""><div class=""circle""></div><div class=""circle""></div><div class=""circle""></div></div>","q","","shape_test_1","match","圆","q","true","圆"
"","null","html-keynbutton-response","157","2.0.0","2764209","17","<div class=""pb-14 text-7xl"">+</div>","null","fixation","","","","","",""
"","324","html-keynbutton-response","158","2.0.0","2764534","17","<div class=""flex flex-row stim-length pb-8 md:pd-20 justify-evenly items-center""><div class=""square""></div><div class=""square""></div><div class=""square""></div></div>","q","","shape_test_1","match","方","p","false","圆"
"","null","html-keynbutton-response","159","2.0.0","2765041","17","<div class=""pb-14 text-7xl"">+</div>","null","fixation","","","","","",""
"","388","html-keynbutton-response","160","2.0.0","2765430","17","<div class=""flex flex-row stim-length pb-8 md:pd-20 justify-evenly items-center""><div class=""square""></div><div class=""circle""></div><div class=""square""></div></div>","q","","shape_test_1","mismatch","圆","q","true","圆"
"","null","html-keynbutton-response","161","2.0.0","2765939","17","<div class=""pb-14 text-7xl"">+</div>","null","fixation","","","","","",""
"","370","html-keynbutton-response","162","2.0.0","2766310","17","<div class=""flex flex-row stim-length pb-8 md:pd-20 justify-evenly items-center""><div class=""circle""></div><div class=""square""></div><div class=""circle""></div></div>","p","","shape_test_1","mismatch","方","p","true","方"
"","null","html-keynbutton-response","163","2.0.0","2766823","17","<div class=""pb-14 text-7xl"">+</div>","null","fixation","","","","","",""
"","414","html-keynbutton-response","164","2.0.0","2767238","17","<div class=""flex flex-row stim-length pb-8 md:pd-20 justify-evenly items-center""><div class=""circle""></div><div class=""circle""></div><div class=""circle""></div></div>","q","","shape_test_1","match","圆","q","true","圆"
"","null","html-keynbutton-response","165","2.0.0","2767742","17","<div class=""pb-14 text-7xl"">+</div>","null","fixation","","","","","",""
"","551","html-keynbutton-response","166","2.0.0","2768294","17","<div class=""flex flex-row stim-length pb-8 md:pd-20 justify-evenly items-center""><div class=""square""></div><div class=""square""></div><div class=""square""></div></div>","p","","shape_test_1","match","方","p","true","方"
"","null","html-keynbutton-response","167","2.0.0","2768806","17","<div class=""pb-14 text-7xl"">+</div>","null","fixation","","","","","",""
"","447","html-keynbutton-response","168","2.0.0","2769254","17","<div class=""flex flex-row stim-length pb-8 md:pd-20 justify-evenly items-center""><div class=""circle""></div><div class=""square""></div><div class=""circle""></div></div>","p","","shape_test_1","mismatch","方","p","true","方"
"","null","html-keynbutton-response","169","2.0.0","2769757","17","<div class=""pb-14 text-7xl"">+</div>","null","fixation","","","","","",""
"","392","html-keynbutton-response","170","2.0.0","2770150","17","<div class=""flex flex-row stim-length pb-8 md:pd-20 justify-evenly items-center""><div class=""square""></div><div class=""circle""></div><div class=""square""></div></div>","q","","shape_test_1","mismatch","圆","q","true","圆"
"","null","html-keynbutton-response","171","2.0.0","2770657","17","<div class=""pb-14 text-7xl"">+</div>","null","fixation","","","","","",""
"","388","html-keynbutton-response","172","2.0.0","2771046","17","<div class=""flex flex-row stim-length pb-8 md:pd-20 justify-evenly items-center""><div class=""circle""></div><div class=""circle""></div><div class=""circle""></div></div>","q","","shape_test_1","match","圆","q","true","圆"
"","null","html-keynbutton-response","173","2.0.0","2771557","17","<div class=""pb-14 text-7xl"">+</div>","null","fixation","","","","","",""
"","384","html-keynbutton-response","174","2.0.0","2771942","17","<div class=""flex flex-row stim-length pb-8 md:pd-20 justify-evenly items-center""><div class=""square""></div><div class=""circle""></div><div class=""square""></div></div>","q","","shape_test_1","mismatch","圆","q","true","圆"
"","null","html-keynbutton-response","175","2.0.0","2772456","17","<div class=""pb-14 text-7xl"">+</div>","null","fixation","","","","","",""
"","412","html-keynbutton-response","176","2.0.0","2772870","17","<div class=""flex flex-row stim-length pb-8 md:pd-20 justify-evenly items-center""><div class=""square""></div><div class=""square""></div><div class=""square""></div></div>","p","","shape_test_1","match","方","p","true","方"
"","null","html-keynbutton-response","177","2.0.0","2773374","17","<div class=""pb-14 text-7xl"">+</div>","null","fixation","","","","","",""
"","328","html-keynbutton-response","178","2.0.0","2773702","17","<div class=""flex flex-row stim-length pb-8 md:pd-20 justify-evenly items-center""><div class=""circle""></div><div class=""circle""></div><div class=""circle""></div></div>","p","","shape_test_1","match","圆","q","false","方"
"","null","html-keynbutton-response","179","2.0.0","2774208","17","<div class=""pb-14 text-7xl"">+</div>","null","fixation","","","","","",""
"","404","html-keynbutton-response","180","2.0.0","2774613","17","<div class=""flex flex-row stim-length pb-8 md:pd-20 justify-evenly items-center""><div class=""circle""></div><div class=""square""></div><div class=""circle""></div></div>","p","","shape_test_1","mismatch","方","p","true","方"
"","null","html-keynbutton-response","181","2.0.0","2775123","17","<div class=""pb-14 text-7xl"">+</div>","null","fixation","","","","","",""
"","386","html-keynbutton-response","182","2.0.0","2775510","17","<div class=""flex flex-row stim-length pb-8 md:pd-20 justify-evenly items-center""><div class=""circle""></div><div class=""square""></div><div class=""circle""></div></div>","p","","shape_test_1","mismatch","方","p","true","方"
"","null","html-keynbutton-response","183","2.0.0","2776023","17","<div class=""pb-14 text-7xl"">+</div>","null","fixation","","","","","",""
"","463","html-keynbutton-response","184","2.0.0","2776486","17","<div class=""flex flex-row stim-length pb-8 md:pd-20 justify-evenly items-center""><div class=""square""></div><div class=""square""></div><div class=""square""></div></div>","p","","shape_test_1","match","方","p","true","方"
"","null","html-keynbutton-response","185","2.0.0","2776992","17","<div class=""pb-14 text-7xl"">+</div>","null","fixation","","","","","",""
"","389","html-keynbutton-response","186","2.0.0","2777382","17","<div class=""flex flex-row stim-length pb-8 md:pd-20 justify-evenly items-center""><div class=""square""></div><div class=""circle""></div><div class=""square""></div></div>","q","","shape_test_1","mismatch","圆","q","true","圆"
"","null","html-keynbutton-response","187","2.0.0","2777889","17","<div class=""pb-14 text-7xl"">+</div>","null","fixation","","","","","",""
"","452","html-keynbutton-response","188","2.0.0","2778342","17","<div class=""flex flex-row stim-length pb-8 md:pd-20 justify-evenly items-center""><div class=""circle""></div><div class=""circle""></div><div class=""circle""></div></div>","q","","shape_test_1","match","圆","q","true","圆"
"","null","html-keynbutton-response","189","2.0.0","2778856","17","<div class=""pb-14 text-7xl"">+</div>","null","fixation","","","","","",""
"","301","html-keynbutton-response","190","2.0.0","2779158","17","<div class=""flex flex-row stim-length pb-8 md:pd-20 justify-evenly items-center""><div class=""circle""></div><div class=""circle""></div><div class=""circle""></div></div>","q","","shape_test_1","match","圆","q","true","圆"
"","null","html-keynbutton-response","191","2.0.0","2779673","17","<div class=""pb-14 text-7xl"">+</div>","null","fixation","","","","","",""
"","379","html-keynbutton-response","192","2.0.0","2780053","17","<div class=""flex flex-row stim-length pb-8 md:pd-20 justify-evenly items-center""><div class=""circle""></div><div class=""square""></div><div class=""circle""></div></div>","p","","shape_test_1","mismatch","方","p","true","方"
"","null","html-keynbutton-response","193","2.0.0","2780558","17","<div class=""pb-14 text-7xl"">+</div>","null","fixation","","","","","",""
"","439","html-keynbutton-response","194","2.0.0","2780998","17","<div class=""flex flex-row stim-length pb-8 md:pd-20 justify-evenly items-center""><div class=""square""></div><div class=""square""></div><div class=""square""></div></div>","p","","shape_test_1","match","方","p","true","方"
"","null","html-keynbutton-response","195","2.0.0","2781506","17","<div class=""pb-14 text-7xl"">+</div>","null","fixation","","","","","",""
"","355","html-keynbutton-response","196","2.0.0","2781862","17","<div class=""flex flex-row stim-length pb-8 md:pd-20 justify-evenly items-center""><div class=""square""></div><div class=""circle""></div><div class=""square""></div></div>","q","","shape_test_1","mismatch","圆","q","true","圆"
"","null","html-keynbutton-response","197","2.0.0","2782373","17","<div class=""pb-14 text-7xl"">+</div>","null","fixation","","","","","",""
"","432","html-keynbutton-response","198","2.0.0","2782806","17","<div class=""flex flex-row stim-length pb-8 md:pd-20 justify-evenly items-center""><div class=""circle""></div><div class=""circle""></div><div class=""circle""></div></div>","p","","shape_test_1","match","圆","q","false","方"
"","null","html-keynbutton-response","199","2.0.0","2783308","17","<div class=""pb-14 text-7xl"">+</div>","null","fixation","","","","","",""
"","505","html-keynbutton-response","200","2.0.0","2783814","17","<div class=""flex flex-row stim-length pb-8 md:pd-20 justify-evenly items-center""><div class=""square""></div><div class=""circle""></div><div class=""square""></div></div>","q","","shape_test_1","mismatch","圆","q","true","圆"
"","null","html-keynbutton-response","201","2.0.0","2784323","17","<div class=""pb-14 text-7xl"">+</div>","null","fixation","","","","","",""
"","402","html-keynbutton-response","202","2.0.0","2784726","17","<div class=""flex flex-row stim-length pb-8 md:pd-20 justify-evenly items-center""><div class=""square""></div><div class=""square""></div><div class=""square""></div></div>","p","","shape_test_1","match","方","p","true","方"
"","null","html-keynbutton-response","203","2.0.0","2785240","17","<div class=""pb-14 text-7xl"">+</div>","null","fixation","","","","","",""
"","397","html-keynbutton-response","204","2.0.0","2785638","17","<div class=""flex flex-row stim-length pb-8 md:pd-20 justify-evenly items-center""><div class=""circle""></div><div class=""square""></div><div class=""circle""></div></div>","p","","shape_test_1","mismatch","方","p","true","方"
"","null","html-keynbutton-response","205","2.0.0","2786140","17","<div class=""pb-14 text-7xl"">+</div>","null","fixation","","","","","",""
"","409","html-keynbutton-response","206","2.0.0","2786550","17","<div class=""flex flex-row stim-length pb-8 md:pd-20 justify-evenly items-center""><div class=""circle""></div><div class=""square""></div><div class=""circle""></div></div>","p","","shape_test_1","mismatch","方","p","true","方"
"","null","html-keynbutton-response","207","2.0.0","2787058","17","<div class=""pb-14 text-7xl"">+</div>","null","fixation","","","","","",""
"","403","html-keynbutton-response","208","2.0.0","2787462","17","<div class=""flex flex-row stim-length pb-8 md:pd-20 justify-evenly items-center""><div class=""square""></div><div class=""circle""></div><div class=""square""></div></div>","q","","shape_test_1","mismatch","圆","q","true","圆"
"","null","html-keynbutton-response","209","2.0.0","2787973","17","<div class=""pb-14 text-7xl"">+</div>","null","fixation","","","","","",""
"","399","html-keynbutton-response","210","2.0.0","2788374","17","<div class=""flex flex-row stim-length pb-8 md:pd-20 justify-evenly items-center""><div class=""circle""></div><div class=""circle""></div><div class=""circle""></div></div>","q","","shape_test_1","match","圆","q","true","圆"
"","null","html-keynbutton-response","211","2.0.0","2788889","17","<div class=""pb-14 text-7xl"">+</div>","null","fixation","","","","","",""
"","412","html-keynbutton-response","212","2.0.0","2789302","17","<div class=""flex flex-row stim-length pb-8 md:pd-20 justify-evenly items-center""><div class=""square""></div><div class=""square""></div><div class=""square""></div></div>","p","","shape_test_1","match","方","p","true","方"
"","null","html-keynbutton-response","213","2.0.0","2789808","17","<div class=""pb-14 text-7xl"">+</div>","null","fixation","","","","","",""
"","404","html-keynbutton-response","214","2.0.0","2790213","17","<div class=""flex flex-row stim-length pb-8 md:pd-20 justify-evenly items-center""><div class=""square""></div><div class=""circle""></div><div class=""square""></div></div>","q","","shape_test_1","mismatch","圆","q","true","圆"
"","null","html-keynbutton-response","215","2.0.0","2790723","17","<div class=""pb-14 text-7xl"">+</div>","null","fixation","","","","","",""
"","402","html-keynbutton-response","216","2.0.0","2791126","17","<div class=""flex flex-row stim-length pb-8 md:pd-20 justify-evenly items-center""><div class=""circle""></div><div class=""circle""></div><div class=""circle""></div></div>","q","","shape_test_1","match","圆","q","true","圆"
"","null","html-keynbutton-response","217","2.0.0","2791640","17","<div class=""pb-14 text-7xl"">+</div>","null","fixation","","","","","",""
"","461","html-keynbutton-response","218","2.0.0","2792102","17","<div class=""flex flex-row stim-length pb-8 md:pd-20 justify-evenly items-center""><div class=""circle""></div><div class=""square""></div><div class=""circle""></div></div>","p","","shape_test_1","mismatch","方","p","true","方"
"","null","html-keynbutton-response","219","2.0.0","2792609","17","<div class=""pb-14 text-7xl"">+</div>","null","fixation","","","","","",""
"","437","html-keynbutton-response","220","2.0.0","2793046","17","<div class=""flex flex-row stim-length pb-8 md:pd-20 justify-evenly items-center""><div class=""square""></div><div class=""square""></div><div class=""square""></div></div>","p","","shape_test_1","match","方","p","true","方"
"","null","html-keynbutton-response","221","2.0.0","2793555","17","<div class=""pb-14 text-7xl"">+</div>","null","fixation","","","","","",""
"","386","html-keynbutton-response","222","2.0.0","2793942","17","<div class=""flex flex-row stim-length pb-8 md:pd-20 justify-evenly items-center""><div class=""circle""></div><div class=""circle""></div><div class=""circle""></div></div>","q","","shape_test_1","match","圆","q","true","圆"
"","null","html-keynbutton-response","223","2.0.0","2794456","17","<div class=""pb-14 text-7xl"">+</div>","null","fixation","","","","","",""
"","397","html-keynbutton-response","224","2.0.0","2794854","17","<div class=""flex flex-row stim-length pb-8 md:pd-20 justify-evenly items-center""><div class=""square""></div><div class=""square""></div><div class=""square""></div></div>","p","","shape_test_1","match","方","p","true","方"
"","null","html-keynbutton-response","225","2.0.0","2795357","17","<div class=""pb-14 text-7xl"">+</div>","null","fixation","","","","","",""
"","391","html-keynbutton-response","226","2.0.0","2795750","17","<div class=""flex flex-row stim-length pb-8 md:pd-20 justify-evenly items-center""><div class=""square""></div><div class=""circle""></div><div class=""square""></div></div>","q","","shape_test_1","mismatch","圆","q","true","圆"
"","null","html-keynbutton-response","227","2.0.0","2796258","17","<div class=""pb-14 text-7xl"">+</div>","null","fixation","","","","","",""
"","499","html-keynbutton-response","228","2.0.0","2796758","17","<div class=""flex flex-row stim-length pb-8 md:pd-20 justify-evenly items-center""><div class=""circle""></div><div class=""square""></div><div class=""circle""></div></div>","p","","shape_test_1","mismatch","方","p","true","方"
"","3566","html-keynbutton-response","229","2.0.0","2800325","17","<div class=""jp""><p>您已完成2/10部分</p><p>请休息一会儿</p>
    <p>您的正确率是：93%</p>
    <p>您的平均反应时间是：404毫秒</p></div>"," ","block_feedback","","","","","",""
"","null","html-keynbutton-response","230","2.0.0","2803536","17","<count-down title=""""></count-down>","null","countDown_trial","","","","","",""
"","null","html-keynbutton-response","231","2.0.0","2804040","17","<div class=""pb-14 text-7xl"">+</div>","null","fixation","","","","","",""
"","365","html-keynbutton-response","232","2.0.0","2804406","17","<div class=""flex flex-row stim-length pb-8 md:pd-20 justify-evenly items-center""><div class=""circle""></div><div class=""circle""></div><div class=""circle""></div></div>","q","","shape_test_2","match","圆","q","true","圆"
"","null","html-keynbutton-response","233","2.0.0","2804908","17","<div class=""pb-14 text-7xl"">+</div>","null","fixation","","","","","",""
"","409","html-keynbutton-response","234","2.0.0","2805317","17","<div class=""flex flex-row stim-length pb-8 md:pd-20 justify-evenly items-center""><div class=""circle""></div><div class=""square""></div><div class=""circle""></div></div>","p","","shape_test_2","mismatch","方","p","true","方"
"","null","html-keynbutton-response","235","2.0.0","2805823","17","<div class=""pb-14 text-7xl"">+</div>","null","fixation","","","","","",""
"","309","html-keynbutton-response","236","2.0.0","2806133","17","<div class=""flex flex-row stim-length pb-8 md:pd-20 justify-evenly items-center""><div class=""square""></div><div class=""circle""></div><div class=""square""></div></div>","q","","shape_test_2","mismatch","圆","q","true","圆"
"","null","html-keynbutton-response","237","2.0.0","2806641","17","<div class=""pb-14 text-7xl"">+</div>","null","fixation","","","","","",""
"","468","html-keynbutton-response","238","2.0.0","2807110","17","<div class=""flex flex-row stim-length pb-8 md:pd-20 justify-evenly items-center""><div class=""square""></div><div class=""square""></div><div class=""square""></div></div>","p","","shape_test_2","match","方","p","true","方"
"","null","html-keynbutton-response","239","2.0.0","2807623","17","<div class=""pb-14 text-7xl"">+</div>","null","fixation","","","","","",""
"","382","html-keynbutton-response","240","2.0.0","2808006","17","<div class=""flex flex-row stim-length pb-8 md:pd-20 justify-evenly items-center""><div class=""square""></div><div class=""circle""></div><div class=""square""></div></div>","q","","shape_test_2","mismatch","圆","q","true","圆"
"","null","html-keynbutton-response","241","2.0.0","2808508","17","<div class=""pb-14 text-7xl"">+</div>","null","fixation","","","","","",""
"","393","html-keynbutton-response","242","2.0.0","2808902","17","<div class=""flex flex-row stim-length pb-8 md:pd-20 justify-evenly items-center""><div class=""circle""></div><div class=""circle""></div><div class=""circle""></div></div>","q","","shape_test_2","match","圆","q","true","圆"
"","null","html-keynbutton-response","243","2.0.0","2809409","17","<div class=""pb-14 text-7xl"">+</div>","null","fixation","","","","","",""
"","388","html-keynbutton-response","244","2.0.0","2809798","17","<div class=""flex flex-row stim-length pb-8 md:pd-20 justify-evenly items-center""><div class=""circle""></div><div class=""square""></div><div class=""circle""></div></div>","p","","shape_test_2","mismatch","方","p","true","方"
"","null","html-keynbutton-response","245","2.0.0","2810306","17","<div class=""pb-14 text-7xl"">+</div>","null","fixation","","","","","",""
"","483","html-keynbutton-response","246","2.0.0","2810790","17","<div class=""flex flex-row stim-length pb-8 md:pd-20 justify-evenly items-center""><div class=""square""></div><div class=""square""></div><div class=""square""></div></div>","p","","shape_test_2","match","方","p","true","方"
"","null","html-keynbutton-response","247","2.0.0","2811306","17","<div class=""pb-14 text-7xl"">+</div>","null","fixation","","","","","",""
"","315","html-keynbutton-response","248","2.0.0","2811622","17","<div class=""flex flex-row stim-length pb-8 md:pd-20 justify-evenly items-center""><div class=""square""></div><div class=""square""></div><div class=""square""></div></div>","p","","shape_test_2","match","方","p","true","方"
"","null","html-keynbutton-response","249","2.0.0","2812124","17","<div class=""pb-14 text-7xl"">+</div>","null","fixation","","","","","",""
"","409","html-keynbutton-response","250","2.0.0","2812534","17","<div class=""flex flex-row stim-length pb-8 md:pd-20 justify-evenly items-center""><div class=""square""></div><div class=""circle""></div><div class=""square""></div></div>","q","","shape_test_2","mismatch","圆","q","true","圆"
"","null","html-keynbutton-response","251","2.0.0","2813040","17","<div class=""pb-14 text-7xl"">+</div>","null","fixation","","","","","",""
"","357","html-keynbutton-response","252","2.0.0","2813398","17","<div class=""flex flex-row stim-length pb-8 md:pd-20 justify-evenly items-center""><div class=""circle""></div><div class=""circle""></div><div class=""circle""></div></div>","q","","shape_test_2","match","圆","q","true","圆"
"","null","html-keynbutton-response","253","2.0.0","2813906","17","<div class=""pb-14 text-7xl"">+</div>","null","fixation","","","","","",""
"","467","html-keynbutton-response","254","2.0.0","2814374","17","<div class=""flex flex-row stim-length pb-8 md:pd-20 justify-evenly items-center""><div class=""circle""></div><div class=""square""></div><div class=""circle""></div></div>","p","","shape_test_2","mismatch","方","p","true","方"
"","null","html-keynbutton-response","255","2.0.0","2814890","17","<div class=""pb-14 text-7xl"">+</div>","null","fixation","","","","","",""
"","427","html-keynbutton-response","256","2.0.0","2815318","17","<div class=""flex flex-row stim-length pb-8 md:pd-20 justify-evenly items-center""><div class=""square""></div><div class=""square""></div><div class=""square""></div></div>","p","","shape_test_2","match","方","p","true","方"
"","null","html-keynbutton-response","257","2.0.0","2815824","17","<div class=""pb-14 text-7xl"">+</div>","null","fixation","","","","","",""
"","404","html-keynbutton-response","258","2.0.0","2816229","17","<div class=""flex flex-row stim-length pb-8 md:pd-20 justify-evenly items-center""><div class=""circle""></div><div class=""square""></div><div class=""circle""></div></div>","p","","shape_test_2","mismatch","方","p","true","方"
"","null","html-keynbutton-response","259","2.0.0","2816739","17","<div class=""pb-14 text-7xl"">+</div>","null","fixation","","","","","",""
"","370","html-keynbutton-response","260","2.0.0","2817110","17","<div class=""flex flex-row stim-length pb-8 md:pd-20 justify-evenly items-center""><div class=""circle""></div><div class=""circle""></div><div class=""circle""></div></div>","q","","shape_test_2","match","圆","q","true","圆"
"","null","html-keynbutton-response","261","2.0.0","2817623","17","<div class=""pb-14 text-7xl"">+</div>","null","fixation","","","","","",""
"","350","html-keynbutton-response","262","2.0.0","2817974","17","<div class=""flex flex-row stim-length pb-8 md:pd-20 justify-evenly items-center""><div class=""square""></div><div class=""circle""></div><div class=""square""></div></div>","q","","shape_test_2","mismatch","圆","q","true","圆"
"","null","html-keynbutton-response","263","2.0.0","2818490","17","<div class=""pb-14 text-7xl"">+</div>","null","fixation","","","","","",""
"","347","html-keynbutton-response","264","2.0.0","2818838","17","<div class=""flex flex-row stim-length pb-8 md:pd-20 justify-evenly items-center""><div class=""circle""></div><div class=""circle""></div><div class=""circle""></div></div>","q","","shape_test_2","match","圆","q","true","圆"
"","null","html-keynbutton-response","265","2.0.0","2819341","17","<div class=""pb-14 text-7xl"">+</div>","null","fixation","","","","","",""
"","362","html-keynbutton-response","266","2.0.0","2819703","17","<div class=""flex flex-row stim-length pb-8 md:pd-20 justify-evenly items-center""><div class=""circle""></div><div class=""square""></div><div class=""circle""></div></div>","p","","shape_test_2","mismatch","方","p","true","方"
"","null","html-keynbutton-response","267","2.0.0","2820207","17","<div class=""pb-14 text-7xl"">+</div>","null","fixation","","","","","",""
"","486","html-keynbutton-response","268","2.0.0","2820694","17","<div class=""flex flex-row stim-length pb-8 md:pd-20 justify-evenly items-center""><div class=""square""></div><div class=""square""></div><div class=""square""></div></div>","p","","shape_test_2","match","方","p","true","方"
"","null","html-keynbutton-response","269","2.0.0","2821207","17","<div class=""pb-14 text-7xl"">+</div>","null","fixation","","","","","",""
"","446","html-keynbutton-response","270","2.0.0","2821654","17","<div class=""flex flex-row stim-length pb-8 md:pd-20 justify-evenly items-center""><div class=""square""></div><div class=""circle""></div><div class=""square""></div></div>","q","","shape_test_2","mismatch","圆","q","true","圆"
"","null","html-keynbutton-response","271","2.0.0","2822157","17","<div class=""pb-14 text-7xl"">+</div>","null","fixation","","","","","",""
"","422","html-keynbutton-response","272","2.0.0","2822580","17","<div class=""flex flex-row stim-length pb-8 md:pd-20 justify-evenly items-center""><div class=""circle""></div><div class=""circle""></div><div class=""circle""></div></div>","q","","shape_test_2","match","圆","q","true","圆"
"","null","html-keynbutton-response","273","2.0.0","2823090","17","<div class=""pb-14 text-7xl"">+</div>","null","fixation","","","","","",""
"","355","html-keynbutton-response","274","2.0.0","2823446","17","<div class=""flex flex-row stim-length pb-8 md:pd-20 justify-evenly items-center""><div class=""square""></div><div class=""circle""></div><div class=""square""></div></div>","q","","shape_test_2","mismatch","圆","q","true","圆"
"","null","html-keynbutton-response","275","2.0.0","2823957","17","<div class=""pb-14 text-7xl"">+</div>","null","fixation","","","","","",""
"","432","html-keynbutton-response","276","2.0.0","2824390","17","<div class=""flex flex-row stim-length pb-8 md:pd-20 justify-evenly items-center""><div class=""circle""></div><div class=""square""></div><div class=""circle""></div></div>","p","","shape_test_2","mismatch","方","p","true","方"
"","null","html-keynbutton-response","277","2.0.0","2824891","17","<div class=""pb-14 text-7xl"">+</div>","null","fixation","","","","","",""
"","410","html-keynbutton-response","278","2.0.0","2825302","17","<div class=""flex flex-row stim-length pb-8 md:pd-20 justify-evenly items-center""><div class=""square""></div><div class=""square""></div><div class=""square""></div></div>","p","","shape_test_2","match","方","p","true","方"
"","null","html-keynbutton-response","279","2.0.0","2825808","17","<div class=""pb-14 text-7xl"">+</div>","null","fixation","","","","","",""
"","340","html-keynbutton-response","280","2.0.0","2826149","17","<div class=""flex flex-row stim-length pb-8 md:pd-20 justify-evenly items-center""><div class=""circle""></div><div class=""square""></div><div class=""circle""></div></div>","p","","shape_test_2","mismatch","方","p","true","方"
"","null","html-keynbutton-response","281","2.0.0","2826657","17","<div class=""pb-14 text-7xl"">+</div>","null","fixation","","","","","",""
"","388","html-keynbutton-response","282","2.0.0","2827046","17","<div class=""flex flex-row stim-length pb-8 md:pd-20 justify-evenly items-center""><div class=""circle""></div><div class=""circle""></div><div class=""circle""></div></div>","q","","shape_test_2","match","圆","q","true","圆"
"","null","html-keynbutton-response","283","2.0.0","2827556","17","<div class=""pb-14 text-7xl"">+</div>","null","fixation","","","","","",""
"","433","html-keynbutton-response","284","2.0.0","2827990","17","<div class=""flex flex-row stim-length pb-8 md:pd-20 justify-evenly items-center""><div class=""square""></div><div class=""square""></div><div class=""square""></div></div>","p","","shape_test_2","match","方","p","true","方"
"","null","html-keynbutton-response","285","2.0.0","2828506","17","<div class=""pb-14 text-7xl"">+</div>","null","fixation","","","","","",""
"","331","html-keynbutton-response","286","2.0.0","2828838","17","<div class=""flex flex-row stim-length pb-8 md:pd-20 justify-evenly items-center""><div class=""square""></div><div class=""circle""></div><div class=""square""></div></div>","q","","shape_test_2","mismatch","圆","q","true","圆"
"","null","html-keynbutton-response","287","2.0.0","2829341","17","<div class=""pb-14 text-7xl"">+</div>","null","fixation","","","","","",""
"","376","html-keynbutton-response","288","2.0.0","2829718","17","<div class=""flex flex-row stim-length pb-8 md:pd-20 justify-evenly items-center""><div class=""circle""></div><div class=""circle""></div><div class=""circle""></div></div>","q","","shape_test_2","match","圆","q","true","圆"
"","null","html-keynbutton-response","289","2.0.0","2830222","17","<div class=""pb-14 text-7xl"">+</div>","null","fixation","","","","","",""
"","406","html-keynbutton-response","290","2.0.0","2830629","17","<div class=""flex flex-row stim-length pb-8 md:pd-20 justify-evenly items-center""><div class=""circle""></div><div class=""square""></div><div class=""circle""></div></div>","p","","shape_test_2","mismatch","方","p","true","方"
"","null","html-keynbutton-response","291","2.0.0","2831140","17","<div class=""pb-14 text-7xl"">+</div>","null","fixation","","","","","",""
"","369","html-keynbutton-response","292","2.0.0","2831510","17","<div class=""flex flex-row stim-length pb-8 md:pd-20 justify-evenly items-center""><div class=""square""></div><div class=""circle""></div><div class=""square""></div></div>","q","","shape_test_2","mismatch","圆","q","true","圆"
"","null","html-keynbutton-response","293","2.0.0","2832023","17","<div class=""pb-14 text-7xl"">+</div>","null","fixation","","","","","",""
"","382","html-keynbutton-response","294","2.0.0","2832406","17","<div class=""flex flex-row stim-length pb-8 md:pd-20 justify-evenly items-center""><div class=""square""></div><div class=""square""></div><div class=""square""></div></div>","p","","shape_test_2","match","方","p","true","方"
"","null","html-keynbutton-response","295","2.0.0","2832908","17","<div class=""pb-14 text-7xl"">+</div>","null","fixation","","","","","",""
"","377","html-keynbutton-response","296","2.0.0","2833286","17","<div class=""flex flex-row stim-length pb-8 md:pd-20 justify-evenly items-center""><div class=""square""></div><div class=""square""></div><div class=""square""></div></div>","p","","shape_test_2","match","方","p","true","方"
"","null","html-keynbutton-response","297","2.0.0","2833792","17","<div class=""pb-14 text-7xl"">+</div>","null","fixation","","","","","",""
"","325","html-keynbutton-response","298","2.0.0","2834118","17","<div class=""flex flex-row stim-length pb-8 md:pd-20 justify-evenly items-center""><div class=""circle""></div><div class=""circle""></div><div class=""circle""></div></div>","p","","shape_test_2","match","圆","q","false","方"
"","null","html-keynbutton-response","299","2.0.0","2834624","17","<div class=""pb-14 text-7xl"">+</div>","null","fixation","","","","","",""
"","437","html-keynbutton-response","300","2.0.0","2835062","17","<div class=""flex flex-row stim-length pb-8 md:pd-20 justify-evenly items-center""><div class=""square""></div><div class=""circle""></div><div class=""square""></div></div>","q","","shape_test_2","mismatch","圆","q","true","圆"
"","null","html-keynbutton-response","301","2.0.0","2835573","17","<div class=""pb-14 text-7xl"">+</div>","null","fixation","","","","","",""
"","496","html-keynbutton-response","302","2.0.0","2836070","17","<div class=""flex flex-row stim-length pb-8 md:pd-20 justify-evenly items-center""><div class=""circle""></div><div class=""square""></div><div class=""circle""></div></div>","p","","shape_test_2","mismatch","方","p","true","方"
"","null","html-keynbutton-response","303","2.0.0","2836575","17","<div class=""pb-14 text-7xl"">+</div>","null","fixation","","","","","",""
"","390","html-keynbutton-response","304","2.0.0","2836966","17","<div class=""flex flex-row stim-length pb-8 md:pd-20 justify-evenly items-center""><div class=""square""></div><div class=""square""></div><div class=""square""></div></div>","p","","shape_test_2","match","方","p","true","方"
"","null","html-keynbutton-response","305","2.0.0","2837474","17","<div class=""pb-14 text-7xl"">+</div>","null","fixation","","","","","",""
"","339","html-keynbutton-response","306","2.0.0","2837814","17","<div class=""flex flex-row stim-length pb-8 md:pd-20 justify-evenly items-center""><div class=""circle""></div><div class=""circle""></div><div class=""circle""></div></div>","q","","shape_test_2","match","圆","q","true","圆"
"","null","html-keynbutton-response","307","2.0.0","2838321","17","<div class=""pb-14 text-7xl"">+</div>","null","fixation","","","","","",""
"","307","html-keynbutton-response","308","2.0.0","2838630","17","<div class=""flex flex-row stim-length pb-8 md:pd-20 justify-evenly items-center""><div class=""square""></div><div class=""circle""></div><div class=""square""></div></div>","q","","shape_test_2","mismatch","圆","q","true","圆"
"","null","html-keynbutton-response","309","2.0.0","2839140","17","<div class=""pb-14 text-7xl"">+</div>","null","fixation","","","","","",""
"","465","html-keynbutton-response","310","2.0.0","2839606","17","<div class=""flex flex-row stim-length pb-8 md:pd-20 justify-evenly items-center""><div class=""circle""></div><div class=""square""></div><div class=""circle""></div></div>","p","","shape_test_2","mismatch","方","p","true","方"
"","2142","html-keynbutton-response","311","2.0.0","2841749","17","<div class=""jp""><p>您已完成3/10部分</p><p>请休息一会儿</p>
    <p>您的正确率是：98%</p>
    <p>您的平均反应时间是：393毫秒</p></div>"," ","block_feedback","","","","","",""
"","null","html-keynbutton-response","312","2.0.0","2844954","17","<count-down title=""""></count-down>","null","countDown_trial","","","","","",""
"","null","html-keynbutton-response","313","2.0.0","2845458","17","<div class=""pb-14 text-7xl"">+</div>","null","fixation","","","","","",""
"","371","html-keynbutton-response","314","2.0.0","2845830","17","<div class=""flex flex-row stim-length pb-8 md:pd-20 justify-evenly items-center""><div class=""square""></div><div class=""circle""></div><div class=""square""></div></div>","q","","shape_test_3","mismatch","圆","q","true","圆"
"","null","html-keynbutton-response","315","2.0.0","2846340","17","<div class=""pb-14 text-7xl"">+</div>","null","fixation","","","","","",""
"","417","html-keynbutton-response","316","2.0.0","2846758","17","<div class=""flex flex-row stim-length pb-8 md:pd-20 justify-evenly items-center""><div class=""circle""></div><div class=""square""></div><div class=""circle""></div></div>","p","","shape_test_3","mismatch","方","p","true","方"
"","null","html-keynbutton-response","317","2.0.0","2847272","17","<div class=""pb-14 text-7xl"">+</div>","null","fixation","","","","","",""
"","412","html-keynbutton-response","318","2.0.0","2847686","17","<div class=""flex flex-row stim-length pb-8 md:pd-20 justify-evenly items-center""><div class=""square""></div><div class=""square""></div><div class=""square""></div></div>","p","","shape_test_3","match","方","p","true","方"
"","null","html-keynbutton-response","319","2.0.0","2848192","17","<div class=""pb-14 text-7xl"">+</div>","null","fixation","","","","","",""
"","389","html-keynbutton-response","320","2.0.0","2848582","17","<div class=""flex flex-row stim-length pb-8 md:pd-20 justify-evenly items-center""><div class=""circle""></div><div class=""circle""></div><div class=""circle""></div></div>","q","","shape_test_3","match","圆","q","true","圆"
"","null","html-keynbutton-response","321","2.0.0","2849089","17","<div class=""pb-14 text-7xl"">+</div>","null","fixation","","","","","",""
"","308","html-keynbutton-response","322","2.0.0","2849398","17","<div class=""flex flex-row stim-length pb-8 md:pd-20 justify-evenly items-center""><div class=""circle""></div><div class=""circle""></div><div class=""circle""></div></div>","q","","shape_test_3","match","圆","q","true","圆"
"","null","html-keynbutton-response","323","2.0.0","2849906","17","<div class=""pb-14 text-7xl"">+</div>","null","fixation","","","","","",""
"","371","html-keynbutton-response","324","2.0.0","2850277","17","<div class=""flex flex-row stim-length pb-8 md:pd-20 justify-evenly items-center""><div class=""square""></div><div class=""square""></div><div class=""square""></div></div>","p","","shape_test_3","match","方","p","true","方"
"","null","html-keynbutton-response","325","2.0.0","2850789","17","<div class=""pb-14 text-7xl"">+</div>","null","fixation","","","","","",""
"","401","html-keynbutton-response","326","2.0.0","2851190","17","<div class=""flex flex-row stim-length pb-8 md:pd-20 justify-evenly items-center""><div class=""circle""></div><div class=""square""></div><div class=""circle""></div></div>","p","","shape_test_3","mismatch","方","p","true","方"
"","null","html-keynbutton-response","327","2.0.0","2851706","17","<div class=""pb-14 text-7xl"">+</div>","null","fixation","","","","","",""
"","379","html-keynbutton-response","328","2.0.0","2852086","17","<div class=""flex flex-row stim-length pb-8 md:pd-20 justify-evenly items-center""><div class=""square""></div><div class=""circle""></div><div class=""square""></div></div>","q","","shape_test_3","mismatch","圆","q","true","圆"
"","null","html-keynbutton-response","329","2.0.0","2852592","17","<div class=""pb-14 text-7xl"">+</div>","null","fixation","","","","","",""
"","469","html-keynbutton-response","330","2.0.0","2853062","17","<div class=""flex flex-row stim-length pb-8 md:pd-20 justify-evenly items-center""><div class=""circle""></div><div class=""circle""></div><div class=""circle""></div></div>","q","","shape_test_3","match","圆","q","true","圆"
"","null","html-keynbutton-response","331","2.0.0","2853573","17","<div class=""pb-14 text-7xl"">+</div>","null","fixation","","","","","",""
"","367","html-keynbutton-response","332","2.0.0","2853942","17","<div class=""flex flex-row stim-length pb-8 md:pd-20 justify-evenly items-center""><div class=""circle""></div><div class=""square""></div><div class=""circle""></div></div>","p","","shape_test_3","mismatch","方","p","true","方"
"","null","html-keynbutton-response","333","2.0.0","2854457","17","<div class=""pb-14 text-7xl"">+</div>","null","fixation","","","","","",""
"","331","html-keynbutton-response","334","2.0.0","2854789","17","<div class=""flex flex-row stim-length pb-8 md:pd-20 justify-evenly items-center""><div class=""square""></div><div class=""circle""></div><div class=""square""></div></div>","q","","shape_test_3","mismatch","圆","q","true","圆"
"","null","html-keynbutton-response","335","2.0.0","2855291","17","<div class=""pb-14 text-7xl"">+</div>","null","fixation","","","","","",""
"","378","html-keynbutton-response","336","2.0.0","2855670","17","<div class=""flex flex-row stim-length pb-8 md:pd-20 justify-evenly items-center""><div class=""square""></div><div class=""square""></div><div class=""square""></div></div>","p","","shape_test_3","match","方","p","true","方"
"","null","html-keynbutton-response","337","2.0.0","2856175","17","<div class=""pb-14 text-7xl"">+</div>","null","fixation","","","","","",""
"","406","html-keynbutton-response","338","2.0.0","2856582","17","<div class=""flex flex-row stim-length pb-8 md:pd-20 justify-evenly items-center""><div class=""circle""></div><div class=""circle""></div><div class=""circle""></div></div>","q","","shape_test_3","match","圆","q","true","圆"
"","null","html-keynbutton-response","339","2.0.0","2857089","17","<div class=""pb-14 text-7xl"">+</div>","null","fixation","","","","","",""
"","404","html-keynbutton-response","340","2.0.0","2857494","17","<div class=""flex flex-row stim-length pb-8 md:pd-20 justify-evenly items-center""><div class=""square""></div><div class=""circle""></div><div class=""square""></div></div>","q","","shape_test_3","mismatch","圆","q","true","圆"
"","null","html-keynbutton-response","341","2.0.0","2858007","17","<div class=""pb-14 text-7xl"">+</div>","null","fixation","","","","","",""
"","398","html-keynbutton-response","342","2.0.0","2858406","17","<div class=""flex flex-row stim-length pb-8 md:pd-20 justify-evenly items-center""><div class=""circle""></div><div class=""square""></div><div class=""circle""></div></div>","p","","shape_test_3","mismatch","方","p","true","方"
"","null","html-keynbutton-response","343","2.0.0","2858907","17","<div class=""pb-14 text-7xl"">+</div>","null","fixation","","","","","",""
"","410","html-keynbutton-response","344","2.0.0","2859318","17","<div class=""flex flex-row stim-length pb-8 md:pd-20 justify-evenly items-center""><div class=""square""></div><div class=""square""></div><div class=""square""></div></div>","p","","shape_test_3","match","方","p","true","方"
"","null","html-keynbutton-response","345","2.0.0","2859824","17","<div class=""pb-14 text-7xl"">+</div>","null","fixation","","","","","",""
"","341","html-keynbutton-response","346","2.0.0","2860166","17","<div class=""flex flex-row stim-length pb-8 md:pd-20 justify-evenly items-center""><div class=""square""></div><div class=""circle""></div><div class=""square""></div></div>","q","","shape_test_3","mismatch","圆","q","true","圆"
"","null","html-keynbutton-response","347","2.0.0","2860674","17","<div class=""pb-14 text-7xl"">+</div>","null","fixation","","","","","",""
"","355","html-keynbutton-response","348","2.0.0","2861030","17","<div class=""flex flex-row stim-length pb-8 md:pd-20 justify-evenly items-center""><div class=""circle""></div><div class=""circle""></div><div class=""circle""></div></div>","q","","shape_test_3","match","圆","q","true","圆"
"","null","html-keynbutton-response","349","2.0.0","2861540","17","<div class=""pb-14 text-7xl"">+</div>","null","fixation","","","","","",""
"","368","html-keynbutton-response","350","2.0.0","2861909","17","<div class=""flex flex-row stim-length pb-8 md:pd-20 justify-evenly items-center""><div class=""square""></div><div class=""square""></div><div class=""square""></div></div>","p","","shape_test_3","match","方","p","true","方"
"","null","html-keynbutton-response","351","2.0.0","2862423","17","<div class=""pb-14 text-7xl"">+</div>","null","fixation","","","","","",""
"","398","html-keynbutton-response","352","2.0.0","2862821","17","<div class=""flex flex-row stim-length pb-8 md:pd-20 justify-evenly items-center""><div class=""circle""></div><div class=""square""></div><div class=""circle""></div></div>","p","","shape_test_3","mismatch","方","p","true","方"
"","null","html-keynbutton-response","353","2.0.0","2863324","17","<div class=""pb-14 text-7xl"">+</div>","null","fixation","","","","","",""
"","377","html-keynbutton-response","354","2.0.0","2863701","17","<div class=""flex flex-row stim-length pb-8 md:pd-20 justify-evenly items-center""><div class=""square""></div><div class=""circle""></div><div class=""square""></div></div>","q","","shape_test_3","mismatch","圆","q","true","圆"
"","null","html-keynbutton-response","355","2.0.0","2864205","17","<div class=""pb-14 text-7xl"">+</div>","null","fixation","","","","","",""
"","439","html-keynbutton-response","356","2.0.0","2864645","17","<div class=""flex flex-row stim-length pb-8 md:pd-20 justify-evenly items-center""><div class=""circle""></div><div class=""circle""></div><div class=""circle""></div></div>","p","","shape_test_3","match","圆","q","false","方"
"","null","html-keynbutton-response","357","2.0.0","2865157","17","<div class=""pb-14 text-7xl"">+</div>","null","fixation","","","","","",""
"","400","html-keynbutton-response","358","2.0.0","2865558","17","<div class=""flex flex-row stim-length pb-8 md:pd-20 justify-evenly items-center""><div class=""square""></div><div class=""square""></div><div class=""square""></div></div>","p","","shape_test_3","match","方","p","true","方"
"","null","html-keynbutton-response","359","2.0.0","2866073","17","<div class=""pb-14 text-7xl"">+</div>","null","fixation","","","","","",""
"","412","html-keynbutton-response","360","2.0.0","2866486","17","<div class=""flex flex-row stim-length pb-8 md:pd-20 justify-evenly items-center""><div class=""circle""></div><div class=""square""></div><div class=""circle""></div></div>","p","","shape_test_3","mismatch","方","p","true","方"
"","null","html-keynbutton-response","361","2.0.0","2866990","17","<div class=""pb-14 text-7xl"">+</div>","null","fixation","","","","","",""
"","455","html-keynbutton-response","362","2.0.0","2867446","17","<div class=""flex flex-row stim-length pb-8 md:pd-20 justify-evenly items-center""><div class=""square""></div><div class=""circle""></div><div class=""square""></div></div>","q","","shape_test_3","mismatch","圆","q","true","圆"
"","null","html-keynbutton-response","363","2.0.0","2867956","17","<div class=""pb-14 text-7xl"">+</div>","null","fixation","","","","","",""
"","418","html-keynbutton-response","364","2.0.0","2868374","17","<div class=""flex flex-row stim-length pb-8 md:pd-20 justify-evenly items-center""><div class=""square""></div><div class=""square""></div><div class=""square""></div></div>","p","","shape_test_3","match","方","p","true","方"
"","null","html-keynbutton-response","365","2.0.0","2868889","17","<div class=""pb-14 text-7xl"">+</div>","null","fixation","","","","","",""
"","428","html-keynbutton-response","366","2.0.0","2869318","17","<div class=""flex flex-row stim-length pb-8 md:pd-20 justify-evenly items-center""><div class=""circle""></div><div class=""circle""></div><div class=""circle""></div></div>","q","","shape_test_3","match","圆","q","true","圆"
"","null","html-keynbutton-response","367","2.0.0","2869824","17","<div class=""pb-14 text-7xl"">+</div>","null","fixation","","","","","",""
"","454","html-keynbutton-response","368","2.0.0","2870278","17","<div class=""flex flex-row stim-length pb-8 md:pd-20 justify-evenly items-center""><div class=""circle""></div><div class=""square""></div><div class=""circle""></div></div>","p","","shape_test_3","mismatch","方","p","true","方"
"","null","html-keynbutton-response","369","2.0.0","2870790","17","<div class=""pb-14 text-7xl"">+</div>","null","fixation","","","","","",""
"","351","html-keynbutton-response","370","2.0.0","2871142","17","<div class=""flex flex-row stim-length pb-8 md:pd-20 justify-evenly items-center""><div class=""square""></div><div class=""circle""></div><div class=""square""></div></div>","q","","shape_test_3","mismatch","圆","q","true","圆"
"","null","html-keynbutton-response","371","2.0.0","2871656","17","<div class=""pb-14 text-7xl"">+</div>","null","fixation","","","","","",""
"","380","html-keynbutton-response","372","2.0.0","2872038","17","<div class=""flex flex-row stim-length pb-8 md:pd-20 justify-evenly items-center""><div class=""circle""></div><div class=""square""></div><div class=""circle""></div></div>","p","","shape_test_3","mismatch","方","p","true","方"
"","null","html-keynbutton-response","373","2.0.0","2872541","17","<div class=""pb-14 text-7xl"">+</div>","null","fixation","","","","","",""
"","439","html-keynbutton-response","374","2.0.0","2872981","17","<div class=""flex flex-row stim-length pb-8 md:pd-20 justify-evenly items-center""><div class=""square""></div><div class=""square""></div><div class=""square""></div></div>","p","","shape_test_3","match","方","p","true","方"
"","null","html-keynbutton-response","375","2.0.0","2873490","17","<div class=""pb-14 text-7xl"">+</div>","null","fixation","","","","","",""
"","435","html-keynbutton-response","376","2.0.0","2873926","17","<div class=""flex flex-row stim-length pb-8 md:pd-20 justify-evenly items-center""><div class=""circle""></div><div class=""circle""></div><div class=""circle""></div></div>","q","","shape_test_3","match","圆","q","true","圆"
"","null","html-keynbutton-response","377","2.0.0","2874440","17","<div class=""pb-14 text-7xl"">+</div>","null","fixation","","","","","",""
"","302","html-keynbutton-response","378","2.0.0","2874743","17","<div class=""flex flex-row stim-length pb-8 md:pd-20 justify-evenly items-center""><div class=""square""></div><div class=""circle""></div><div class=""square""></div></div>","q","","shape_test_3","mismatch","圆","q","true","圆"
"","null","html-keynbutton-response","379","2.0.0","2875257","17","<div class=""pb-14 text-7xl"">+</div>","null","fixation","","","","","",""
"","412","html-keynbutton-response","380","2.0.0","2875670","17","<div class=""flex flex-row stim-length pb-8 md:pd-20 justify-evenly items-center""><div class=""circle""></div><div class=""square""></div><div class=""circle""></div></div>","p","","shape_test_3","mismatch","方","p","true","方"
"","null","html-keynbutton-response","381","2.0.0","2876174","17","<div class=""pb-14 text-7xl"">+</div>","null","fixation","","","","","",""
"","407","html-keynbutton-response","382","2.0.0","2876582","17","<div class=""flex flex-row stim-length pb-8 md:pd-20 justify-evenly items-center""><div class=""circle""></div><div class=""circle""></div><div class=""circle""></div></div>","q","","shape_test_3","match","圆","q","true","圆"
"","null","html-keynbutton-response","383","2.0.0","2877089","17","<div class=""pb-14 text-7xl"">+</div>","null","fixation","","","","","",""
"","436","html-keynbutton-response","384","2.0.0","2877526","17","<div class=""flex flex-row stim-length pb-8 md:pd-20 justify-evenly items-center""><div class=""square""></div><div class=""square""></div><div class=""square""></div></div>","p","","shape_test_3","match","方","p","true","方"
"","null","html-keynbutton-response","385","2.0.0","2878040","17","<div class=""pb-14 text-7xl"">+</div>","null","fixation","","","","","",""
"","461","html-keynbutton-response","386","2.0.0","2878502","17","<div class=""flex flex-row stim-length pb-8 md:pd-20 justify-evenly items-center""><div class=""circle""></div><div class=""square""></div><div class=""circle""></div></div>","p","","shape_test_3","mismatch","方","p","true","方"
"","null","html-keynbutton-response","387","2.0.0","2879009","17","<div class=""pb-14 text-7xl"">+</div>","null","fixation","","","","","",""
"","388","html-keynbutton-response","388","2.0.0","2879398","17","<div class=""flex flex-row stim-length pb-8 md:pd-20 justify-evenly items-center""><div class=""circle""></div><div class=""circle""></div><div class=""circle""></div></div>","q","","shape_test_3","match","圆","q","true","圆"
"","null","html-keynbutton-response","389","2.0.0","2879906","17","<div class=""pb-14 text-7xl"">+</div>","null","fixation","","","","","",""
"","291","html-keynbutton-response","390","2.0.0","2880198","17","<div class=""flex flex-row stim-length pb-8 md:pd-20 justify-evenly items-center""><div class=""square""></div><div class=""circle""></div><div class=""square""></div></div>","q","","shape_test_3","mismatch","圆","q","true","圆"
"","null","html-keynbutton-response","391","2.0.0","2880706","17","<div class=""pb-14 text-7xl"">+</div>","null","fixation","","","","","",""
"","451","html-keynbutton-response","392","2.0.0","2881158","17","<div class=""flex flex-row stim-length pb-8 md:pd-20 justify-evenly items-center""><div class=""square""></div><div class=""square""></div><div class=""square""></div></div>","p","","shape_test_3","match","方","p","true","方"
"","1358","html-keynbutton-response","393","2.0.0","2882518","17","<div class=""jp""><p>您已完成4/10部分</p><p>请休息一会儿</p>
    <p>您的正确率是：98%</p>
    <p>您的平均反应时间是：395毫秒</p></div>"," ","block_feedback","","","","","",""
"","null","html-keynbutton-response","394","2.0.0","2885721","17","<count-down title=""""></count-down>","null","countDown_trial","","","","","",""
"","null","html-keynbutton-response","395","2.0.0","2886223","17","<div class=""pb-14 text-7xl"">+</div>","null","fixation","","","","","",""
"","518","html-keynbutton-response","396","2.0.0","2886742","17","<div class=""flex flex-row stim-length pb-8 md:pd-20 justify-evenly items-center""><div class=""square""></div><div class=""circle""></div><div class=""square""></div></div>","q","","shape_test_4","mismatch","圆","q","true","圆"
"","null","html-keynbutton-response","397","2.0.0","2887257","17","<div class=""pb-14 text-7xl"">+</div>","null","fixation","","","","","",""
"","396","html-keynbutton-response","398","2.0.0","2887654","17","<div class=""flex flex-row stim-length pb-8 md:pd-20 justify-evenly items-center""><div class=""circle""></div><div class=""circle""></div><div class=""circle""></div></div>","q","","shape_test_4","match","圆","q","true","圆"
"","null","html-keynbutton-response","399","2.0.0","2888158","17","<div class=""pb-14 text-7xl"">+</div>","null","fixation","","","","","",""
"","344","html-keynbutton-response","400","2.0.0","2888502","17","<div class=""flex flex-row stim-length pb-8 md:pd-20 justify-evenly items-center""><div class=""square""></div><div class=""square""></div><div class=""square""></div></div>","p","","shape_test_4","match","方","p","true","方"
"","null","html-keynbutton-response","401","2.0.0","2889008","17","<div class=""pb-14 text-7xl"">+</div>","null","fixation","","","","","",""
"","325","html-keynbutton-response","402","2.0.0","2889334","17","<div class=""flex flex-row stim-length pb-8 md:pd-20 justify-evenly items-center""><div class=""circle""></div><div class=""square""></div><div class=""circle""></div></div>","p","","shape_test_4","mismatch","方","p","true","方"
"","null","html-keynbutton-response","403","2.0.0","2889841","17","<div class=""pb-14 text-7xl"">+</div>","null","fixation","","","","","",""
"","388","html-keynbutton-response","404","2.0.0","2890230","17","<div class=""flex flex-row stim-length pb-8 md:pd-20 justify-evenly items-center""><div class=""circle""></div><div class=""square""></div><div class=""circle""></div></div>","p","","shape_test_4","mismatch","方","p","true","方"
"","null","html-keynbutton-response","405","2.0.0","2890740","17","<div class=""pb-14 text-7xl"">+</div>","null","fixation","","","","","",""
"","432","html-keynbutton-response","406","2.0.0","2891173","17","<div class=""flex flex-row stim-length pb-8 md:pd-20 justify-evenly items-center""><div class=""circle""></div><div class=""circle""></div><div class=""circle""></div></div>","q","","shape_test_4","match","圆","q","true","圆"
"","null","html-keynbutton-response","407","2.0.0","2891674","17","<div class=""pb-14 text-7xl"">+</div>","null","fixation","","","","","",""
"","443","html-keynbutton-response","408","2.0.0","2892118","17","<div class=""flex flex-row stim-length pb-8 md:pd-20 justify-evenly items-center""><div class=""square""></div><div class=""square""></div><div class=""square""></div></div>","p","","shape_test_4","match","方","p","true","方"
"","null","html-keynbutton-response","409","2.0.0","2892624","17","<div class=""pb-14 text-7xl"">+</div>","null","fixation","","","","","",""
"","421","html-keynbutton-response","410","2.0.0","2893046","17","<div class=""flex flex-row stim-length pb-8 md:pd-20 justify-evenly items-center""><div class=""square""></div><div class=""circle""></div><div class=""square""></div></div>","q","","shape_test_4","mismatch","圆","q","true","圆"
"","null","html-keynbutton-response","411","2.0.0","2893556","17","<div class=""pb-14 text-7xl"">+</div>","null","fixation","","","","","",""
"","368","html-keynbutton-response","412","2.0.0","2893926","17","<div class=""flex flex-row stim-length pb-8 md:pd-20 justify-evenly items-center""><div class=""square""></div><div class=""square""></div><div class=""square""></div></div>","p","","shape_test_4","match","方","p","true","方"
"","null","html-keynbutton-response","413","2.0.0","2894440","17","<div class=""pb-14 text-7xl"">+</div>","null","fixation","","","","","",""
"","381","html-keynbutton-response","414","2.0.0","2894822","17","<div class=""flex flex-row stim-length pb-8 md:pd-20 justify-evenly items-center""><div class=""square""></div><div class=""circle""></div><div class=""square""></div></div>","q","","shape_test_4","mismatch","圆","q","true","圆"
"","null","html-keynbutton-response","415","2.0.0","2895324","17","<div class=""pb-14 text-7xl"">+</div>","null","fixation","","","","","",""
"","378","html-keynbutton-response","416","2.0.0","2895702","17","<div class=""flex flex-row stim-length pb-8 md:pd-20 justify-evenly items-center""><div class=""circle""></div><div class=""circle""></div><div class=""circle""></div></div>","q","","shape_test_4","match","圆","q","true","圆"
"","null","html-keynbutton-response","417","2.0.0","2896208","17","<div class=""pb-14 text-7xl"">+</div>","null","fixation","","","","","",""
"","374","html-keynbutton-response","418","2.0.0","2896582","17","<div class=""flex flex-row stim-length pb-8 md:pd-20 justify-evenly items-center""><div class=""circle""></div><div class=""square""></div><div class=""circle""></div></div>","p","","shape_test_4","mismatch","方","p","true","方"
"","null","html-keynbutton-response","419","2.0.0","2897090","17","<div class=""pb-14 text-7xl"">+</div>","null","fixation","","","","","",""
"","387","html-keynbutton-response","420","2.0.0","2897478","17","<div class=""flex flex-row stim-length pb-8 md:pd-20 justify-evenly items-center""><div class=""circle""></div><div class=""square""></div><div class=""circle""></div></div>","p","","shape_test_4","mismatch","方","p","true","方"
"","null","html-keynbutton-response","421","2.0.0","2897990","17","<div class=""pb-14 text-7xl"">+</div>","null","fixation","","","","","",""
"","383","html-keynbutton-response","422","2.0.0","2898374","17","<div class=""flex flex-row stim-length pb-8 md:pd-20 justify-evenly items-center""><div class=""circle""></div><div class=""circle""></div><div class=""circle""></div></div>","q","","shape_test_4","match","圆","q","true","圆"
"","null","html-keynbutton-response","423","2.0.0","2898889","17","<div class=""pb-14 text-7xl"">+</div>","null","fixation","","","","","",""
"","330","html-keynbutton-response","424","2.0.0","2899221","17","<div class=""flex flex-row stim-length pb-8 md:pd-20 justify-evenly items-center""><div class=""square""></div><div class=""circle""></div><div class=""square""></div></div>","q","","shape_test_4","mismatch","圆","q","true","圆"
"","null","html-keynbutton-response","425","2.0.0","2899724","17","<div class=""pb-14 text-7xl"">+</div>","null","fixation","","","","","",""
"","504","html-keynbutton-response","426","2.0.0","2900229","17","<div class=""flex flex-row stim-length pb-8 md:pd-20 justify-evenly items-center""><div class=""square""></div><div class=""square""></div><div class=""square""></div></div>","p","","shape_test_4","match","方","p","true","方"
"","null","html-keynbutton-response","427","2.0.0","2900740","17","<div class=""pb-14 text-7xl"">+</div>","null","fixation","","","","","",""
"","433","html-keynbutton-response","428","2.0.0","2901174","17","<div class=""flex flex-row stim-length pb-8 md:pd-20 justify-evenly items-center""><div class=""circle""></div><div class=""circle""></div><div class=""circle""></div></div>","q","","shape_test_4","match","圆","q","true","圆"
"","null","html-keynbutton-response","429","2.0.0","2901690","17","<div class=""pb-14 text-7xl"">+</div>","null","fixation","","","","","",""
"","395","html-keynbutton-response","430","2.0.0","2902086","17","<div class=""flex flex-row stim-length pb-8 md:pd-20 justify-evenly items-center""><div class=""circle""></div><div class=""square""></div><div class=""circle""></div></div>","p","","shape_test_4","mismatch","方","p","true","方"
"","null","html-keynbutton-response","431","2.0.0","2902591","17","<div class=""pb-14 text-7xl"">+</div>","null","fixation","","","","","",""
"","422","html-keynbutton-response","432","2.0.0","2903014","17","<div class=""flex flex-row stim-length pb-8 md:pd-20 justify-evenly items-center""><div class=""square""></div><div class=""square""></div><div class=""square""></div></div>","p","","shape_test_4","match","方","p","true","方"
"","null","html-keynbutton-response","433","2.0.0","2903523","17","<div class=""pb-14 text-7xl"">+</div>","null","fixation","","","","","",""
"","417","html-keynbutton-response","434","2.0.0","2903942","17","<div class=""flex flex-row stim-length pb-8 md:pd-20 justify-evenly items-center""><div class=""square""></div><div class=""circle""></div><div class=""square""></div></div>","q","","shape_test_4","mismatch","圆","q","true","圆"
"","null","html-keynbutton-response","435","2.0.0","2904456","17","<div class=""pb-14 text-7xl"">+</div>","null","fixation","","","","","",""
"","365","html-keynbutton-response","436","2.0.0","2904822","17","<div class=""flex flex-row stim-length pb-8 md:pd-20 justify-evenly items-center""><div class=""square""></div><div class=""circle""></div><div class=""square""></div></div>","q","","shape_test_4","mismatch","圆","q","true","圆"
"","null","html-keynbutton-response","437","2.0.0","2905324","17","<div class=""pb-14 text-7xl"">+</div>","null","fixation","","","","","",""
"","345","html-keynbutton-response","438","2.0.0","2905670","17","<div class=""flex flex-row stim-length pb-8 md:pd-20 justify-evenly items-center""><div class=""circle""></div><div class=""circle""></div><div class=""circle""></div></div>","q","","shape_test_4","match","圆","q","true","圆"
"","null","html-keynbutton-response","439","2.0.0","2906173","17","<div class=""pb-14 text-7xl"">+</div>","null","fixation","","","","","",""
"","393","html-keynbutton-response","440","2.0.0","2906567","17","<div class=""flex flex-row stim-length pb-8 md:pd-20 justify-evenly items-center""><div class=""circle""></div><div class=""square""></div><div class=""circle""></div></div>","p","","shape_test_4","mismatch","方","p","true","方"
"","null","html-keynbutton-response","441","2.0.0","2907074","17","<div class=""pb-14 text-7xl"">+</div>","null","fixation","","","","","",""
"","387","html-keynbutton-response","442","2.0.0","2907462","17","<div class=""flex flex-row stim-length pb-8 md:pd-20 justify-evenly items-center""><div class=""square""></div><div class=""square""></div><div class=""square""></div></div>","p","","shape_test_4","match","方","p","true","方"
"","null","html-keynbutton-response","443","2.0.0","2907973","17","<div class=""pb-14 text-7xl"">+</div>","null","fixation","","","","","",""
"","367","html-keynbutton-response","444","2.0.0","2908341","17","<div class=""flex flex-row stim-length pb-8 md:pd-20 justify-evenly items-center""><div class=""square""></div><div class=""square""></div><div class=""square""></div></div>","p","","shape_test_4","match","方","p","true","方"
"","null","html-keynbutton-response","445","2.0.0","2908856","17","<div class=""pb-14 text-7xl"">+</div>","null","fixation","","","","","",""
"","397","html-keynbutton-response","446","2.0.0","2909254","17","<div class=""flex flex-row stim-length pb-8 md:pd-20 justify-evenly items-center""><div class=""circle""></div><div class=""circle""></div><div class=""circle""></div></div>","q","","shape_test_4","match","圆","q","true","圆"
"","null","html-keynbutton-response","447","2.0.0","2909758","17","<div class=""pb-14 text-7xl"">+</div>","null","fixation","","","","","",""
"","407","html-keynbutton-response","448","2.0.0","2910166","17","<div class=""flex flex-row stim-length pb-8 md:pd-20 justify-evenly items-center""><div class=""circle""></div><div class=""square""></div><div class=""circle""></div></div>","p","","shape_test_4","mismatch","方","p","true","方"
"","null","html-keynbutton-response","449","2.0.0","2910674","17","<div class=""pb-14 text-7xl"">+</div>","null","fixation","","","","","",""
"","371","html-keynbutton-response","450","2.0.0","2911046","17","<div class=""flex flex-row stim-length pb-8 md:pd-20 justify-evenly items-center""><div class=""square""></div><div class=""circle""></div><div class=""square""></div></div>","q","","shape_test_4","mismatch","圆","q","true","圆"
"","null","html-keynbutton-response","451","2.0.0","2911557","17","<div class=""pb-14 text-7xl"">+</div>","null","fixation","","","","","",""
"","384","html-keynbutton-response","452","2.0.0","2911942","17","<div class=""flex flex-row stim-length pb-8 md:pd-20 justify-evenly items-center""><div class=""square""></div><div class=""square""></div><div class=""square""></div></div>","p","","shape_test_4","match","方","p","true","方"
"","null","html-keynbutton-response","453","2.0.0","2912457","17","<div class=""pb-14 text-7xl"">+</div>","null","fixation","","","","","",""
"","396","html-keynbutton-response","454","2.0.0","2912854","17","<div class=""flex flex-row stim-length pb-8 md:pd-20 justify-evenly items-center""><div class=""square""></div><div class=""circle""></div><div class=""square""></div></div>","q","","shape_test_4","mismatch","圆","q","true","圆"
"","null","html-keynbutton-response","455","2.0.0","2913357","17","<div class=""pb-14 text-7xl"">+</div>","null","fixation","","","","","",""
"","424","html-keynbutton-response","456","2.0.0","2913782","17","<div class=""flex flex-row stim-length pb-8 md:pd-20 justify-evenly items-center""><div class=""circle""></div><div class=""square""></div><div class=""circle""></div></div>","p","","shape_test_4","mismatch","方","p","true","方"
"","null","html-keynbutton-response","457","2.0.0","2914289","17","<div class=""pb-14 text-7xl"">+</div>","null","fixation","","","","","",""
"","452","html-keynbutton-response","458","2.0.0","2914742","17","<div class=""flex flex-row stim-length pb-8 md:pd-20 justify-evenly items-center""><div class=""circle""></div><div class=""circle""></div><div class=""circle""></div></div>","q","","shape_test_4","match","圆","q","true","圆"
"","null","html-keynbutton-response","459","2.0.0","2915257","17","<div class=""pb-14 text-7xl"">+</div>","null","fixation","","","","","",""
"","476","html-keynbutton-response","460","2.0.0","2915734","17","<div class=""flex flex-row stim-length pb-8 md:pd-20 justify-evenly items-center""><div class=""circle""></div><div class=""circle""></div><div class=""circle""></div></div>","q","","shape_test_4","match","圆","q","true","圆"
"","null","html-keynbutton-response","461","2.0.0","2916240","17","<div class=""pb-14 text-7xl"">+</div>","null","fixation","","","","","",""
"","469","html-keynbutton-response","462","2.0.0","2916710","17","<div class=""flex flex-row stim-length pb-8 md:pd-20 justify-evenly items-center""><div class=""square""></div><div class=""circle""></div><div class=""square""></div></div>","q","","shape_test_4","mismatch","圆","q","true","圆"
"","null","html-keynbutton-response","463","2.0.0","2917224","17","<div class=""pb-14 text-7xl"">+</div>","null","fixation","","","","","",""
"","541","html-keynbutton-response","464","2.0.0","2917766","17","<div class=""flex flex-row stim-length pb-8 md:pd-20 justify-evenly items-center""><div class=""square""></div><div class=""square""></div><div class=""square""></div></div>","p","","shape_test_4","match","方","p","true","方"
"","null","html-keynbutton-response","465","2.0.0","2918275","17","<div class=""pb-14 text-7xl"">+</div>","null","fixation","","","","","",""
