"success","rt","trial_type","trial_index","plugin_version","time_elapsed","subj_id","stimulus","response","trail_tag","task","ismatch","target","correct_key","correct","response_key"
"true","1508838","fullscreen","0","2.0.0","1509856","4","","","","","","","","",""
"","16608","html-keynbutton-response","1","2.0.0","1526466","4","
        <div class=""jp px-2 xxs:px-5 mx-auto"">
        <p class=""text-center text-red-600 text-[1.2em] pb-5"">欢迎您参加知觉
          <strong>匹配实验。</strong>
        </p>
        <p>接下来的任务中您将看到一排图形。</p>
        <p>(圆形●或方形■)</p><p>您需要专注于中间的图形，判断中间的图形和两侧的图形<strong>是否匹配</strong>。</p>
        <p>如果图形匹配，请按“q”；</p>
        <p>如果图形不匹配，请按“p”。</p>
        <p>请尽量又快又准地做出反应。</p>
      <p>请按空格键开始练习。</p>
      </div>"," ","","","","","","",""
"","null","html-keynbutton-response","2","2.0.0","1529669","4","<count-down title=""""></count-down>","null","countDown_trial","","","","","",""
"","null","html-keynbutton-response","3","2.0.0","1530175","4","<div class=""pb-14 text-7xl"">+</div>","null","fixation","","","","","",""
"","1074","html-keynbutton-response","4","2.0.0","1531249","4","<div class=""flex flex-row stim-length pb-8 md:pd-20 justify-evenly items-center""><div class=""circle""></div><div class=""circle""></div><div class=""circle""></div></div>","q","","matchness_practice","match","圆","q","true","match"
"","null","html-keynbutton-response","5","2.0.0","1531766","4","<span class='text-green-400 text-4xl md:text-5xl lg:text-6xl'>正确!</span>","null","trial_feedback","","","","","",""
"","null","html-keynbutton-response","6","2.0.0","1532277","4","<div class=""pb-14 text-7xl"">+</div>","null","fixation","","","","","",""
"","603","html-keynbutton-response","7","2.0.0","1532881","4","<div class=""flex flex-row stim-length pb-8 md:pd-20 justify-evenly items-center""><div class=""square""></div><div class=""square""></div><div class=""square""></div></div>","q","","matchness_practice","match","方","q","true","match"
"","null","html-keynbutton-response","8","2.0.0","1533390","4","<span class='text-green-400 text-4xl md:text-5xl lg:text-6xl'>正确!</span>","null","trial_feedback","","","","","",""
"","null","html-keynbutton-response","9","2.0.0","1533900","4","<div class=""pb-14 text-7xl"">+</div>","null","fixation","","","","","",""
"","517","html-keynbutton-response","10","2.0.0","1534417","4","<div class=""flex flex-row stim-length pb-8 md:pd-20 justify-evenly items-center""><div class=""circle""></div><div class=""square""></div><div class=""circle""></div></div>","p","","matchness_practice","mismatch","方","p","true","mismatch"
"","null","html-keynbutton-response","11","2.0.0","1534933","4","<span class='text-green-400 text-4xl md:text-5xl lg:text-6xl'>正确!</span>","null","trial_feedback","","","","","",""
"","null","html-keynbutton-response","12","2.0.0","1535443","4","<div class=""pb-14 text-7xl"">+</div>","null","fixation","","","","","",""
"","494","html-keynbutton-response","13","2.0.0","1535937","4","<div class=""flex flex-row stim-length pb-8 md:pd-20 justify-evenly items-center""><div class=""square""></div><div class=""circle""></div><div class=""square""></div></div>","p","","matchness_practice","mismatch","圆","p","true","mismatch"
"","null","html-keynbutton-response","14","2.0.0","1536451","4","<span class='text-green-400 text-4xl md:text-5xl lg:text-6xl'>正确!</span>","null","trial_feedback","","","","","",""
"","null","html-keynbutton-response","15","2.0.0","1536955","4","<div class=""pb-14 text-7xl"">+</div>","null","fixation","","","","","",""
"","470","html-keynbutton-response","16","2.0.0","1537425","4","<div class=""flex flex-row stim-length pb-8 md:pd-20 justify-evenly items-center""><div class=""circle""></div><div class=""square""></div><div class=""circle""></div></div>","p","","matchness_practice","mismatch","方","p","true","mismatch"
"","null","html-keynbutton-response","17","2.0.0","1537927","4","<span class='text-green-400 text-4xl md:text-5xl lg:text-6xl'>正确!</span>","null","trial_feedback","","","","","",""
"","null","html-keynbutton-response","18","2.0.0","1538435","4","<div class=""pb-14 text-7xl"">+</div>","null","fixation","","","","","",""
"","494","html-keynbutton-response","19","2.0.0","1538929","4","<div class=""flex flex-row stim-length pb-8 md:pd-20 justify-evenly items-center""><div class=""circle""></div><div class=""circle""></div><div class=""circle""></div></div>","q","","matchness_practice","match","圆","q","true","match"
"","null","html-keynbutton-response","20","2.0.0","1539435","4","<span class='text-green-400 text-4xl md:text-5xl lg:text-6xl'>正确!</span>","null","trial_feedback","","","","","",""
"","null","html-keynbutton-response","21","2.0.0","1539944","4","<div class=""pb-14 text-7xl"">+</div>","null","fixation","","","","","",""
"","680","html-keynbutton-response","22","2.0.0","1540625","4","<div class=""flex flex-row stim-length pb-8 md:pd-20 justify-evenly items-center""><div class=""square""></div><div class=""square""></div><div class=""square""></div></div>","q","","matchness_practice","match","方","q","true","match"
"","null","html-keynbutton-response","23","2.0.0","1541125","4","<span class='text-green-400 text-4xl md:text-5xl lg:text-6xl'>正确!</span>","null","trial_feedback","","","","","",""
"","null","html-keynbutton-response","24","2.0.0","1541640","4","<div class=""pb-14 text-7xl"">+</div>","null","fixation","","","","","",""
"","536","html-keynbutton-response","25","2.0.0","1542177","4","<div class=""flex flex-row stim-length pb-8 md:pd-20 justify-evenly items-center""><div class=""square""></div><div class=""circle""></div><div class=""square""></div></div>","p","","matchness_practice","mismatch","圆","p","true","mismatch"
"","null","html-keynbutton-response","26","2.0.0","1542690","4","<span class='text-green-400 text-4xl md:text-5xl lg:text-6xl'>正确!</span>","null","trial_feedback","","","","","",""
"","null","html-keynbutton-response","27","2.0.0","1543205","4","<div class=""pb-14 text-7xl"">+</div>","null","fixation","","","","","",""
"","460","html-keynbutton-response","28","2.0.0","1543665","4","<div class=""flex flex-row stim-length pb-8 md:pd-20 justify-evenly items-center""><div class=""square""></div><div class=""circle""></div><div class=""square""></div></div>","p","","matchness_practice","mismatch","圆","p","true","mismatch"
"","null","html-keynbutton-response","29","2.0.0","1544174","4","<span class='text-green-400 text-4xl md:text-5xl lg:text-6xl'>正确!</span>","null","trial_feedback","","","","","",""
"","null","html-keynbutton-response","30","2.0.0","1544678","4","<div class=""pb-14 text-7xl"">+</div>","null","fixation","","","","","",""
"","506","html-keynbutton-response","31","2.0.0","1545185","4","<div class=""flex flex-row stim-length pb-8 md:pd-20 justify-evenly items-center""><div class=""circle""></div><div class=""square""></div><div class=""circle""></div></div>","p","","matchness_practice","mismatch","方","p","true","mismatch"
"","null","html-keynbutton-response","32","2.0.0","1545696","4","<span class='text-green-400 text-4xl md:text-5xl lg:text-6xl'>正确!</span>","null","trial_feedback","","","","","",""
"","null","html-keynbutton-response","33","2.0.0","1546204","4","<div class=""pb-14 text-7xl"">+</div>","null","fixation","","","","","",""
"","565","html-keynbutton-response","34","2.0.0","1546769","4","<div class=""flex flex-row stim-length pb-8 md:pd-20 justify-evenly items-center""><div class=""circle""></div><div class=""circle""></div><div class=""circle""></div></div>","q","","matchness_practice","match","圆","q","true","match"
"","null","html-keynbutton-response","35","2.0.0","1547282","4","<span class='text-green-400 text-4xl md:text-5xl lg:text-6xl'>正确!</span>","null","trial_feedback","","","","","",""
"","null","html-keynbutton-response","36","2.0.0","1547796","4","<div class=""pb-14 text-7xl"">+</div>","null","fixation","","","","","",""
"","701","html-keynbutton-response","37","2.0.0","1548497","4","<div class=""flex flex-row stim-length pb-8 md:pd-20 justify-evenly items-center""><div class=""square""></div><div class=""square""></div><div class=""square""></div></div>","q","","matchness_practice","match","方","q","true","match"
"","null","html-keynbutton-response","38","2.0.0","1549011","4","<span class='text-green-400 text-4xl md:text-5xl lg:text-6xl'>正确!</span>","null","trial_feedback","","","","","",""
"","null","html-keynbutton-response","39","2.0.0","1549514","4","<div class=""pb-14 text-7xl"">+</div>","null","fixation","","","","","",""
"","359","html-keynbutton-response","40","2.0.0","1549873","4","<div class=""flex flex-row stim-length pb-8 md:pd-20 justify-evenly items-center""><div class=""square""></div><div class=""circle""></div><div class=""square""></div></div>","p","","matchness_practice","mismatch","圆","p","true","mismatch"
"","null","html-keynbutton-response","41","2.0.0","1550374","4","<span class='text-green-400 text-4xl md:text-5xl lg:text-6xl'>正确!</span>","null","trial_feedback","","","","","",""
"","null","html-keynbutton-response","42","2.0.0","1550875","4","<div class=""pb-14 text-7xl"">+</div>","null","fixation","","","","","",""
"","405","html-keynbutton-response","43","2.0.0","1551281","4","<div class=""flex flex-row stim-length pb-8 md:pd-20 justify-evenly items-center""><div class=""square""></div><div class=""square""></div><div class=""square""></div></div>","q","","matchness_practice","match","方","q","true","match"
"","null","html-keynbutton-response","44","2.0.0","1551781","4","<span class='text-green-400 text-4xl md:text-5xl lg:text-6xl'>正确!</span>","null","trial_feedback","","","","","",""
"","null","html-keynbutton-response","45","2.0.0","1552297","4","<div class=""pb-14 text-7xl"">+</div>","null","fixation","","","","","",""
"","456","html-keynbutton-response","46","2.0.0","1552753","4","<div class=""flex flex-row stim-length pb-8 md:pd-20 justify-evenly items-center""><div class=""circle""></div><div class=""circle""></div><div class=""circle""></div></div>","q","","matchness_practice","match","圆","q","true","match"
"","null","html-keynbutton-response","47","2.0.0","1553254","4","<span class='text-green-400 text-4xl md:text-5xl lg:text-6xl'>正确!</span>","null","trial_feedback","","","","","",""
"","null","html-keynbutton-response","48","2.0.0","1553755","4","<div class=""pb-14 text-7xl"">+</div>","null","fixation","","","","","",""
"","453","html-keynbutton-response","49","2.0.0","1554209","4","<div class=""flex flex-row stim-length pb-8 md:pd-20 justify-evenly items-center""><div class=""circle""></div><div class=""square""></div><div class=""circle""></div></div>","p","","matchness_practice","mismatch","方","p","true","mismatch"
"","null","html-keynbutton-response","50","2.0.0","1554721","4","<span class='text-green-400 text-4xl md:text-5xl lg:text-6xl'>正确!</span>","null","trial_feedback","","","","","",""
"","null","html-keynbutton-response","51","2.0.0","1555224","4","<div class=""pb-14 text-7xl"">+</div>","null","fixation","","","","","",""
"","505","html-keynbutton-response","52","2.0.0","1555729","4","<div class=""flex flex-row stim-length pb-8 md:pd-20 justify-evenly items-center""><div class=""circle""></div><div class=""circle""></div><div class=""circle""></div></div>","q","","matchness_practice","match","圆","q","true","match"
"","null","html-keynbutton-response","53","2.0.0","1556231","4","<span class='text-green-400 text-4xl md:text-5xl lg:text-6xl'>正确!</span>","null","trial_feedback","","","","","",""
"","null","html-keynbutton-response","54","2.0.0","1556737","4","<div class=""pb-14 text-7xl"">+</div>","null","fixation","","","","","",""
"","480","html-keynbutton-response","55","2.0.0","1557217","4","<div class=""flex flex-row stim-length pb-8 md:pd-20 justify-evenly items-center""><div class=""square""></div><div class=""circle""></div><div class=""square""></div></div>","q","","matchness_practice","mismatch","圆","p","false","match"
"","null","html-keynbutton-response","56","2.0.0","1557722","4","<span class='text-red-500 text-4xl md:text-5xl lg:text-6xl'>错误!</span>","null","trial_feedback","","","","","",""
"","null","html-keynbutton-response","57","2.0.0","1558236","4","<div class=""pb-14 text-7xl"">+</div>","null","fixation","","","","","",""
"","565","html-keynbutton-response","58","2.0.0","1558801","4","<div class=""flex flex-row stim-length pb-8 md:pd-20 justify-evenly items-center""><div class=""circle""></div><div class=""square""></div><div class=""circle""></div></div>","p","","matchness_practice","mismatch","方","p","true","mismatch"
"","null","html-keynbutton-response","59","2.0.0","1559303","4","<span class='text-green-400 text-4xl md:text-5xl lg:text-6xl'>正确!</span>","null","trial_feedback","","","","","",""
"","null","html-keynbutton-response","60","2.0.0","1559814","4","<div class=""pb-14 text-7xl"">+</div>","null","fixation","","","","","",""
"","539","html-keynbutton-response","61","2.0.0","1560353","4","<div class=""flex flex-row stim-length pb-8 md:pd-20 justify-evenly items-center""><div class=""square""></div><div class=""square""></div><div class=""square""></div></div>","q","","matchness_practice","match","方","q","true","match"
"","null","html-keynbutton-response","62","2.0.0","1560861","4","<span class='text-green-400 text-4xl md:text-5xl lg:text-6xl'>正确!</span>","null","trial_feedback","","","","","",""
"","9299","html-keynbutton-response","64","2.0.0","1570161","4","<div class=""jp"">
    <p>您的正确率是：95%</p>
    <p>您的平均反应时间是：543毫秒</p></div>"," ","block_feedback","","","","","",""
"","1567","html-keynbutton-response","65","2.0.0","1571729","4","
        <div class=""jp px-2 xxs:px-5 mx-auto"">
        <p class=""text-center text-red-600 text-[1.2em] pb-5"">练习结束，现在开始正式实验</p>
        <p>请注意：正式实验中将不再会呈现反馈。</p>
        </div>
        "," ","","","","","","",""
"","null","html-keynbutton-response","66","2.0.0","1574936","4","<count-down title=""""></count-down>","null","countDown_trial","","","","","",""
"","null","html-keynbutton-response","67","2.0.0","1575442","4","<div class=""pb-14 text-7xl"">+</div>","null","fixation","","","","","",""
"","527","html-keynbutton-response","68","2.0.0","1575969","4","<div class=""flex flex-row stim-length pb-8 md:pd-20 justify-evenly items-center""><div class=""circle""></div><div class=""circle""></div><div class=""circle""></div></div>","q","","matchness_test","match","圆","q","true","match"
"","null","html-keynbutton-response","69","2.0.0","1576476","4","<div class=""pb-14 text-7xl"">+</div>","null","fixation","","","","","",""
"","452","html-keynbutton-response","70","2.0.0","1576929","4","<div class=""flex flex-row stim-length pb-8 md:pd-20 justify-evenly items-center""><div class=""square""></div><div class=""circle""></div><div class=""square""></div></div>","p","","matchness_test","mismatch","圆","p","true","mismatch"
"","null","html-keynbutton-response","71","2.0.0","1577430","4","<div class=""pb-14 text-7xl"">+</div>","null","fixation","","","","","",""
"","459","html-keynbutton-response","72","2.0.0","1577889","4","<div class=""flex flex-row stim-length pb-8 md:pd-20 justify-evenly items-center""><div class=""circle""></div><div class=""square""></div><div class=""circle""></div></div>","p","","matchness_test","mismatch","方","p","true","mismatch"
"","null","html-keynbutton-response","73","2.0.0","1578403","4","<div class=""pb-14 text-7xl"">+</div>","null","fixation","","","","","",""
"","462","html-keynbutton-response","74","2.0.0","1578865","4","<div class=""flex flex-row stim-length pb-8 md:pd-20 justify-evenly items-center""><div class=""square""></div><div class=""square""></div><div class=""square""></div></div>","q","","matchness_test","match","方","q","true","match"
"","null","html-keynbutton-response","75","2.0.0","1579366","4","<div class=""pb-14 text-7xl"">+</div>","null","fixation","","","","","",""
"","395","html-keynbutton-response","76","2.0.0","1579761","4","<div class=""flex flex-row stim-length pb-8 md:pd-20 justify-evenly items-center""><div class=""square""></div><div class=""square""></div><div class=""square""></div></div>","q","","matchness_test","match","方","q","true","match"
"","null","html-keynbutton-response","77","2.0.0","1580261","4","<div class=""pb-14 text-7xl"">+</div>","null","fixation","","","","","",""
"","411","html-keynbutton-response","78","2.0.0","1580673","4","<div class=""flex flex-row stim-length pb-8 md:pd-20 justify-evenly items-center""><div class=""square""></div><div class=""circle""></div><div class=""square""></div></div>","p","","matchness_test","mismatch","圆","p","true","mismatch"
"","null","html-keynbutton-response","79","2.0.0","1581178","4","<div class=""pb-14 text-7xl"">+</div>","null","fixation","","","","","",""
"","518","html-keynbutton-response","80","2.0.0","1581697","4","<div class=""flex flex-row stim-length pb-8 md:pd-20 justify-evenly items-center""><div class=""circle""></div><div class=""circle""></div><div class=""circle""></div></div>","q","","matchness_test","match","圆","q","true","match"
"","null","html-keynbutton-response","81","2.0.0","1582207","4","<div class=""pb-14 text-7xl"">+</div>","null","fixation","","","","","",""
"","466","html-keynbutton-response","82","2.0.0","1582673","4","<div class=""flex flex-row stim-length pb-8 md:pd-20 justify-evenly items-center""><div class=""circle""></div><div class=""square""></div><div class=""circle""></div></div>","p","","matchness_test","mismatch","方","p","true","mismatch"
"","null","html-keynbutton-response","83","2.0.0","1583177","4","<div class=""pb-14 text-7xl"">+</div>","null","fixation","","","","","",""
"","424","html-keynbutton-response","84","2.0.0","1583601","4","<div class=""flex flex-row stim-length pb-8 md:pd-20 justify-evenly items-center""><div class=""circle""></div><div class=""square""></div><div class=""circle""></div></div>","p","","matchness_test","mismatch","方","p","true","mismatch"
"","null","html-keynbutton-response","85","2.0.0","1584111","4","<div class=""pb-14 text-7xl"">+</div>","null","fixation","","","","","",""
"","401","html-keynbutton-response","86","2.0.0","1584513","4","<div class=""flex flex-row stim-length pb-8 md:pd-20 justify-evenly items-center""><div class=""square""></div><div class=""square""></div><div class=""square""></div></div>","q","","matchness_test","match","方","q","true","match"
"","null","html-keynbutton-response","87","2.0.0","1585020","4","<div class=""pb-14 text-7xl"">+</div>","null","fixation","","","","","",""
"","484","html-keynbutton-response","88","2.0.0","1585505","4","<div class=""flex flex-row stim-length pb-8 md:pd-20 justify-evenly items-center""><div class=""circle""></div><div class=""circle""></div><div class=""circle""></div></div>","q","","matchness_test","match","圆","q","true","match"
"","null","html-keynbutton-response","89","2.0.0","1586006","4","<div class=""pb-14 text-7xl"">+</div>","null","fixation","","","","","",""
"","395","html-keynbutton-response","90","2.0.0","1586401","4","<div class=""flex flex-row stim-length pb-8 md:pd-20 justify-evenly items-center""><div class=""square""></div><div class=""circle""></div><div class=""square""></div></div>","p","","matchness_test","mismatch","圆","p","true","mismatch"
"","null","html-keynbutton-response","91","2.0.0","1586905","4","<div class=""pb-14 text-7xl"">+</div>","null","fixation","","","","","",""
"","408","html-keynbutton-response","92","2.0.0","1587313","4","<div class=""flex flex-row stim-length pb-8 md:pd-20 justify-evenly items-center""><div class=""circle""></div><div class=""circle""></div><div class=""circle""></div></div>","q","","matchness_test","match","圆","q","true","match"
"","null","html-keynbutton-response","93","2.0.0","1587814","4","<div class=""pb-14 text-7xl"">+</div>","null","fixation","","","","","",""
"","459","html-keynbutton-response","94","2.0.0","1588273","4","<div class=""flex flex-row stim-length pb-8 md:pd-20 justify-evenly items-center""><div class=""circle""></div><div class=""square""></div><div class=""circle""></div></div>","p","","matchness_test","mismatch","方","p","true","mismatch"
"","null","html-keynbutton-response","95","2.0.0","1588781","4","<div class=""pb-14 text-7xl"">+</div>","null","fixation","","","","","",""
"","419","html-keynbutton-response","96","2.0.0","1589201","4","<div class=""flex flex-row stim-length pb-8 md:pd-20 justify-evenly items-center""><div class=""square""></div><div class=""square""></div><div class=""square""></div></div>","q","","matchness_test","match","方","q","true","match"
"","null","html-keynbutton-response","97","2.0.0","1589706","4","<div class=""pb-14 text-7xl"">+</div>","null","fixation","","","","","",""
"","518","html-keynbutton-response","98","2.0.0","1590225","4","<div class=""flex flex-row stim-length pb-8 md:pd-20 justify-evenly items-center""><div class=""square""></div><div class=""circle""></div><div class=""square""></div></div>","p","","matchness_test","mismatch","圆","p","true","mismatch"
"","null","html-keynbutton-response","99","2.0.0","1590734","4","<div class=""pb-14 text-7xl"">+</div>","null","fixation","","","","","",""
"","402","html-keynbutton-response","100","2.0.0","1591137","4","<div class=""flex flex-row stim-length pb-8 md:pd-20 justify-evenly items-center""><div class=""circle""></div><div class=""square""></div><div class=""circle""></div></div>","p","","matchness_test","mismatch","方","p","true","mismatch"
"","null","html-keynbutton-response","101","2.0.0","1591653","4","<div class=""pb-14 text-7xl"">+</div>","null","fixation","","","","","",""
"","412","html-keynbutton-response","102","2.0.0","1592065","4","<div class=""flex flex-row stim-length pb-8 md:pd-20 justify-evenly items-center""><div class=""circle""></div><div class=""circle""></div><div class=""circle""></div></div>","q","","matchness_test","match","圆","q","true","match"
"","null","html-keynbutton-response","103","2.0.0","1592566","4","<div class=""pb-14 text-7xl"">+</div>","null","fixation","","","","","",""
"","443","html-keynbutton-response","104","2.0.0","1593009","4","<div class=""flex flex-row stim-length pb-8 md:pd-20 justify-evenly items-center""><div class=""square""></div><div class=""square""></div><div class=""square""></div></div>","q","","matchness_test","match","方","q","true","match"
"","null","html-keynbutton-response","105","2.0.0","1593510","4","<div class=""pb-14 text-7xl"">+</div>","null","fixation","","","","","",""
"","459","html-keynbutton-response","106","2.0.0","1593969","4","<div class=""flex flex-row stim-length pb-8 md:pd-20 justify-evenly items-center""><div class=""square""></div><div class=""circle""></div><div class=""square""></div></div>","p","","matchness_test","mismatch","圆","p","true","mismatch"
"","null","html-keynbutton-response","107","2.0.0","1594480","4","<div class=""pb-14 text-7xl"">+</div>","null","fixation","","","","","",""
"","545","html-keynbutton-response","108","2.0.0","1595025","4","<div class=""flex flex-row stim-length pb-8 md:pd-20 justify-evenly items-center""><div class=""square""></div><div class=""square""></div><div class=""square""></div></div>","q","","matchness_test","match","方","q","true","match"
"","null","html-keynbutton-response","109","2.0.0","1595526","4","<div class=""pb-14 text-7xl"">+</div>","null","fixation","","","","","",""
"","523","html-keynbutton-response","110","2.0.0","1596049","4","<div class=""flex flex-row stim-length pb-8 md:pd-20 justify-evenly items-center""><div class=""square""></div><div class=""circle""></div><div class=""square""></div></div>","p","","matchness_test","mismatch","圆","p","true","mismatch"
"","null","html-keynbutton-response","111","2.0.0","1596560","4","<div class=""pb-14 text-7xl"">+</div>","null","fixation","","","","","",""
"","481","html-keynbutton-response","112","2.0.0","1597041","4","<div class=""flex flex-row stim-length pb-8 md:pd-20 justify-evenly items-center""><div class=""circle""></div><div class=""circle""></div><div class=""circle""></div></div>","q","","matchness_test","match","圆","q","true","match"
"","null","html-keynbutton-response","113","2.0.0","1597556","4","<div class=""pb-14 text-7xl"">+</div>","null","fixation","","","","","",""
"","493","html-keynbutton-response","114","2.0.0","1598049","4","<div class=""flex flex-row stim-length pb-8 md:pd-20 justify-evenly items-center""><div class=""circle""></div><div class=""square""></div><div class=""circle""></div></div>","p","","matchness_test","mismatch","方","p","true","mismatch"
"","null","html-keynbutton-response","115","2.0.0","1598551","4","<div class=""pb-14 text-7xl"">+</div>","null","fixation","","","","","",""
"","458","html-keynbutton-response","116","2.0.0","1599009","4","<div class=""flex flex-row stim-length pb-8 md:pd-20 justify-evenly items-center""><div class=""square""></div><div class=""circle""></div><div class=""square""></div></div>","p","","matchness_test","mismatch","圆","p","true","mismatch"
"","null","html-keynbutton-response","117","2.0.0","1599524","4","<div class=""pb-14 text-7xl"">+</div>","null","fixation","","","","","",""
"","412","html-keynbutton-response","118","2.0.0","1599937","4","<div class=""flex flex-row stim-length pb-8 md:pd-20 justify-evenly items-center""><div class=""square""></div><div class=""square""></div><div class=""square""></div></div>","q","","matchness_test","match","方","q","true","match"
"","null","html-keynbutton-response","119","2.0.0","1600438","4","<div class=""pb-14 text-7xl"">+</div>","null","fixation","","","","","",""
"","411","html-keynbutton-response","120","2.0.0","1600849","4","<div class=""flex flex-row stim-length pb-8 md:pd-20 justify-evenly items-center""><div class=""circle""></div><div class=""circle""></div><div class=""circle""></div></div>","q","","matchness_test","match","圆","q","true","match"
"","null","html-keynbutton-response","121","2.0.0","1601350","4","<div class=""pb-14 text-7xl"">+</div>","null","fixation","","","","","",""
"","491","html-keynbutton-response","122","2.0.0","1601841","4","<div class=""flex flex-row stim-length pb-8 md:pd-20 justify-evenly items-center""><div class=""circle""></div><div class=""square""></div><div class=""circle""></div></div>","p","","matchness_test","mismatch","方","p","true","mismatch"
"","null","html-keynbutton-response","123","2.0.0","1602350","4","<div class=""pb-14 text-7xl"">+</div>","null","fixation","","","","","",""
"","419","html-keynbutton-response","124","2.0.0","1602769","4","<div class=""flex flex-row stim-length pb-8 md:pd-20 justify-evenly items-center""><div class=""square""></div><div class=""square""></div><div class=""square""></div></div>","q","","matchness_test","match","方","q","true","match"
"","null","html-keynbutton-response","125","2.0.0","1603270","4","<div class=""pb-14 text-7xl"">+</div>","null","fixation","","","","","",""
"","843","html-keynbutton-response","126","2.0.0","1604113","4","<div class=""flex flex-row stim-length pb-8 md:pd-20 justify-evenly items-center""><div class=""square""></div><div class=""circle""></div><div class=""square""></div></div>","p","","matchness_test","mismatch","圆","p","true","mismatch"
"","null","html-keynbutton-response","127","2.0.0","1604627","4","<div class=""pb-14 text-7xl"">+</div>","null","fixation","","","","","",""
"","413","html-keynbutton-response","128","2.0.0","1605041","4","<div class=""flex flex-row stim-length pb-8 md:pd-20 justify-evenly items-center""><div class=""circle""></div><div class=""square""></div><div class=""circle""></div></div>","p","","matchness_test","mismatch","方","p","true","mismatch"
"","null","html-keynbutton-response","129","2.0.0","1605541","4","<div class=""pb-14 text-7xl"">+</div>","null","fixation","","","","","",""
"","459","html-keynbutton-response","130","2.0.0","1606001","4","<div class=""flex flex-row stim-length pb-8 md:pd-20 justify-evenly items-center""><div class=""circle""></div><div class=""circle""></div><div class=""circle""></div></div>","q","","matchness_test","match","圆","q","true","match"
"","null","html-keynbutton-response","131","2.0.0","1606501","4","<div class=""pb-14 text-7xl"">+</div>","null","fixation","","","","","",""
"","331","html-keynbutton-response","132","2.0.0","1606833","4","<div class=""flex flex-row stim-length pb-8 md:pd-20 justify-evenly items-center""><div class=""circle""></div><div class=""circle""></div><div class=""circle""></div></div>","q","","matchness_test","match","圆","q","true","match"
"","null","html-keynbutton-response","133","2.0.0","1607334","4","<div class=""pb-14 text-7xl"">+</div>","null","fixation","","","","","",""
"","363","html-keynbutton-response","134","2.0.0","1607697","4","<div class=""flex flex-row stim-length pb-8 md:pd-20 justify-evenly items-center""><div class=""square""></div><div class=""square""></div><div class=""square""></div></div>","q","","matchness_test","match","方","q","true","match"
"","null","html-keynbutton-response","135","2.0.0","1608211","4","<div class=""pb-14 text-7xl"">+</div>","null","fixation","","","","","",""
"","397","html-keynbutton-response","136","2.0.0","1608609","4","<div class=""flex flex-row stim-length pb-8 md:pd-20 justify-evenly items-center""><div class=""square""></div><div class=""circle""></div><div class=""square""></div></div>","p","","matchness_test","mismatch","圆","p","true","mismatch"
"","null","html-keynbutton-response","137","2.0.0","1609115","4","<div class=""pb-14 text-7xl"">+</div>","null","fixation","","","","","",""
"","822","html-keynbutton-response","138","2.0.0","1609937","4","<div class=""flex flex-row stim-length pb-8 md:pd-20 justify-evenly items-center""><div class=""circle""></div><div class=""square""></div><div class=""circle""></div></div>","p","","matchness_test","mismatch","方","p","true","mismatch"
"","null","html-keynbutton-response","139","2.0.0","1610451","4","<div class=""pb-14 text-7xl"">+</div>","null","fixation","","","","","",""
"","541","html-keynbutton-response","140","2.0.0","1610993","4","<div class=""flex flex-row stim-length pb-8 md:pd-20 justify-evenly items-center""><div class=""circle""></div><div class=""circle""></div><div class=""circle""></div></div>","q","","matchness_test","match","圆","q","true","match"
"","null","html-keynbutton-response","141","2.0.0","1611501","4","<div class=""pb-14 text-7xl"">+</div>","null","fixation","","","","","",""
"","371","html-keynbutton-response","142","2.0.0","1611873","4","<div class=""flex flex-row stim-length pb-8 md:pd-20 justify-evenly items-center""><div class=""square""></div><div class=""square""></div><div class=""square""></div></div>","p","","matchness_test","match","方","q","false","mismatch"
"","null","html-keynbutton-response","143","2.0.0","1612387","4","<div class=""pb-14 text-7xl"">+</div>","null","fixation","","","","","",""
"","766","html-keynbutton-response","144","2.0.0","1613153","4","<div class=""flex flex-row stim-length pb-8 md:pd-20 justify-evenly items-center""><div class=""square""></div><div class=""circle""></div><div class=""square""></div></div>","p","","matchness_test","mismatch","圆","p","true","mismatch"
"","null","html-keynbutton-response","145","2.0.0","1613657","4","<div class=""pb-14 text-7xl"">+</div>","null","fixation","","","","","",""
"","472","html-keynbutton-response","146","2.0.0","1614129","4","<div class=""flex flex-row stim-length pb-8 md:pd-20 justify-evenly items-center""><div class=""circle""></div><div class=""square""></div><div class=""circle""></div></div>","p","","matchness_test","mismatch","方","p","true","mismatch"
"","9279","html-keynbutton-response","147","2.0.0","1623409","4","<div class=""jp""><p>您已完成1/10部分</p><p>请休息一会儿</p>
    <p>您的正确率是：98%</p>
    <p>您的平均反应时间是：473毫秒</p></div>"," ","block_feedback","","","","","",""
"","null","html-keynbutton-response","148","2.0.0","1626619","4","<count-down title=""""></count-down>","null","countDown_trial","","","","","",""
"","null","html-keynbutton-response","149","2.0.0","1627124","4","<div class=""pb-14 text-7xl"">+</div>","null","fixation","","","","","",""
"","477","html-keynbutton-response","150","2.0.0","1627601","4","<div class=""flex flex-row stim-length pb-8 md:pd-20 justify-evenly items-center""><div class=""square""></div><div class=""square""></div><div class=""square""></div></div>","q","","matchness_test_1","match","方","q","true","match"
"","null","html-keynbutton-response","151","2.0.0","1628105","4","<div class=""pb-14 text-7xl"">+</div>","null","fixation","","","","","",""
"","408","html-keynbutton-response","152","2.0.0","1628513","4","<div class=""flex flex-row stim-length pb-8 md:pd-20 justify-evenly items-center""><div class=""square""></div><div class=""circle""></div><div class=""square""></div></div>","p","","matchness_test_1","mismatch","圆","p","true","mismatch"
"","null","html-keynbutton-response","153","2.0.0","1629021","4","<div class=""pb-14 text-7xl"">+</div>","null","fixation","","","","","",""
"","419","html-keynbutton-response","154","2.0.0","1629441","4","<div class=""flex flex-row stim-length pb-8 md:pd-20 justify-evenly items-center""><div class=""circle""></div><div class=""circle""></div><div class=""circle""></div></div>","q","","matchness_test_1","match","圆","q","true","match"
"","null","html-keynbutton-response","155","2.0.0","1629950","4","<div class=""pb-14 text-7xl"">+</div>","null","fixation","","","","","",""
"","418","html-keynbutton-response","156","2.0.0","1630365","4","<div class=""flex flex-row stim-length pb-8 md:pd-20 justify-evenly items-center""><div class=""circle""></div><div class=""square""></div><div class=""circle""></div></div>","p","","matchness_test_1","mismatch","方","p","true","mismatch"
"","null","html-keynbutton-response","157","2.0.0","1630869","4","<div class=""pb-14 text-7xl"">+</div>","null","fixation","","","","","",""
"","424","html-keynbutton-response","158","2.0.0","1631293","4","<div class=""flex flex-row stim-length pb-8 md:pd-20 justify-evenly items-center""><div class=""circle""></div><div class=""square""></div><div class=""circle""></div></div>","p","","matchness_test_1","mismatch","方","p","true","mismatch"
"","null","html-keynbutton-response","159","2.0.0","1631807","4","<div class=""pb-14 text-7xl"">+</div>","null","fixation","","","","","",""
"","350","html-keynbutton-response","160","2.0.0","1632157","4","<div class=""flex flex-row stim-length pb-8 md:pd-20 justify-evenly items-center""><div class=""circle""></div><div class=""circle""></div><div class=""circle""></div></div>","q","","matchness_test_1","match","圆","q","true","match"
"","null","html-keynbutton-response","161","2.0.0","1632662","4","<div class=""pb-14 text-7xl"">+</div>","null","fixation","","","","","",""
"","375","html-keynbutton-response","162","2.0.0","1633037","4","<div class=""flex flex-row stim-length pb-8 md:pd-20 justify-evenly items-center""><div class=""square""></div><div class=""square""></div><div class=""square""></div></div>","q","","matchness_test_1","match","方","q","true","match"
"","null","html-keynbutton-response","163","2.0.0","1633539","4","<div class=""pb-14 text-7xl"">+</div>","null","fixation","","","","","",""
"","410","html-keynbutton-response","164","2.0.0","1633949","4","<div class=""flex flex-row stim-length pb-8 md:pd-20 justify-evenly items-center""><div class=""square""></div><div class=""circle""></div><div class=""square""></div></div>","p","","matchness_test_1","mismatch","圆","p","true","mismatch"
"","null","html-keynbutton-response","165","2.0.0","1634459","4","<div class=""pb-14 text-7xl"">+</div>","null","fixation","","","","","",""
"","482","html-keynbutton-response","166","2.0.0","1634941","4","<div class=""flex flex-row stim-length pb-8 md:pd-20 justify-evenly items-center""><div class=""square""></div><div class=""square""></div><div class=""square""></div></div>","q","","matchness_test_1","match","方","q","true","match"
"","null","html-keynbutton-response","167","2.0.0","1635442","4","<div class=""pb-14 text-7xl"">+</div>","null","fixation","","","","","",""
"","395","html-keynbutton-response","168","2.0.0","1635837","4","<div class=""flex flex-row stim-length pb-8 md:pd-20 justify-evenly items-center""><div class=""circle""></div><div class=""square""></div><div class=""circle""></div></div>","p","","matchness_test_1","mismatch","方","p","true","mismatch"
"","null","html-keynbutton-response","169","2.0.0","1636346","4","<div class=""pb-14 text-7xl"">+</div>","null","fixation","","","","","",""
"","419","html-keynbutton-response","170","2.0.0","1636765","4","<div class=""flex flex-row stim-length pb-8 md:pd-20 justify-evenly items-center""><div class=""square""></div><div class=""circle""></div><div class=""square""></div></div>","p","","matchness_test_1","mismatch","圆","p","true","mismatch"
"","null","html-keynbutton-response","171","2.0.0","1637273","4","<div class=""pb-14 text-7xl"">+</div>","null","fixation","","","","","",""
"","516","html-keynbutton-response","172","2.0.0","1637789","4","<div class=""flex flex-row stim-length pb-8 md:pd-20 justify-evenly items-center""><div class=""circle""></div><div class=""circle""></div><div class=""circle""></div></div>","q","","matchness_test_1","match","圆","q","true","match"
"","null","html-keynbutton-response","173","2.0.0","1638291","4","<div class=""pb-14 text-7xl"">+</div>","null","fixation","","","","","",""
"","442","html-keynbutton-response","174","2.0.0","1638733","4","<div class=""flex flex-row stim-length pb-8 md:pd-20 justify-evenly items-center""><div class=""square""></div><div class=""square""></div><div class=""square""></div></div>","q","","matchness_test_1","match","方","q","true","match"
"","null","html-keynbutton-response","175","2.0.0","1639246","4","<div class=""pb-14 text-7xl"">+</div>","null","fixation","","","","","",""
"","415","html-keynbutton-response","176","2.0.0","1639661","4","<div class=""flex flex-row stim-length pb-8 md:pd-20 justify-evenly items-center""><div class=""circle""></div><div class=""circle""></div><div class=""circle""></div></div>","q","","matchness_test_1","match","圆","q","true","match"
"","null","html-keynbutton-response","177","2.0.0","1640162","4","<div class=""pb-14 text-7xl"">+</div>","null","fixation","","","","","",""
"","443","html-keynbutton-response","178","2.0.0","1640605","4","<div class=""flex flex-row stim-length pb-8 md:pd-20 justify-evenly items-center""><div class=""circle""></div><div class=""square""></div><div class=""circle""></div></div>","p","","matchness_test_1","mismatch","方","p","true","mismatch"
"","null","html-keynbutton-response","179","2.0.0","1641109","4","<div class=""pb-14 text-7xl"">+</div>","null","fixation","","","","","",""
"","456","html-keynbutton-response","180","2.0.0","1641565","4","<div class=""flex flex-row stim-length pb-8 md:pd-20 justify-evenly items-center""><div class=""square""></div><div class=""circle""></div><div class=""square""></div></div>","p","","matchness_test_1","mismatch","圆","p","true","mismatch"
"","null","html-keynbutton-response","181","2.0.0","1642082","4","<div class=""pb-14 text-7xl"">+</div>","null","fixation","","","","","",""
"","411","html-keynbutton-response","182","2.0.0","1642493","4","<div class=""flex flex-row stim-length pb-8 md:pd-20 justify-evenly items-center""><div class=""circle""></div><div class=""circle""></div><div class=""circle""></div></div>","q","","matchness_test_1","match","圆","q","true","match"
"","null","html-keynbutton-response","183","2.0.0","1643000","4","<div class=""pb-14 text-7xl"">+</div>","null","fixation","","","","","",""
"","501","html-keynbutton-response","184","2.0.0","1643501","4","<div class=""flex flex-row stim-length pb-8 md:pd-20 justify-evenly items-center""><div class=""square""></div><div class=""circle""></div><div class=""square""></div></div>","p","","matchness_test_1","mismatch","圆","p","true","mismatch"
"","null","html-keynbutton-response","185","2.0.0","1644002","4","<div class=""pb-14 text-7xl"">+</div>","null","fixation","","","","","",""
"","411","html-keynbutton-response","186","2.0.0","1644413","4","<div class=""flex flex-row stim-length pb-8 md:pd-20 justify-evenly items-center""><div class=""circle""></div><div class=""square""></div><div class=""circle""></div></div>","p","","matchness_test_1","mismatch","方","p","true","mismatch"
"","null","html-keynbutton-response","187","2.0.0","1644919","4","<div class=""pb-14 text-7xl"">+</div>","null","fixation","","","","","",""
"","358","html-keynbutton-response","188","2.0.0","1645277","4","<div class=""flex flex-row stim-length pb-8 md:pd-20 justify-evenly items-center""><div class=""square""></div><div class=""square""></div><div class=""square""></div></div>","q","","matchness_test_1","match","方","q","true","match"
"","null","html-keynbutton-response","189","2.0.0","1645778","4","<div class=""pb-14 text-7xl"">+</div>","null","fixation","","","","","",""
"","411","html-keynbutton-response","190","2.0.0","1646189","4","<div class=""flex flex-row stim-length pb-8 md:pd-20 justify-evenly items-center""><div class=""square""></div><div class=""circle""></div><div class=""square""></div></div>","p","","matchness_test_1","mismatch","圆","p","true","mismatch"
"","null","html-keynbutton-response","191","2.0.0","1646698","4","<div class=""pb-14 text-7xl"">+</div>","null","fixation","","","","","",""
"","403","html-keynbutton-response","192","2.0.0","1647102","4","<div class=""flex flex-row stim-length pb-8 md:pd-20 justify-evenly items-center""><div class=""circle""></div><div class=""circle""></div><div class=""circle""></div></div>","q","","matchness_test_1","match","圆","q","true","match"
"","null","html-keynbutton-response","193","2.0.0","1647608","4","<div class=""pb-14 text-7xl"">+</div>","null","fixation","","","","","",""
"","389","html-keynbutton-response","194","2.0.0","1647997","4","<div class=""flex flex-row stim-length pb-8 md:pd-20 justify-evenly items-center""><div class=""square""></div><div class=""square""></div><div class=""square""></div></div>","q","","matchness_test_1","match","方","q","true","match"
"","null","html-keynbutton-response","195","2.0.0","1648498","4","<div class=""pb-14 text-7xl"">+</div>","null","fixation","","","","","",""
"","395","html-keynbutton-response","196","2.0.0","1648893","4","<div class=""flex flex-row stim-length pb-8 md:pd-20 justify-evenly items-center""><div class=""circle""></div><div class=""square""></div><div class=""circle""></div></div>","p","","matchness_test_1","mismatch","方","p","true","mismatch"
"","null","html-keynbutton-response","197","2.0.0","1649394","4","<div class=""pb-14 text-7xl"">+</div>","null","fixation","","","","","",""
"","347","html-keynbutton-response","198","2.0.0","1649741","4","<div class=""flex flex-row stim-length pb-8 md:pd-20 justify-evenly items-center""><div class=""circle""></div><div class=""square""></div><div class=""circle""></div></div>","p","","matchness_test_1","mismatch","方","p","true","mismatch"
"","null","html-keynbutton-response","199","2.0.0","1650242","4","<div class=""pb-14 text-7xl"">+</div>","null","fixation","","","","","",""
"","315","html-keynbutton-response","200","2.0.0","1650557","4","<div class=""flex flex-row stim-length pb-8 md:pd-20 justify-evenly items-center""><div class=""circle""></div><div class=""circle""></div><div class=""circle""></div></div>","q","","matchness_test_1","match","圆","q","true","match"
"","null","html-keynbutton-response","201","2.0.0","1651058","4","<div class=""pb-14 text-7xl"">+</div>","null","fixation","","","","","",""
"","347","html-keynbutton-response","202","2.0.0","1651405","4","<div class=""flex flex-row stim-length pb-8 md:pd-20 justify-evenly items-center""><div class=""square""></div><div class=""square""></div><div class=""square""></div></div>","q","","matchness_test_1","match","方","q","true","match"
"","null","html-keynbutton-response","203","2.0.0","1651912","4","<div class=""pb-14 text-7xl"">+</div>","null","fixation","","","","","",""
"","389","html-keynbutton-response","204","2.0.0","1652301","4","<div class=""flex flex-row stim-length pb-8 md:pd-20 justify-evenly items-center""><div class=""square""></div><div class=""circle""></div><div class=""square""></div></div>","p","","matchness_test_1","mismatch","圆","p","true","mismatch"
"","null","html-keynbutton-response","205","2.0.0","1652818","4","<div class=""pb-14 text-7xl"">+</div>","null","fixation","","","","","",""
"","539","html-keynbutton-response","206","2.0.0","1653357","4","<div class=""flex flex-row stim-length pb-8 md:pd-20 justify-evenly items-center""><div class=""square""></div><div class=""square""></div><div class=""square""></div></div>","q","","matchness_test_1","match","方","q","true","match"
"","null","html-keynbutton-response","207","2.0.0","1653867","4","<div class=""pb-14 text-7xl"">+</div>","null","fixation","","","","","",""
"","402","html-keynbutton-response","208","2.0.0","1654269","4","<div class=""flex flex-row stim-length pb-8 md:pd-20 justify-evenly items-center""><div class=""circle""></div><div class=""square""></div><div class=""circle""></div></div>","p","","matchness_test_1","mismatch","方","p","true","mismatch"
"","null","html-keynbutton-response","209","2.0.0","1654770","4","<div class=""pb-14 text-7xl"">+</div>","null","fixation","","","","","",""
"","410","html-keynbutton-response","210","2.0.0","1655181","4","<div class=""flex flex-row stim-length pb-8 md:pd-20 justify-evenly items-center""><div class=""circle""></div><div class=""circle""></div><div class=""circle""></div></div>","q","","matchness_test_1","match","圆","q","true","match"
"","null","html-keynbutton-response","211","2.0.0","1655686","4","<div class=""pb-14 text-7xl"">+</div>","null","fixation","","","","","",""
"","503","html-keynbutton-response","212","2.0.0","1656189","4","<div class=""flex flex-row stim-length pb-8 md:pd-20 justify-evenly items-center""><div class=""square""></div><div class=""circle""></div><div class=""square""></div></div>","p","","matchness_test_1","mismatch","圆","p","true","mismatch"
"","null","html-keynbutton-response","213","2.0.0","1656704","4","<div class=""pb-14 text-7xl"">+</div>","null","fixation","","","","","",""
"","525","html-keynbutton-response","214","2.0.0","1657229","4","<div class=""flex flex-row stim-length pb-8 md:pd-20 justify-evenly items-center""><div class=""square""></div><div class=""square""></div><div class=""square""></div></div>","q","","matchness_test_1","match","方","q","true","match"
"","null","html-keynbutton-response","215","2.0.0","1657735","4","<div class=""pb-14 text-7xl"">+</div>","null","fixation","","","","","",""
"","438","html-keynbutton-response","216","2.0.0","1658173","4","<div class=""flex flex-row stim-length pb-8 md:pd-20 justify-evenly items-center""><div class=""square""></div><div class=""circle""></div><div class=""square""></div></div>","p","","matchness_test_1","mismatch","圆","p","true","mismatch"
"","null","html-keynbutton-response","217","2.0.0","1658687","4","<div class=""pb-14 text-7xl"">+</div>","null","fixation","","","","","",""
"","414","html-keynbutton-response","218","2.0.0","1659101","4","<div class=""flex flex-row stim-length pb-8 md:pd-20 justify-evenly items-center""><div class=""circle""></div><div class=""square""></div><div class=""circle""></div></div>","p","","matchness_test_1","mismatch","方","p","true","mismatch"
"","null","html-keynbutton-response","219","2.0.0","1659613","4","<div class=""pb-14 text-7xl"">+</div>","null","fixation","","","","","",""
"","400","html-keynbutton-response","220","2.0.0","1660013","4","<div class=""flex flex-row stim-length pb-8 md:pd-20 justify-evenly items-center""><div class=""circle""></div><div class=""circle""></div><div class=""circle""></div></div>","q","","matchness_test_1","match","圆","q","true","match"
"","null","html-keynbutton-response","221","2.0.0","1660527","4","<div class=""pb-14 text-7xl"">+</div>","null","fixation","","","","","",""
"","430","html-keynbutton-response","222","2.0.0","1660957","4","<div class=""flex flex-row stim-length pb-8 md:pd-20 justify-evenly items-center""><div class=""square""></div><div class=""square""></div><div class=""square""></div></div>","q","","matchness_test_1","match","方","q","true","match"
"","null","html-keynbutton-response","223","2.0.0","1661458","4","<div class=""pb-14 text-7xl"">+</div>","null","fixation","","","","","",""
"","395","html-keynbutton-response","224","2.0.0","1661853","4","<div class=""flex flex-row stim-length pb-8 md:pd-20 justify-evenly items-center""><div class=""circle""></div><div class=""square""></div><div class=""circle""></div></div>","p","","matchness_test_1","mismatch","方","p","true","mismatch"
"","null","html-keynbutton-response","225","2.0.0","1662368","4","<div class=""pb-14 text-7xl"">+</div>","null","fixation","","","","","",""
"","477","html-keynbutton-response","226","2.0.0","1662845","4","<div class=""flex flex-row stim-length pb-8 md:pd-20 justify-evenly items-center""><div class=""square""></div><div class=""circle""></div><div class=""square""></div></div>","p","","matchness_test_1","mismatch","圆","p","true","mismatch"
"","null","html-keynbutton-response","227","2.0.0","1663354","4","<div class=""pb-14 text-7xl"">+</div>","null","fixation","","","","","",""
"","467","html-keynbutton-response","228","2.0.0","1663821","4","<div class=""flex flex-row stim-length pb-8 md:pd-20 justify-evenly items-center""><div class=""circle""></div><div class=""circle""></div><div class=""circle""></div></div>","q","","matchness_test_1","match","圆","q","true","match"
"","7759","html-keynbutton-response","229","2.0.0","1671581","4","<div class=""jp""><p>您已完成2/10部分</p><p>请休息一会儿</p>
    <p>您的正确率是：100%</p>
    <p>您的平均反应时间是：423毫秒</p></div>"," ","block_feedback","","","","","",""
"","null","html-keynbutton-response","230","2.0.0","1674783","4","<count-down title=""""></count-down>","null","countDown_trial","","","","","",""
"","null","html-keynbutton-response","231","2.0.0","1675287","4","<div class=""pb-14 text-7xl"">+</div>","null","fixation","","","","","",""
"","422","html-keynbutton-response","232","2.0.0","1675709","4","<div class=""flex flex-row stim-length pb-8 md:pd-20 justify-evenly items-center""><div class=""circle""></div><div class=""circle""></div><div class=""circle""></div></div>","q","","matchness_test_2","match","圆","q","true","match"
"","null","html-keynbutton-response","233","2.0.0","1676210","4","<div class=""pb-14 text-7xl"">+</div>","null","fixation","","","","","",""
"","315","html-keynbutton-response","234","2.0.0","1676525","4","<div class=""flex flex-row stim-length pb-8 md:pd-20 justify-evenly items-center""><div class=""square""></div><div class=""square""></div><div class=""square""></div></div>","q","","matchness_test_2","match","方","q","true","match"
"","null","html-keynbutton-response","235","2.0.0","1677037","4","<div class=""pb-14 text-7xl"">+</div>","null","fixation","","","","","",""
"","383","html-keynbutton-response","236","2.0.0","1677421","4","<div class=""flex flex-row stim-length pb-8 md:pd-20 justify-evenly items-center""><div class=""square""></div><div class=""circle""></div><div class=""square""></div></div>","p","","matchness_test_2","mismatch","圆","p","true","mismatch"
"","null","html-keynbutton-response","237","2.0.0","1677936","4","<div class=""pb-14 text-7xl"">+</div>","null","fixation","","","","","",""
"","381","html-keynbutton-response","238","2.0.0","1678317","4","<div class=""flex flex-row stim-length pb-8 md:pd-20 justify-evenly items-center""><div class=""circle""></div><div class=""square""></div><div class=""circle""></div></div>","p","","matchness_test_2","mismatch","方","p","true","mismatch"
"","null","html-keynbutton-response","239","2.0.0","1678821","4","<div class=""pb-14 text-7xl"">+</div>","null","fixation","","","","","",""
"","344","html-keynbutton-response","240","2.0.0","1679165","4","<div class=""flex flex-row stim-length pb-8 md:pd-20 justify-evenly items-center""><div class=""square""></div><div class=""circle""></div><div class=""square""></div></div>","p","","matchness_test_2","mismatch","圆","p","true","mismatch"
"","null","html-keynbutton-response","241","2.0.0","1679668","4","<div class=""pb-14 text-7xl"">+</div>","null","fixation","","","","","",""
"","362","html-keynbutton-response","242","2.0.0","1680029","4","<div class=""flex flex-row stim-length pb-8 md:pd-20 justify-evenly items-center""><div class=""square""></div><div class=""square""></div><div class=""square""></div></div>","q","","matchness_test_2","match","方","q","true","match"
"","null","html-keynbutton-response","243","2.0.0","1680537","4","<div class=""pb-14 text-7xl"">+</div>","null","fixation","","","","","",""
"","420","html-keynbutton-response","244","2.0.0","1680957","4","<div class=""flex flex-row stim-length pb-8 md:pd-20 justify-evenly items-center""><div class=""circle""></div><div class=""square""></div><div class=""circle""></div></div>","p","","matchness_test_2","mismatch","方","p","true","mismatch"
"","null","html-keynbutton-response","245","2.0.0","1681468","4","<div class=""pb-14 text-7xl"">+</div>","null","fixation","","","","","",""
"","465","html-keynbutton-response","246","2.0.0","1681933","4","<div class=""flex flex-row stim-length pb-8 md:pd-20 justify-evenly items-center""><div class=""circle""></div><div class=""circle""></div><div class=""circle""></div></div>","q","","matchness_test_2","match","圆","q","true","match"
"","null","html-keynbutton-response","247","2.0.0","1682448","4","<div class=""pb-14 text-7xl"">+</div>","null","fixation","","","","","",""
"","413","html-keynbutton-response","248","2.0.0","1682861","4","<div class=""flex flex-row stim-length pb-8 md:pd-20 justify-evenly items-center""><div class=""square""></div><div class=""square""></div><div class=""square""></div></div>","q","","matchness_test_2","match","方","q","true","match"
"","null","html-keynbutton-response","249","2.0.0","1683373","4","<div class=""pb-14 text-7xl"">+</div>","null","fixation","","","","","",""
"","432","html-keynbutton-response","250","2.0.0","1683805","4","<div class=""flex flex-row stim-length pb-8 md:pd-20 justify-evenly items-center""><div class=""circle""></div><div class=""circle""></div><div class=""circle""></div></div>","q","","matchness_test_2","match","圆","q","true","match"
"","null","html-keynbutton-response","251","2.0.0","1684306","4","<div class=""pb-14 text-7xl"">+</div>","null","fixation","","","","","",""
"","427","html-keynbutton-response","252","2.0.0","1684733","4","<div class=""flex flex-row stim-length pb-8 md:pd-20 justify-evenly items-center""><div class=""square""></div><div class=""circle""></div><div class=""square""></div></div>","p","","matchness_test_2","mismatch","圆","p","true","mismatch"
"","null","html-keynbutton-response","253","2.0.0","1685240","4","<div class=""pb-14 text-7xl"">+</div>","null","fixation","","","","","",""
"","357","html-keynbutton-response","254","2.0.0","1685597","4","<div class=""flex flex-row stim-length pb-8 md:pd-20 justify-evenly items-center""><div class=""circle""></div><div class=""square""></div><div class=""circle""></div></div>","p","","matchness_test_2","mismatch","方","p","true","mismatch"
"","null","html-keynbutton-response","255","2.0.0","1686112","4","<div class=""pb-14 text-7xl"">+</div>","null","fixation","","","","","",""
"","445","html-keynbutton-response","256","2.0.0","1686557","4","<div class=""flex flex-row stim-length pb-8 md:pd-20 justify-evenly items-center""><div class=""square""></div><div class=""square""></div><div class=""square""></div></div>","q","","matchness_test_2","match","方","q","true","match"
"","null","html-keynbutton-response","257","2.0.0","1687058","4","<div class=""pb-14 text-7xl"">+</div>","null","fixation","","","","","",""
"","331","html-keynbutton-response","258","2.0.0","1687389","4","<div class=""flex flex-row stim-length pb-8 md:pd-20 justify-evenly items-center""><div class=""circle""></div><div class=""circle""></div><div class=""circle""></div></div>","q","","matchness_test_2","match","圆","q","true","match"
"","null","html-keynbutton-response","259","2.0.0","1687901","4","<div class=""pb-14 text-7xl"">+</div>","null","fixation","","","","","",""
"","368","html-keynbutton-response","260","2.0.0","1688269","4","<div class=""flex flex-row stim-length pb-8 md:pd-20 justify-evenly items-center""><div class=""circle""></div><div class=""square""></div><div class=""circle""></div></div>","p","","matchness_test_2","mismatch","方","p","true","mismatch"
"","null","html-keynbutton-response","261","2.0.0","1688782","4","<div class=""pb-14 text-7xl"">+</div>","null","fixation","","","","","",""
"","367","html-keynbutton-response","262","2.0.0","1689149","4","<div class=""flex flex-row stim-length pb-8 md:pd-20 justify-evenly items-center""><div class=""square""></div><div class=""circle""></div><div class=""square""></div></div>","p","","matchness_test_2","mismatch","圆","p","true","mismatch"
"","null","html-keynbutton-response","263","2.0.0","1689656","4","<div class=""pb-14 text-7xl"">+</div>","null","fixation","","","","","",""
"","389","html-keynbutton-response","264","2.0.0","1690045","4","<div class=""flex flex-row stim-length pb-8 md:pd-20 justify-evenly items-center""><div class=""circle""></div><div class=""square""></div><div class=""circle""></div></div>","p","","matchness_test_2","mismatch","方","p","true","mismatch"
"","null","html-keynbutton-response","265","2.0.0","1690559","4","<div class=""pb-14 text-7xl"">+</div>","null","fixation","","","","","",""
"","307","html-keynbutton-response","266","2.0.0","1690866","4","<div class=""flex flex-row stim-length pb-8 md:pd-20 justify-evenly items-center""><div class=""square""></div><div class=""circle""></div><div class=""square""></div></div>","p","","matchness_test_2","mismatch","圆","p","true","mismatch"
"","null","html-keynbutton-response","267","2.0.0","1691380","4","<div class=""pb-14 text-7xl"">+</div>","null","fixation","","","","","",""
"","334","html-keynbutton-response","268","2.0.0","1691714","4","<div class=""flex flex-row stim-length pb-8 md:pd-20 justify-evenly items-center""><div class=""square""></div><div class=""square""></div><div class=""square""></div></div>","p","","matchness_test_2","match","方","q","false","mismatch"
"","null","html-keynbutton-response","269","2.0.0","1692225","4","<div class=""pb-14 text-7xl"">+</div>","null","fixation","","","","","",""
"","432","html-keynbutton-response","270","2.0.0","1692658","4","<div class=""flex flex-row stim-length pb-8 md:pd-20 justify-evenly items-center""><div class=""circle""></div><div class=""circle""></div><div class=""circle""></div></div>","q","","matchness_test_2","match","圆","q","true","match"
"","null","html-keynbutton-response","271","2.0.0","1693159","4","<div class=""pb-14 text-7xl"">+</div>","null","fixation","","","","","",""
"","362","html-keynbutton-response","272","2.0.0","1693521","4","<div class=""flex flex-row stim-length pb-8 md:pd-20 justify-evenly items-center""><div class=""circle""></div><div class=""circle""></div><div class=""circle""></div></div>","q","","matchness_test_2","match","圆","q","true","match"
"","null","html-keynbutton-response","273","2.0.0","1694022","4","<div class=""pb-14 text-7xl"">+</div>","null","fixation","","","","","",""
"","427","html-keynbutton-response","274","2.0.0","1694450","4","<div class=""flex flex-row stim-length pb-8 md:pd-20 justify-evenly items-center""><div class=""circle""></div><div class=""square""></div><div class=""circle""></div></div>","p","","matchness_test_2","mismatch","方","p","true","mismatch"
"","null","html-keynbutton-response","275","2.0.0","1694964","4","<div class=""pb-14 text-7xl"">+</div>","null","fixation","","","","","",""
"","445","html-keynbutton-response","276","2.0.0","1695410","4","<div class=""flex flex-row stim-length pb-8 md:pd-20 justify-evenly items-center""><div class=""square""></div><div class=""circle""></div><div class=""square""></div></div>","p","","matchness_test_2","mismatch","圆","p","true","mismatch"
"","null","html-keynbutton-response","277","2.0.0","1695911","4","<div class=""pb-14 text-7xl"">+</div>","null","fixation","","","","","",""
"","427","html-keynbutton-response","278","2.0.0","1696338","4","<div class=""flex flex-row stim-length pb-8 md:pd-20 justify-evenly items-center""><div class=""square""></div><div class=""square""></div><div class=""square""></div></div>","q","","matchness_test_2","match","方","q","true","match"
"","null","html-keynbutton-response","279","2.0.0","1696847","4","<div class=""pb-14 text-7xl"">+</div>","null","fixation","","","","","",""
"","370","html-keynbutton-response","280","2.0.0","1697218","4","<div class=""flex flex-row stim-length pb-8 md:pd-20 justify-evenly items-center""><div class=""square""></div><div class=""circle""></div><div class=""square""></div></div>","p","","matchness_test_2","mismatch","圆","p","true","mismatch"
"","null","html-keynbutton-response","281","2.0.0","1697719","4","<div class=""pb-14 text-7xl"">+</div>","null","fixation","","","","","",""
"","330","html-keynbutton-response","282","2.0.0","1698050","4","<div class=""flex flex-row stim-length pb-8 md:pd-20 justify-evenly items-center""><div class=""circle""></div><div class=""circle""></div><div class=""circle""></div></div>","q","","matchness_test_2","match","圆","q","true","match"
"","null","html-keynbutton-response","283","2.0.0","1698565","4","<div class=""pb-14 text-7xl"">+</div>","null","fixation","","","","","",""
"","316","html-keynbutton-response","284","2.0.0","1698882","4","<div class=""flex flex-row stim-length pb-8 md:pd-20 justify-evenly items-center""><div class=""square""></div><div class=""square""></div><div class=""square""></div></div>","q","","matchness_test_2","match","方","q","true","match"
"","null","html-keynbutton-response","285","2.0.0","1699383","4","<div class=""pb-14 text-7xl"">+</div>","null","fixation","","","","","",""
"","299","html-keynbutton-response","286","2.0.0","1699682","4","<div class=""flex flex-row stim-length pb-8 md:pd-20 justify-evenly items-center""><div class=""circle""></div><div class=""square""></div><div class=""circle""></div></div>","q","","matchness_test_2","mismatch","方","p","false","match"
"","null","html-keynbutton-response","287","2.0.0","1700191","4","<div class=""pb-14 text-7xl"">+</div>","null","fixation","","","","","",""
"","579","html-keynbutton-response","288","2.0.0","1700770","4","<div class=""flex flex-row stim-length pb-8 md:pd-20 justify-evenly items-center""><div class=""circle""></div><div class=""circle""></div><div class=""circle""></div></div>","q","","matchness_test_2","match","圆","q","true","match"
"","null","html-keynbutton-response","289","2.0.0","1701272","4","<div class=""pb-14 text-7xl"">+</div>","null","fixation","","","","","",""
"","442","html-keynbutton-response","290","2.0.0","1701714","4","<div class=""flex flex-row stim-length pb-8 md:pd-20 justify-evenly items-center""><div class=""square""></div><div class=""square""></div><div class=""square""></div></div>","q","","matchness_test_2","match","方","q","true","match"
"","null","html-keynbutton-response","291","2.0.0","1702223","4","<div class=""pb-14 text-7xl"">+</div>","null","fixation","","","","","",""
"","434","html-keynbutton-response","292","2.0.0","1702658","4","<div class=""flex flex-row stim-length pb-8 md:pd-20 justify-evenly items-center""><div class=""square""></div><div class=""circle""></div><div class=""square""></div></div>","p","","matchness_test_2","mismatch","圆","p","true","mismatch"
"","null","html-keynbutton-response","293","2.0.0","1703158","4","<div class=""pb-14 text-7xl"">+</div>","null","fixation","","","","","",""
"","395","html-keynbutton-response","294","2.0.0","1703554","4","<div class=""flex flex-row stim-length pb-8 md:pd-20 justify-evenly items-center""><div class=""circle""></div><div class=""square""></div><div class=""circle""></div></div>","p","","matchness_test_2","mismatch","方","p","true","mismatch"
"","null","html-keynbutton-response","295","2.0.0","1704055","4","<div class=""pb-14 text-7xl"">+</div>","null","fixation","","","","","",""
"","475","html-keynbutton-response","296","2.0.0","1704530","4","<div class=""flex flex-row stim-length pb-8 md:pd-20 justify-evenly items-center""><div class=""circle""></div><div class=""circle""></div><div class=""circle""></div></div>","q","","matchness_test_2","match","圆","q","true","match"
"","null","html-keynbutton-response","297","2.0.0","1705030","4","<div class=""pb-14 text-7xl"">+</div>","null","fixation","","","","","",""
"","572","html-keynbutton-response","298","2.0.0","1705602","4","<div class=""flex flex-row stim-length pb-8 md:pd-20 justify-evenly items-center""><div class=""square""></div><div class=""square""></div><div class=""square""></div></div>","q","","matchness_test_2","match","方","q","true","match"
"","null","html-keynbutton-response","299","2.0.0","1706103","4","<div class=""pb-14 text-7xl"">+</div>","null","fixation","","","","","",""
"","411","html-keynbutton-response","300","2.0.0","1706514","4","<div class=""flex flex-row stim-length pb-8 md:pd-20 justify-evenly items-center""><div class=""circle""></div><div class=""square""></div><div class=""circle""></div></div>","p","","matchness_test_2","mismatch","方","p","true","mismatch"
"","null","html-keynbutton-response","301","2.0.0","1707015","4","<div class=""pb-14 text-7xl"">+</div>","null","fixation","","","","","",""
"","443","html-keynbutton-response","302","2.0.0","1707458","4","<div class=""flex flex-row stim-length pb-8 md:pd-20 justify-evenly items-center""><div class=""square""></div><div class=""circle""></div><div class=""square""></div></div>","p","","matchness_test_2","mismatch","圆","p","true","mismatch"
"","null","html-keynbutton-response","303","2.0.0","1707968","4","<div class=""pb-14 text-7xl"">+</div>","null","fixation","","","","","",""
"","449","html-keynbutton-response","304","2.0.0","1708418","4","<div class=""flex flex-row stim-length pb-8 md:pd-20 justify-evenly items-center""><div class=""square""></div><div class=""circle""></div><div class=""square""></div></div>","p","","matchness_test_2","mismatch","圆","p","true","mismatch"
"","null","html-keynbutton-response","305","2.0.0","1708928","4","<div class=""pb-14 text-7xl"">+</div>","null","fixation","","","","","",""
"","482","html-keynbutton-response","306","2.0.0","1709410","4","<div class=""flex flex-row stim-length pb-8 md:pd-20 justify-evenly items-center""><div class=""circle""></div><div class=""square""></div><div class=""circle""></div></div>","p","","matchness_test_2","mismatch","方","p","true","mismatch"
"","null","html-keynbutton-response","307","2.0.0","1709910","4","<div class=""pb-14 text-7xl"">+</div>","null","fixation","","","","","",""
"","411","html-keynbutton-response","308","2.0.0","1710322","4","<div class=""flex flex-row stim-length pb-8 md:pd-20 justify-evenly items-center""><div class=""square""></div><div class=""square""></div><div class=""square""></div></div>","q","","matchness_test_2","match","方","q","true","match"
"","null","html-keynbutton-response","309","2.0.0","1710825","4","<div class=""pb-14 text-7xl"">+</div>","null","fixation","","","","","",""
"","393","html-keynbutton-response","310","2.0.0","1711218","4","<div class=""flex flex-row stim-length pb-8 md:pd-20 justify-evenly items-center""><div class=""circle""></div><div class=""circle""></div><div class=""circle""></div></div>","q","","matchness_test_2","match","圆","q","true","match"
"","4191","html-keynbutton-response","311","2.0.0","1715410","4","<div class=""jp""><p>您已完成3/10部分</p><p>请休息一会儿</p>
    <p>您的正确率是：95%</p>
    <p>您的平均反应时间是：404毫秒</p></div>"," ","block_feedback","","","","","",""
"","null","html-keynbutton-response","312","2.0.0","1718620","4","<count-down title=""""></count-down>","null","countDown_trial","","","","","",""
"","null","html-keynbutton-response","313","2.0.0","1719125","4","<div class=""pb-14 text-7xl"">+</div>","null","fixation","","","","","",""
"","460","html-keynbutton-response","314","2.0.0","1719586","4","<div class=""flex flex-row stim-length pb-8 md:pd-20 justify-evenly items-center""><div class=""circle""></div><div class=""square""></div><div class=""circle""></div></div>","p","","matchness_test_3","mismatch","方","p","true","mismatch"
"","null","html-keynbutton-response","315","2.0.0","1720100","4","<div class=""pb-14 text-7xl"">+</div>","null","fixation","","","","","",""
"","334","html-keynbutton-response","316","2.0.0","1720434","4","<div class=""flex flex-row stim-length pb-8 md:pd-20 justify-evenly items-center""><div class=""circle""></div><div class=""circle""></div><div class=""circle""></div></div>","q","","matchness_test_3","match","圆","q","true","match"
"","null","html-keynbutton-response","317","2.0.0","1720936","4","<div class=""pb-14 text-7xl"">+</div>","null","fixation","","","","","",""
"","473","html-keynbutton-response","318","2.0.0","1721410","4","<div class=""flex flex-row stim-length pb-8 md:pd-20 justify-evenly items-center""><div class=""square""></div><div class=""square""></div><div class=""square""></div></div>","q","","matchness_test_3","match","方","q","true","match"
"","null","html-keynbutton-response","319","2.0.0","1721914","4","<div class=""pb-14 text-7xl"">+</div>","null","fixation","","","","","",""
"","791","html-keynbutton-response","320","2.0.0","1722705","4","<div class=""flex flex-row stim-length pb-8 md:pd-20 justify-evenly items-center""><div class=""square""></div><div class=""circle""></div><div class=""square""></div></div>","p","","matchness_test_3","mismatch","圆","p","true","mismatch"
"","null","html-keynbutton-response","321","2.0.0","1723221","4","<div class=""pb-14 text-7xl"">+</div>","null","fixation","","","","","",""
"","540","html-keynbutton-response","322","2.0.0","1723762","4","<div class=""flex flex-row stim-length pb-8 md:pd-20 justify-evenly items-center""><div class=""circle""></div><div class=""circle""></div><div class=""circle""></div></div>","q","","matchness_test_3","match","圆","q","true","match"
"","null","html-keynbutton-response","323","2.0.0","1724278","4","<div class=""pb-14 text-7xl"">+</div>","null","fixation","","","","","",""
"","428","html-keynbutton-response","324","2.0.0","1724706","4","<div class=""flex flex-row stim-length pb-8 md:pd-20 justify-evenly items-center""><div class=""square""></div><div class=""square""></div><div class=""square""></div></div>","q","","matchness_test_3","match","方","q","true","match"
"","null","html-keynbutton-response","325","2.0.0","1725221","4","<div class=""pb-14 text-7xl"">+</div>","null","fixation","","","","","",""
"","444","html-keynbutton-response","326","2.0.0","1725666","4","<div class=""flex flex-row stim-length pb-8 md:pd-20 justify-evenly items-center""><div class=""circle""></div><div class=""square""></div><div class=""circle""></div></div>","p","","matchness_test_3","mismatch","方","p","true","mismatch"
"","null","html-keynbutton-response","327","2.0.0","1726170","4","<div class=""pb-14 text-7xl"">+</div>","null","fixation","","","","","",""
"","392","html-keynbutton-response","328","2.0.0","1726562","4","<div class=""flex flex-row stim-length pb-8 md:pd-20 justify-evenly items-center""><div class=""square""></div><div class=""circle""></div><div class=""square""></div></div>","p","","matchness_test_3","mismatch","圆","p","true","mismatch"
"","null","html-keynbutton-response","329","2.0.0","1727076","4","<div class=""pb-14 text-7xl"">+</div>","null","fixation","","","","","",""
"","365","html-keynbutton-response","330","2.0.0","1727442","4","<div class=""flex flex-row stim-length pb-8 md:pd-20 justify-evenly items-center""><div class=""square""></div><div class=""square""></div><div class=""square""></div></div>","q","","matchness_test_3","match","方","q","true","match"
"","null","html-keynbutton-response","331","2.0.0","1727949","4","<div class=""pb-14 text-7xl"">+</div>","null","fixation","","","","","",""
"","372","html-keynbutton-response","332","2.0.0","1728322","4","<div class=""flex flex-row stim-length pb-8 md:pd-20 justify-evenly items-center""><div class=""square""></div><div class=""circle""></div><div class=""square""></div></div>","p","","matchness_test_3","mismatch","圆","p","true","mismatch"
"","null","html-keynbutton-response","333","2.0.0","1728828","4","<div class=""pb-14 text-7xl"">+</div>","null","fixation","","","","","",""
"","358","html-keynbutton-response","334","2.0.0","1729186","4","<div class=""flex flex-row stim-length pb-8 md:pd-20 justify-evenly items-center""><div class=""circle""></div><div class=""square""></div><div class=""circle""></div></div>","p","","matchness_test_3","mismatch","方","p","true","mismatch"
"","null","html-keynbutton-response","335","2.0.0","1729694","4","<div class=""pb-14 text-7xl"">+</div>","null","fixation","","","","","",""
"","548","html-keynbutton-response","336","2.0.0","1730242","4","<div class=""flex flex-row stim-length pb-8 md:pd-20 justify-evenly items-center""><div class=""circle""></div><div class=""circle""></div><div class=""circle""></div></div>","q","","matchness_test_3","match","圆","q","true","match"
"","null","html-keynbutton-response","337","2.0.0","1730746","4","<div class=""pb-14 text-7xl"">+</div>","null","fixation","","","","","",""
"","487","html-keynbutton-response","338","2.0.0","1731234","4","<div class=""flex flex-row stim-length pb-8 md:pd-20 justify-evenly items-center""><div class=""circle""></div><div class=""square""></div><div class=""circle""></div></div>","p","","matchness_test_3","mismatch","方","p","true","mismatch"
"","null","html-keynbutton-response","339","2.0.0","1731742","4","<div class=""pb-14 text-7xl"">+</div>","null","fixation","","","","","",""
"","435","html-keynbutton-response","340","2.0.0","1732178","4","<div class=""flex flex-row stim-length pb-8 md:pd-20 justify-evenly items-center""><div class=""circle""></div><div class=""circle""></div><div class=""circle""></div></div>","q","","matchness_test_3","match","圆","q","true","match"
"","null","html-keynbutton-response","341","2.0.0","1732684","4","<div class=""pb-14 text-7xl"">+</div>","null","fixation","","","","","",""
"","309","html-keynbutton-response","342","2.0.0","1732994","4","<div class=""flex flex-row stim-length pb-8 md:pd-20 justify-evenly items-center""><div class=""square""></div><div class=""square""></div><div class=""square""></div></div>","q","","matchness_test_3","match","方","q","true","match"
"","null","html-keynbutton-response","343","2.0.0","1733507","4","<div class=""pb-14 text-7xl"">+</div>","null","fixation","","","","","",""
"","430","html-keynbutton-response","344","2.0.0","1733938","4","<div class=""flex flex-row stim-length pb-8 md:pd-20 justify-evenly items-center""><div class=""square""></div><div class=""circle""></div><div class=""square""></div></div>","p","","matchness_test_3","mismatch","圆","p","true","mismatch"
"","null","html-keynbutton-response","345","2.0.0","1734448","4","<div class=""pb-14 text-7xl"">+</div>","null","fixation","","","","","",""
"","449","html-keynbutton-response","346","2.0.0","1734898","4","<div class=""flex flex-row stim-length pb-8 md:pd-20 justify-evenly items-center""><div class=""circle""></div><div class=""circle""></div><div class=""circle""></div></div>","q","","matchness_test_3","match","圆","q","true","match"
"","null","html-keynbutton-response","347","2.0.0","1735402","4","<div class=""pb-14 text-7xl"">+</div>","null","fixation","","","","","",""
"","407","html-keynbutton-response","348","2.0.0","1735810","4","<div class=""flex flex-row stim-length pb-8 md:pd-20 justify-evenly items-center""><div class=""circle""></div><div class=""square""></div><div class=""circle""></div></div>","p","","matchness_test_3","mismatch","方","p","true","mismatch"
"","null","html-keynbutton-response","349","2.0.0","1736314","4","<div class=""pb-14 text-7xl"">+</div>","null","fixation","","","","","",""
"","471","html-keynbutton-response","350","2.0.0","1736786","4","<div class=""flex flex-row stim-length pb-8 md:pd-20 justify-evenly items-center""><div class=""square""></div><div class=""circle""></div><div class=""square""></div></div>","p","","matchness_test_3","mismatch","圆","p","true","mismatch"
"","null","html-keynbutton-response","351","2.0.0","1737293","4","<div class=""pb-14 text-7xl"">+</div>","null","fixation","","","","","",""
"","373","html-keynbutton-response","352","2.0.0","1737666","4","<div class=""flex flex-row stim-length pb-8 md:pd-20 justify-evenly items-center""><div class=""square""></div><div class=""square""></div><div class=""square""></div></div>","q","","matchness_test_3","match","方","q","true","match"
"","null","html-keynbutton-response","353","2.0.0","1738167","4","<div class=""pb-14 text-7xl"">+</div>","null","fixation","","","","","",""
"","411","html-keynbutton-response","354","2.0.0","1738578","4","<div class=""flex flex-row stim-length pb-8 md:pd-20 justify-evenly items-center""><div class=""square""></div><div class=""circle""></div><div class=""square""></div></div>","p","","matchness_test_3","mismatch","圆","p","true","mismatch"
"","null","html-keynbutton-response","355","2.0.0","1739078","4","<div class=""pb-14 text-7xl"">+</div>","null","fixation","","","","","",""
"","363","html-keynbutton-response","356","2.0.0","1739442","4","<div class=""flex flex-row stim-length pb-8 md:pd-20 justify-evenly items-center""><div class=""circle""></div><div class=""circle""></div><div class=""circle""></div></div>","q","","matchness_test_3","match","圆","q","true","match"
"","null","html-keynbutton-response","357","2.0.0","1739953","4","<div class=""pb-14 text-7xl"">+</div>","null","fixation","","","","","",""
"","384","html-keynbutton-response","358","2.0.0","1740338","4","<div class=""flex flex-row stim-length pb-8 md:pd-20 justify-evenly items-center""><div class=""circle""></div><div class=""square""></div><div class=""circle""></div></div>","p","","matchness_test_3","mismatch","方","p","true","mismatch"
"","null","html-keynbutton-response","359","2.0.0","1740839","4","<div class=""pb-14 text-7xl"">+</div>","null","fixation","","","","","",""
"","427","html-keynbutton-response","360","2.0.0","1741266","4","<div class=""flex flex-row stim-length pb-8 md:pd-20 justify-evenly items-center""><div class=""square""></div><div class=""square""></div><div class=""square""></div></div>","q","","matchness_test_3","match","方","q","true","match"
"","null","html-keynbutton-response","361","2.0.0","1741766","4","<div class=""pb-14 text-7xl"">+</div>","null","fixation","","","","","",""
"","427","html-keynbutton-response","362","2.0.0","1742194","4","<div class=""flex flex-row stim-length pb-8 md:pd-20 justify-evenly items-center""><div class=""square""></div><div class=""circle""></div><div class=""square""></div></div>","p","","matchness_test_3","mismatch","圆","p","true","mismatch"
"","null","html-keynbutton-response","363","2.0.0","1742701","4","<div class=""pb-14 text-7xl"">+</div>","null","fixation","","","","","",""
"","564","html-keynbutton-response","364","2.0.0","1743266","4","<div class=""flex flex-row stim-length pb-8 md:pd-20 justify-evenly items-center""><div class=""circle""></div><div class=""circle""></div><div class=""circle""></div></div>","q","","matchness_test_3","match","圆","q","true","match"
"","null","html-keynbutton-response","365","2.0.0","1743767","4","<div class=""pb-14 text-7xl"">+</div>","null","fixation","","","","","",""
"","347","html-keynbutton-response","366","2.0.0","1744114","4","<div class=""flex flex-row stim-length pb-8 md:pd-20 justify-evenly items-center""><div class=""circle""></div><div class=""square""></div><div class=""circle""></div></div>","p","","matchness_test_3","mismatch","方","p","true","mismatch"
"","null","html-keynbutton-response","367","2.0.0","1744619","4","<div class=""pb-14 text-7xl"">+</div>","null","fixation","","","","","",""
"","550","html-keynbutton-response","368","2.0.0","1745170","4","<div class=""flex flex-row stim-length pb-8 md:pd-20 justify-evenly items-center""><div class=""square""></div><div class=""square""></div><div class=""square""></div></div>","q","","matchness_test_3","match","方","q","true","match"
"","null","html-keynbutton-response","369","2.0.0","1745682","4","<div class=""pb-14 text-7xl"">+</div>","null","fixation","","","","","",""
"","383","html-keynbutton-response","370","2.0.0","1746066","4","<div class=""flex flex-row stim-length pb-8 md:pd-20 justify-evenly items-center""><div class=""square""></div><div class=""circle""></div><div class=""square""></div></div>","p","","matchness_test_3","mismatch","圆","p","true","mismatch"
"","null","html-keynbutton-response","371","2.0.0","1746581","4","<div class=""pb-14 text-7xl"">+</div>","null","fixation","","","","","",""
"","508","html-keynbutton-response","372","2.0.0","1747090","4","<div class=""flex flex-row stim-length pb-8 md:pd-20 justify-evenly items-center""><div class=""circle""></div><div class=""circle""></div><div class=""circle""></div></div>","q","","matchness_test_3","match","圆","q","true","match"
"","null","html-keynbutton-response","373","2.0.0","1747590","4","<div class=""pb-14 text-7xl"">+</div>","null","fixation","","","","","",""
"","443","html-keynbutton-response","374","2.0.0","1748034","4","<div class=""flex flex-row stim-length pb-8 md:pd-20 justify-evenly items-center""><div class=""circle""></div><div class=""square""></div><div class=""circle""></div></div>","p","","matchness_test_3","mismatch","方","p","true","mismatch"
"","null","html-keynbutton-response","375","2.0.0","1748544","4","<div class=""pb-14 text-7xl"">+</div>","null","fixation","","","","","",""
"","449","html-keynbutton-response","376","2.0.0","1748994","4","<div class=""flex flex-row stim-length pb-8 md:pd-20 justify-evenly items-center""><div class=""square""></div><div class=""square""></div><div class=""square""></div></div>","q","","matchness_test_3","match","方","q","true","match"
"","null","html-keynbutton-response","377","2.0.0","1749503","4","<div class=""pb-14 text-7xl"">+</div>","null","fixation","","","","","",""
"","387","html-keynbutton-response","378","2.0.0","1749890","4","<div class=""flex flex-row stim-length pb-8 md:pd-20 justify-evenly items-center""><div class=""circle""></div><div class=""circle""></div><div class=""circle""></div></div>","q","","matchness_test_3","match","圆","q","true","match"
"","null","html-keynbutton-response","379","2.0.0","1750394","4","<div class=""pb-14 text-7xl"">+</div>","null","fixation","","","","","",""
"","392","html-keynbutton-response","380","2.0.0","1750785","4","<div class=""flex flex-row stim-length pb-8 md:pd-20 justify-evenly items-center""><div class=""circle""></div><div class=""square""></div><div class=""circle""></div></div>","p","","matchness_test_3","mismatch","方","p","true","mismatch"
"","null","html-keynbutton-response","381","2.0.0","1751297","4","<div class=""pb-14 text-7xl"">+</div>","null","fixation","","","","","",""
"","576","html-keynbutton-response","382","2.0.0","1751873","4","<div class=""flex flex-row stim-length pb-8 md:pd-20 justify-evenly items-center""><div class=""square""></div><div class=""square""></div><div class=""square""></div></div>","q","","matchness_test_3","match","方","q","true","match"
"","null","html-keynbutton-response","383","2.0.0","1752374","4","<div class=""pb-14 text-7xl"">+</div>","null","fixation","","","","","",""
"","395","html-keynbutton-response","384","2.0.0","1752769","4","<div class=""flex flex-row stim-length pb-8 md:pd-20 justify-evenly items-center""><div class=""square""></div><div class=""circle""></div><div class=""square""></div></div>","p","","matchness_test_3","mismatch","圆","p","true","mismatch"
"","null","html-keynbutton-response","385","2.0.0","1753274","4","<div class=""pb-14 text-7xl"">+</div>","null","fixation","","","","","",""
"","438","html-keynbutton-response","386","2.0.0","1753713","4","<div class=""flex flex-row stim-length pb-8 md:pd-20 justify-evenly items-center""><div class=""circle""></div><div class=""square""></div><div class=""circle""></div></div>","p","","matchness_test_3","mismatch","方","p","true","mismatch"
"","null","html-keynbutton-response","387","2.0.0","1754216","4","<div class=""pb-14 text-7xl"">+</div>","null","fixation","","","","","",""
"","425","html-keynbutton-response","388","2.0.0","1754641","4","<div class=""flex flex-row stim-length pb-8 md:pd-20 justify-evenly items-center""><div class=""square""></div><div class=""circle""></div><div class=""square""></div></div>","p","","matchness_test_3","mismatch","圆","p","true","mismatch"
"","null","html-keynbutton-response","389","2.0.0","1755142","4","<div class=""pb-14 text-7xl"">+</div>","null","fixation","","","","","",""
"","347","html-keynbutton-response","390","2.0.0","1755489","4","<div class=""flex flex-row stim-length pb-8 md:pd-20 justify-evenly items-center""><div class=""square""></div><div class=""square""></div><div class=""square""></div></div>","q","","matchness_test_3","match","方","q","true","match"
"","null","html-keynbutton-response","391","2.0.0","1756004","4","<div class=""pb-14 text-7xl"">+</div>","null","fixation","","","","","",""
"","525","html-keynbutton-response","392","2.0.0","1756529","4","<div class=""flex flex-row stim-length pb-8 md:pd-20 justify-evenly items-center""><div class=""circle""></div><div class=""circle""></div><div class=""circle""></div></div>","q","","matchness_test_3","match","圆","q","true","match"
"","53055","html-keynbutton-response","393","2.0.0","1809585","4","<div class=""jp""><p>您已完成4/10部分</p><p>请休息一会儿</p>
    <p>您的正确率是：100%</p>
    <p>您的平均反应时间是：440毫秒</p></div>"," ","block_feedback","","","","","",""
"","null","html-keynbutton-response","394","2.0.0","1812787","4","<count-down title=""""></count-down>","null","countDown_trial","","","","","",""
"","null","html-keynbutton-response","395","2.0.0","1813292","4","<div class=""pb-14 text-7xl"">+</div>","null","fixation","","","","","",""
"","421","html-keynbutton-response","396","2.0.0","1813714","4","<div class=""flex flex-row stim-length pb-8 md:pd-20 justify-evenly items-center""><div class=""circle""></div><div class=""circle""></div><div class=""circle""></div></div>","q","","matchness_test_4","match","圆","q","true","match"
"","null","html-keynbutton-response","397","2.0.0","1814227","4","<div class=""pb-14 text-7xl"">+</div>","null","fixation","","","","","",""
"","367","html-keynbutton-response","398","2.0.0","1814594","4","<div class=""flex flex-row stim-length pb-8 md:pd-20 justify-evenly items-center""><div class=""square""></div><div class=""circle""></div><div class=""square""></div></div>","p","","matchness_test_4","mismatch","圆","p","true","mismatch"
"","null","html-keynbutton-response","399","2.0.0","1815100","4","<div class=""pb-14 text-7xl"">+</div>","null","fixation","","","","","",""
"","390","html-keynbutton-response","400","2.0.0","1815490","4","<div class=""flex flex-row stim-length pb-8 md:pd-20 justify-evenly items-center""><div class=""circle""></div><div class=""square""></div><div class=""circle""></div></div>","p","","matchness_test_4","mismatch","方","p","true","mismatch"
"","null","html-keynbutton-response","401","2.0.0","1816001","4","<div class=""pb-14 text-7xl"">+</div>","null","fixation","","","","","",""
"","353","html-keynbutton-response","402","2.0.0","1816353","4","<div class=""flex flex-row stim-length pb-8 md:pd-20 justify-evenly items-center""><div class=""square""></div><div class=""square""></div><div class=""square""></div></div>","q","","matchness_test_4","match","方","q","true","match"
"","null","html-keynbutton-response","403","2.0.0","1816857","4","<div class=""pb-14 text-7xl"">+</div>","null","fixation","","","","","",""
"","296","html-keynbutton-response","404","2.0.0","1817153","4","<div class=""flex flex-row stim-length pb-8 md:pd-20 justify-evenly items-center""><div class=""square""></div><div class=""square""></div><div class=""square""></div></div>","q","","matchness_test_4","match","方","q","true","match"
"","null","html-keynbutton-response","405","2.0.0","1817654","4","<div class=""pb-14 text-7xl"">+</div>","null","fixation","","","","","",""
"","379","html-keynbutton-response","406","2.0.0","1818033","4","<div class=""flex flex-row stim-length pb-8 md:pd-20 justify-evenly items-center""><div class=""circle""></div><div class=""square""></div><div class=""circle""></div></div>","p","","matchness_test_4","mismatch","方","p","true","mismatch"
"","null","html-keynbutton-response","407","2.0.0","1818535","4","<div class=""pb-14 text-7xl"">+</div>","null","fixation","","","","","",""
"","491","html-keynbutton-response","408","2.0.0","1819026","4","<div class=""flex flex-row stim-length pb-8 md:pd-20 justify-evenly items-center""><div class=""circle""></div><div class=""circle""></div><div class=""circle""></div></div>","q","","matchness_test_4","match","圆","q","true","match"
"","null","html-keynbutton-response","409","2.0.0","1819540","4","<div class=""pb-14 text-7xl"">+</div>","null","fixation","","","","","",""
"","413","html-keynbutton-response","410","2.0.0","1819954","4","<div class=""flex flex-row stim-length pb-8 md:pd-20 justify-evenly items-center""><div class=""square""></div><div class=""circle""></div><div class=""square""></div></div>","p","","matchness_test_4","mismatch","圆","p","true","mismatch"
"","null","html-keynbutton-response","411","2.0.0","1820461","4","<div class=""pb-14 text-7xl"">+</div>","null","fixation","","","","","",""
"","436","html-keynbutton-response","412","2.0.0","1820898","4","<div class=""flex flex-row stim-length pb-8 md:pd-20 justify-evenly items-center""><div class=""circle""></div><div class=""circle""></div><div class=""circle""></div></div>","q","","matchness_test_4","match","圆","q","true","match"
"","null","html-keynbutton-response","413","2.0.0","1821398","4","<div class=""pb-14 text-7xl"">+</div>","null","fixation","","","","","",""
"","395","html-keynbutton-response","414","2.0.0","1821794","4","<div class=""flex flex-row stim-length pb-8 md:pd-20 justify-evenly items-center""><div class=""square""></div><div class=""square""></div><div class=""square""></div></div>","q","","matchness_test_4","match","方","q","true","match"
"","null","html-keynbutton-response","415","2.0.0","1822296","4","<div class=""pb-14 text-7xl"">+</div>","null","fixation","","","","","",""
"","393","html-keynbutton-response","416","2.0.0","1822690","4","<div class=""flex flex-row stim-length pb-8 md:pd-20 justify-evenly items-center""><div class=""circle""></div><div class=""square""></div><div class=""circle""></div></div>","p","","matchness_test_4","mismatch","方","p","true","mismatch"
"","null","html-keynbutton-response","417","2.0.0","1823204","4","<div class=""pb-14 text-7xl"">+</div>","null","fixation","","","","","",""
"","397","html-keynbutton-response","418","2.0.0","1823602","4","<div class=""flex flex-row stim-length pb-8 md:pd-20 justify-evenly items-center""><div class=""square""></div><div class=""circle""></div><div class=""square""></div></div>","p","","matchness_test_4","mismatch","圆","p","true","mismatch"
"","null","html-keynbutton-response","419","2.0.0","1824111","4","<div class=""pb-14 text-7xl"">+</div>","null","fixation","","","","","",""
"","482","html-keynbutton-response","420","2.0.0","1824594","4","<div class=""flex flex-row stim-length pb-8 md:pd-20 justify-evenly items-center""><div class=""square""></div><div class=""square""></div><div class=""square""></div></div>","q","","matchness_test_4","match","方","q","true","match"
"","null","html-keynbutton-response","421","2.0.0","1825094","4","<div class=""pb-14 text-7xl"">+</div>","null","fixation","","","","","",""
"","491","html-keynbutton-response","422","2.0.0","1825586","4","<div class=""flex flex-row stim-length pb-8 md:pd-20 justify-evenly items-center""><div class=""square""></div><div class=""circle""></div><div class=""square""></div></div>","p","","matchness_test_4","mismatch","圆","p","true","mismatch"
"","null","html-keynbutton-response","423","2.0.0","1826098","4","<div class=""pb-14 text-7xl"">+</div>","null","fixation","","","","","",""
"","432","html-keynbutton-response","424","2.0.0","1826530","4","<div class=""flex flex-row stim-length pb-8 md:pd-20 justify-evenly items-center""><div class=""circle""></div><div class=""circle""></div><div class=""circle""></div></div>","q","","matchness_test_4","match","圆","q","true","match"
"","null","html-keynbutton-response","425","2.0.0","1827036","4","<div class=""pb-14 text-7xl"">+</div>","null","fixation","","","","","",""
"","454","html-keynbutton-response","426","2.0.0","1827490","4","<div class=""flex flex-row stim-length pb-8 md:pd-20 justify-evenly items-center""><div class=""circle""></div><div class=""square""></div><div class=""circle""></div></div>","p","","matchness_test_4","mismatch","方","p","true","mismatch"
"","null","html-keynbutton-response","427","2.0.0","1827990","4","<div class=""pb-14 text-7xl"">+</div>","null","fixation","","","","","",""
"","395","html-keynbutton-response","428","2.0.0","1828386","4","<div class=""flex flex-row stim-length pb-8 md:pd-20 justify-evenly items-center""><div class=""circle""></div><div class=""circle""></div><div class=""circle""></div></div>","q","","matchness_test_4","match","圆","q","true","match"
"","null","html-keynbutton-response","429","2.0.0","1828897","4","<div class=""pb-14 text-7xl"">+</div>","null","fixation","","","","","",""
"","385","html-keynbutton-response","430","2.0.0","1829282","4","<div class=""flex flex-row stim-length pb-8 md:pd-20 justify-evenly items-center""><div class=""square""></div><div class=""square""></div><div class=""square""></div></div>","q","","matchness_test_4","match","方","q","true","match"
"","null","html-keynbutton-response","431","2.0.0","1829798","4","<div class=""pb-14 text-7xl"">+</div>","null","fixation","","","","","",""
"","380","html-keynbutton-response","432","2.0.0","1830177","4","<div class=""flex flex-row stim-length pb-8 md:pd-20 justify-evenly items-center""><div class=""square""></div><div class=""circle""></div><div class=""square""></div></div>","p","","matchness_test_4","mismatch","圆","p","true","mismatch"
"","null","html-keynbutton-response","433","2.0.0","1830689","4","<div class=""pb-14 text-7xl"">+</div>","null","fixation","","","","","",""
"","448","html-keynbutton-response","434","2.0.0","1831138","4","<div class=""flex flex-row stim-length pb-8 md:pd-20 justify-evenly items-center""><div class=""circle""></div><div class=""square""></div><div class=""circle""></div></div>","p","","matchness_test_4","mismatch","方","p","true","mismatch"
"","null","html-keynbutton-response","435","2.0.0","1831652","4","<div class=""pb-14 text-7xl"">+</div>","null","fixation","","","","","",""
"","461","html-keynbutton-response","436","2.0.0","1832114","4","<div class=""flex flex-row stim-length pb-8 md:pd-20 justify-evenly items-center""><div class=""square""></div><div class=""circle""></div><div class=""square""></div></div>","p","","matchness_test_4","mismatch","圆","p","true","mismatch"
"","null","html-keynbutton-response","437","2.0.0","1832627","4","<div class=""pb-14 text-7xl"">+</div>","null","fixation","","","","","",""
"","366","html-keynbutton-response","438","2.0.0","1832993","4","<div class=""flex flex-row stim-length pb-8 md:pd-20 justify-evenly items-center""><div class=""square""></div><div class=""square""></div><div class=""square""></div></div>","q","","matchness_test_4","match","方","q","true","match"
"","null","html-keynbutton-response","439","2.0.0","1833503","4","<div class=""pb-14 text-7xl"">+</div>","null","fixation","","","","","",""
"","403","html-keynbutton-response","440","2.0.0","1833906","4","<div class=""flex flex-row stim-length pb-8 md:pd-20 justify-evenly items-center""><div class=""circle""></div><div class=""circle""></div><div class=""circle""></div></div>","q","","matchness_test_4","match","圆","q","true","match"
"","null","html-keynbutton-response","441","2.0.0","1834412","4","<div class=""pb-14 text-7xl"">+</div>","null","fixation","","","","","",""
"","405","html-keynbutton-response","442","2.0.0","1834817","4","<div class=""flex flex-row stim-length pb-8 md:pd-20 justify-evenly items-center""><div class=""circle""></div><div class=""square""></div><div class=""circle""></div></div>","p","","matchness_test_4","mismatch","方","p","true","mismatch"
"","null","html-keynbutton-response","443","2.0.0","1835322","4","<div class=""pb-14 text-7xl"">+</div>","null","fixation","","","","","",""
"","471","html-keynbutton-response","444","2.0.0","1835794","4","<div class=""flex flex-row stim-length pb-8 md:pd-20 justify-evenly items-center""><div class=""circle""></div><div class=""square""></div><div class=""circle""></div></div>","p","","matchness_test_4","mismatch","方","p","true","mismatch"
"","null","html-keynbutton-response","445","2.0.0","1836296","4","<div class=""pb-14 text-7xl"">+</div>","null","fixation","","","","","",""
"","313","html-keynbutton-response","446","2.0.0","1836610","4","<div class=""flex flex-row stim-length pb-8 md:pd-20 justify-evenly items-center""><div class=""circle""></div><div class=""circle""></div><div class=""circle""></div></div>","q","","matchness_test_4","match","圆","q","true","match"
"","null","html-keynbutton-response","447","2.0.0","1837124","4","<div class=""pb-14 text-7xl"">+</div>","null","fixation","","","","","",""
"","317","html-keynbutton-response","448","2.0.0","1837442","4","<div class=""flex flex-row stim-length pb-8 md:pd-20 justify-evenly items-center""><div class=""square""></div><div class=""square""></div><div class=""square""></div></div>","q","","matchness_test_4","match","方","q","true","match"
"","null","html-keynbutton-response","449","2.0.0","1837949","4","<div class=""pb-14 text-7xl"">+</div>","null","fixation","","","","","",""
"","389","html-keynbutton-response","450","2.0.0","1838338","4","<div class=""flex flex-row stim-length pb-8 md:pd-20 justify-evenly items-center""><div class=""square""></div><div class=""circle""></div><div class=""square""></div></div>","p","","matchness_test_4","mismatch","圆","p","true","mismatch"
"","null","html-keynbutton-response","451","2.0.0","1838845","4","<div class=""pb-14 text-7xl"">+</div>","null","fixation","","","","","",""
"","357","html-keynbutton-response","452","2.0.0","1839202","4","<div class=""flex flex-row stim-length pb-8 md:pd-20 justify-evenly items-center""><div class=""circle""></div><div class=""circle""></div><div class=""circle""></div></div>","q","","matchness_test_4","match","圆","q","true","match"
"","null","html-keynbutton-response","453","2.0.0","1839705","4","<div class=""pb-14 text-7xl"">+</div>","null","fixation","","","","","",""
"","344","html-keynbutton-response","454","2.0.0","1840050","4","<div class=""flex flex-row stim-length pb-8 md:pd-20 justify-evenly items-center""><div class=""square""></div><div class=""square""></div><div class=""square""></div></div>","q","","matchness_test_4","match","方","q","true","match"
"","null","html-keynbutton-response","455","2.0.0","1840565","4","<div class=""pb-14 text-7xl"">+</div>","null","fixation","","","","","",""
"","380","html-keynbutton-response","456","2.0.0","1840946","4","<div class=""flex flex-row stim-length pb-8 md:pd-20 justify-evenly items-center""><div class=""square""></div><div class=""circle""></div><div class=""square""></div></div>","p","","matchness_test_4","mismatch","圆","p","true","mismatch"
"","null","html-keynbutton-response","457","2.0.0","1841448","4","<div class=""pb-14 text-7xl"">+</div>","null","fixation","","","","","",""
"","425","html-keynbutton-response","458","2.0.0","1841874","4","<div class=""flex flex-row stim-length pb-8 md:pd-20 justify-evenly items-center""><div class=""circle""></div><div class=""square""></div><div class=""circle""></div></div>","p","","matchness_test_4","mismatch","方","p","true","mismatch"
