"success","rt","trial_type","trial_index","plugin_version","time_elapsed","subj_id","stimulus","response","trail_tag","task","ismatch","target","correct_key","correct","response_key"
"true","2568893","fullscreen","0","2.0.0","2569905","1","","","","","","","","",""
"","16596","html-keynbutton-response","1","2.0.0","2586505","1","
        <div class=""jp px-2 xxs:px-5 mx-auto"">
        <p class=""text-center text-red-600 text-[1.2em] pb-5"">欢迎您参加知觉
          <strong>判断实验。</strong>
        </p>
        <p>接下来的任务中您将看到一排图形。</p>
        <p>(圆形●或方形■)</p><p>您的任务是<strong>忽略两侧的图形，专注于中间的图形</strong>。</p>
        <p>如果中间的图形是圆，请按“q”；</p>
        <p>如果是方，请按“p”。</p><p>请尽量又快又准地做出反应。</p>
      <p>请按空格键开始练习。</p>
      </div>"," ","","","","","","",""
"","null","html-keynbutton-response","2","2.0.0","2589713","1","<count-down title=""""></count-down>","null","countDown_trial","","","","","",""
"","null","html-keynbutton-response","3","2.0.0","2590218","1","<div class=""pb-14 text-7xl"">+</div>","null","fixation","","","","","",""
"","940","html-keynbutton-response","4","2.0.0","2591160","1","<div class=""flex flex-row stim-length pb-8 md:pd-20 justify-evenly items-center""><div class=""circle""></div><div class=""square""></div><div class=""circle""></div></div>","p","","shape_practice","mismatch","方","p","true","方"
"","null","html-keynbutton-response","5","2.0.0","2591667","1","<span class='text-green-400 text-4xl md:text-5xl lg:text-6xl'>正确!</span>","null","trial_feedback","","","","","",""
"","null","html-keynbutton-response","6","2.0.0","2592182","1","<div class=""pb-14 text-7xl"">+</div>","null","fixation","","","","","",""
"","496","html-keynbutton-response","7","2.0.0","2592680","1","<div class=""flex flex-row stim-length pb-8 md:pd-20 justify-evenly items-center""><div class=""square""></div><div class=""circle""></div><div class=""square""></div></div>","q","","shape_practice","mismatch","圆","q","true","圆"
"","null","html-keynbutton-response","8","2.0.0","2593184","1","<span class='text-green-400 text-4xl md:text-5xl lg:text-6xl'>正确!</span>","null","trial_feedback","","","","","",""
"","null","html-keynbutton-response","9","2.0.0","2593699","1","<div class=""pb-14 text-7xl"">+</div>","null","fixation","","","","","",""
"","452","html-keynbutton-response","10","2.0.0","2594152","1","<div class=""flex flex-row stim-length pb-8 md:pd-20 justify-evenly items-center""><div class=""circle""></div><div class=""circle""></div><div class=""circle""></div></div>","q","","shape_practice","match","圆","q","true","圆"
"","null","html-keynbutton-response","11","2.0.0","2594666","1","<span class='text-green-400 text-4xl md:text-5xl lg:text-6xl'>正确!</span>","null","trial_feedback","","","","","",""
"","null","html-keynbutton-response","12","2.0.0","2595182","1","<div class=""pb-14 text-7xl"">+</div>","null","fixation","","","","","",""
"","329","html-keynbutton-response","13","2.0.0","2595512","1","<div class=""flex flex-row stim-length pb-8 md:pd-20 justify-evenly items-center""><div class=""square""></div><div class=""square""></div><div class=""square""></div></div>","p","","shape_practice","match","方","p","true","方"
"","null","html-keynbutton-response","14","2.0.0","2596017","1","<span class='text-green-400 text-4xl md:text-5xl lg:text-6xl'>正确!</span>","null","trial_feedback","","","","","",""
"","null","html-keynbutton-response","15","2.0.0","2596533","1","<div class=""pb-14 text-7xl"">+</div>","null","fixation","","","","","",""
"","450","html-keynbutton-response","16","2.0.0","2596984","1","<div class=""flex flex-row stim-length pb-8 md:pd-20 justify-evenly items-center""><div class=""square""></div><div class=""square""></div><div class=""square""></div></div>","p","","shape_practice","match","方","p","true","方"
"","null","html-keynbutton-response","17","2.0.0","2597487","1","<span class='text-green-400 text-4xl md:text-5xl lg:text-6xl'>正确!</span>","null","trial_feedback","","","","","",""
"","null","html-keynbutton-response","18","2.0.0","2598002","1","<div class=""pb-14 text-7xl"">+</div>","null","fixation","","","","","",""
"","453","html-keynbutton-response","19","2.0.0","2598456","1","<div class=""flex flex-row stim-length pb-8 md:pd-20 justify-evenly items-center""><div class=""circle""></div><div class=""square""></div><div class=""circle""></div></div>","p","","shape_practice","mismatch","方","p","true","方"
"","null","html-keynbutton-response","20","2.0.0","2598965","1","<span class='text-green-400 text-4xl md:text-5xl lg:text-6xl'>正确!</span>","null","trial_feedback","","","","","",""
"","null","html-keynbutton-response","21","2.0.0","2599467","1","<div class=""pb-14 text-7xl"">+</div>","null","fixation","","","","","",""
"","492","html-keynbutton-response","22","2.0.0","2599960","1","<div class=""flex flex-row stim-length pb-8 md:pd-20 justify-evenly items-center""><div class=""circle""></div><div class=""circle""></div><div class=""circle""></div></div>","q","","shape_practice","match","圆","q","true","圆"
"","null","html-keynbutton-response","23","2.0.0","2600466","1","<span class='text-green-400 text-4xl md:text-5xl lg:text-6xl'>正确!</span>","null","trial_feedback","","","","","",""
"","null","html-keynbutton-response","24","2.0.0","2600982","1","<div class=""pb-14 text-7xl"">+</div>","null","fixation","","","","","",""
"","1201","html-keynbutton-response","25","2.0.0","2602184","1","<div class=""flex flex-row stim-length pb-8 md:pd-20 justify-evenly items-center""><div class=""square""></div><div class=""circle""></div><div class=""square""></div></div>","q","","shape_practice","mismatch","圆","q","true","圆"
"","null","html-keynbutton-response","26","2.0.0","2602698","1","<span class='text-green-400 text-4xl md:text-5xl lg:text-6xl'>正确!</span>","null","trial_feedback","","","","","",""
"","null","html-keynbutton-response","27","2.0.0","2603201","1","<div class=""pb-14 text-7xl"">+</div>","null","fixation","","","","","",""
"","326","html-keynbutton-response","28","2.0.0","2603528","1","<div class=""flex flex-row stim-length pb-8 md:pd-20 justify-evenly items-center""><div class=""square""></div><div class=""square""></div><div class=""square""></div></div>","p","","shape_practice","match","方","p","true","方"
"","null","html-keynbutton-response","29","2.0.0","2604034","1","<span class='text-green-400 text-4xl md:text-5xl lg:text-6xl'>正确!</span>","null","trial_feedback","","","","","",""
"","null","html-keynbutton-response","30","2.0.0","2604549","1","<div class=""pb-14 text-7xl"">+</div>","null","fixation","","","","","",""
"","514","html-keynbutton-response","31","2.0.0","2605064","1","<div class=""flex flex-row stim-length pb-8 md:pd-20 justify-evenly items-center""><div class=""square""></div><div class=""circle""></div><div class=""square""></div></div>","q","","shape_practice","mismatch","圆","q","true","圆"
"","null","html-keynbutton-response","32","2.0.0","2605568","1","<span class='text-green-400 text-4xl md:text-5xl lg:text-6xl'>正确!</span>","null","trial_feedback","","","","","",""
"","null","html-keynbutton-response","33","2.0.0","2606083","1","<div class=""pb-14 text-7xl"">+</div>","null","fixation","","","","","",""
"","388","html-keynbutton-response","34","2.0.0","2606472","1","<div class=""flex flex-row stim-length pb-8 md:pd-20 justify-evenly items-center""><div class=""circle""></div><div class=""square""></div><div class=""circle""></div></div>","p","","shape_practice","mismatch","方","p","true","方"
"","null","html-keynbutton-response","35","2.0.0","2606982","1","<span class='text-green-400 text-4xl md:text-5xl lg:text-6xl'>正确!</span>","null","trial_feedback","","","","","",""
"","null","html-keynbutton-response","36","2.0.0","2607487","1","<div class=""pb-14 text-7xl"">+</div>","null","fixation","","","","","",""
"","664","html-keynbutton-response","37","2.0.0","2608152","1","<div class=""flex flex-row stim-length pb-8 md:pd-20 justify-evenly items-center""><div class=""circle""></div><div class=""circle""></div><div class=""circle""></div></div>","q","","shape_practice","match","圆","q","true","圆"
"","null","html-keynbutton-response","38","2.0.0","2608666","1","<span class='text-green-400 text-4xl md:text-5xl lg:text-6xl'>正确!</span>","null","trial_feedback","","","","","",""
"","null","html-keynbutton-response","39","2.0.0","2609171","1","<div class=""pb-14 text-7xl"">+</div>","null","fixation","","","","","",""
"","388","html-keynbutton-response","40","2.0.0","2609560","1","<div class=""flex flex-row stim-length pb-8 md:pd-20 justify-evenly items-center""><div class=""circle""></div><div class=""square""></div><div class=""circle""></div></div>","p","","shape_practice","mismatch","方","p","true","方"
"","null","html-keynbutton-response","41","2.0.0","2610066","1","<span class='text-green-400 text-4xl md:text-5xl lg:text-6xl'>正确!</span>","null","trial_feedback","","","","","",""
"","null","html-keynbutton-response","42","2.0.0","2610582","1","<div class=""pb-14 text-7xl"">+</div>","null","fixation","","","","","",""
"","496","html-keynbutton-response","43","2.0.0","2611079","1","<div class=""flex flex-row stim-length pb-8 md:pd-20 justify-evenly items-center""><div class=""circle""></div><div class=""circle""></div><div class=""circle""></div></div>","q","","shape_practice","match","圆","q","true","圆"
"","null","html-keynbutton-response","44","2.0.0","2611587","1","<span class='text-green-400 text-4xl md:text-5xl lg:text-6xl'>正确!</span>","null","trial_feedback","","","","","",""
"","null","html-keynbutton-response","45","2.0.0","2612099","1","<div class=""pb-14 text-7xl"">+</div>","null","fixation","","","","","",""
"","308","html-keynbutton-response","46","2.0.0","2612408","1","<div class=""flex flex-row stim-length pb-8 md:pd-20 justify-evenly items-center""><div class=""square""></div><div class=""square""></div><div class=""square""></div></div>","p","","shape_practice","match","方","p","true","方"
"","null","html-keynbutton-response","47","2.0.0","2612915","1","<span class='text-green-400 text-4xl md:text-5xl lg:text-6xl'>正确!</span>","null","trial_feedback","","","","","",""
"","null","html-keynbutton-response","48","2.0.0","2613417","1","<div class=""pb-14 text-7xl"">+</div>","null","fixation","","","","","",""
"","430","html-keynbutton-response","49","2.0.0","2613848","1","<div class=""flex flex-row stim-length pb-8 md:pd-20 justify-evenly items-center""><div class=""square""></div><div class=""circle""></div><div class=""square""></div></div>","q","","shape_practice","mismatch","圆","q","true","圆"
"","null","html-keynbutton-response","50","2.0.0","2614350","1","<span class='text-green-400 text-4xl md:text-5xl lg:text-6xl'>正确!</span>","null","trial_feedback","","","","","",""
"","null","html-keynbutton-response","51","2.0.0","2614866","1","<div class=""pb-14 text-7xl"">+</div>","null","fixation","","","","","",""
"","421","html-keynbutton-response","52","2.0.0","2615288","1","<div class=""flex flex-row stim-length pb-8 md:pd-20 justify-evenly items-center""><div class=""square""></div><div class=""circle""></div><div class=""square""></div></div>","q","","shape_practice","mismatch","圆","q","true","圆"
"","null","html-keynbutton-response","53","2.0.0","2615797","1","<span class='text-green-400 text-4xl md:text-5xl lg:text-6xl'>正确!</span>","null","trial_feedback","","","","","",""
"","null","html-keynbutton-response","54","2.0.0","2616300","1","<div class=""pb-14 text-7xl"">+</div>","null","fixation","","","","","",""
"","299","html-keynbutton-response","55","2.0.0","2616600","1","<div class=""flex flex-row stim-length pb-8 md:pd-20 justify-evenly items-center""><div class=""circle""></div><div class=""circle""></div><div class=""circle""></div></div>","q","","shape_practice","match","圆","q","true","圆"
"","null","html-keynbutton-response","56","2.0.0","2617115","1","<span class='text-green-400 text-4xl md:text-5xl lg:text-6xl'>正确!</span>","null","trial_feedback","","","","","",""
"","null","html-keynbutton-response","57","2.0.0","2617632","1","<div class=""pb-14 text-7xl"">+</div>","null","fixation","","","","","",""
"","391","html-keynbutton-response","58","2.0.0","2618024","1","<div class=""flex flex-row stim-length pb-8 md:pd-20 justify-evenly items-center""><div class=""square""></div><div class=""square""></div><div class=""square""></div></div>","p","","shape_practice","match","方","p","true","方"
"","null","html-keynbutton-response","59","2.0.0","2618533","1","<span class='text-green-400 text-4xl md:text-5xl lg:text-6xl'>正确!</span>","null","trial_feedback","","","","","",""
"","null","html-keynbutton-response","60","2.0.0","2619034","1","<div class=""pb-14 text-7xl"">+</div>","null","fixation","","","","","",""
"","333","html-keynbutton-response","61","2.0.0","2619368","1","<div class=""flex flex-row stim-length pb-8 md:pd-20 justify-evenly items-center""><div class=""circle""></div><div class=""square""></div><div class=""circle""></div></div>","p","","shape_practice","mismatch","方","p","true","方"
"","null","html-keynbutton-response","62","2.0.0","2619883","1","<span class='text-green-400 text-4xl md:text-5xl lg:text-6xl'>正确!</span>","null","trial_feedback","","","","","",""
"","3817","html-keynbutton-response","64","2.0.0","2623702","1","<div class=""jp"">
    <p>您的正确率是：100%</p>
    <p>您的平均反应时间是：489毫秒</p></div>"," ","block_feedback","","","","","",""
"","5022","html-keynbutton-response","65","2.0.0","2628727","1","
        <div class=""jp px-2 xxs:px-5 mx-auto"">
        <p class=""text-center text-red-600 text-[1.2em] pb-5"">练习结束，现在开始正式实验</p>
        <p>请注意：正式实验中将不再会呈现反馈。</p>
        </div>
        "," ","","","","","","",""
"","null","html-keynbutton-response","66","2.0.0","2631928","1","<count-down title=""""></count-down>","null","countDown_trial","","","","","",""
"","null","html-keynbutton-response","67","2.0.0","2632432","1","<div class=""pb-14 text-7xl"">+</div>","null","fixation","","","","","",""
"","438","html-keynbutton-response","68","2.0.0","2632871","1","<div class=""flex flex-row stim-length pb-8 md:pd-20 justify-evenly items-center""><div class=""square""></div><div class=""square""></div><div class=""square""></div></div>","p","","shape_test","match","方","p","true","方"
"","null","html-keynbutton-response","69","2.0.0","2633382","1","<div class=""pb-14 text-7xl"">+</div>","null","fixation","","","","","",""
"","480","html-keynbutton-response","70","2.0.0","2633863","1","<div class=""flex flex-row stim-length pb-8 md:pd-20 justify-evenly items-center""><div class=""square""></div><div class=""circle""></div><div class=""square""></div></div>","q","","shape_test","mismatch","圆","q","true","圆"
"","null","html-keynbutton-response","71","2.0.0","2634365","1","<div class=""pb-14 text-7xl"">+</div>","null","fixation","","","","","",""
"","329","html-keynbutton-response","72","2.0.0","2634695","1","<div class=""flex flex-row stim-length pb-8 md:pd-20 justify-evenly items-center""><div class=""circle""></div><div class=""circle""></div><div class=""circle""></div></div>","q","","shape_test","match","圆","q","true","圆"
"","null","html-keynbutton-response","73","2.0.0","2635199","1","<div class=""pb-14 text-7xl"">+</div>","null","fixation","","","","","",""
"","391","html-keynbutton-response","74","2.0.0","2635591","1","<div class=""flex flex-row stim-length pb-8 md:pd-20 justify-evenly items-center""><div class=""circle""></div><div class=""square""></div><div class=""circle""></div></div>","p","","shape_test","mismatch","方","p","true","方"
"","null","html-keynbutton-response","75","2.0.0","2636099","1","<div class=""pb-14 text-7xl"">+</div>","null","fixation","","","","","",""
"","419","html-keynbutton-response","76","2.0.0","2636518","1","<div class=""flex flex-row stim-length pb-8 md:pd-20 justify-evenly items-center""><div class=""square""></div><div class=""square""></div><div class=""square""></div></div>","p","","shape_test","match","方","p","true","方"
"","null","html-keynbutton-response","77","2.0.0","2637030","1","<div class=""pb-14 text-7xl"">+</div>","null","fixation","","","","","",""
"","336","html-keynbutton-response","78","2.0.0","2637367","1","<div class=""flex flex-row stim-length pb-8 md:pd-20 justify-evenly items-center""><div class=""circle""></div><div class=""square""></div><div class=""circle""></div></div>","p","","shape_test","mismatch","方","p","true","方"
"","null","html-keynbutton-response","79","2.0.0","2637880","1","<div class=""pb-14 text-7xl"">+</div>","null","fixation","","","","","",""
"","429","html-keynbutton-response","80","2.0.0","2638311","1","<div class=""flex flex-row stim-length pb-8 md:pd-20 justify-evenly items-center""><div class=""circle""></div><div class=""circle""></div><div class=""circle""></div></div>","q","","shape_test","match","圆","q","true","圆"
"","null","html-keynbutton-response","81","2.0.0","2638816","1","<div class=""pb-14 text-7xl"">+</div>","null","fixation","","","","","",""
"","390","html-keynbutton-response","82","2.0.0","2639207","1","<div class=""flex flex-row stim-length pb-8 md:pd-20 justify-evenly items-center""><div class=""square""></div><div class=""circle""></div><div class=""square""></div></div>","q","","shape_test","mismatch","圆","q","true","圆"
"","null","html-keynbutton-response","83","2.0.0","2639715","1","<div class=""pb-14 text-7xl"">+</div>","null","fixation","","","","","",""
"","387","html-keynbutton-response","84","2.0.0","2640103","1","<div class=""flex flex-row stim-length pb-8 md:pd-20 justify-evenly items-center""><div class=""square""></div><div class=""square""></div><div class=""square""></div></div>","p","","shape_test","match","方","p","true","方"
"","null","html-keynbutton-response","85","2.0.0","2640614","1","<div class=""pb-14 text-7xl"">+</div>","null","fixation","","","","","",""
"","399","html-keynbutton-response","86","2.0.0","2641014","1","<div class=""flex flex-row stim-length pb-8 md:pd-20 justify-evenly items-center""><div class=""square""></div><div class=""circle""></div><div class=""square""></div></div>","q","","shape_test","mismatch","圆","q","true","圆"
"","null","html-keynbutton-response","87","2.0.0","2641516","1","<div class=""pb-14 text-7xl"">+</div>","null","fixation","","","","","",""
"","442","html-keynbutton-response","88","2.0.0","2641959","1","<div class=""flex flex-row stim-length pb-8 md:pd-20 justify-evenly items-center""><div class=""circle""></div><div class=""circle""></div><div class=""circle""></div></div>","q","","shape_test","match","圆","q","true","圆"
"","null","html-keynbutton-response","89","2.0.0","2642465","1","<div class=""pb-14 text-7xl"">+</div>","null","fixation","","","","","",""
"","373","html-keynbutton-response","90","2.0.0","2642839","1","<div class=""flex flex-row stim-length pb-8 md:pd-20 justify-evenly items-center""><div class=""circle""></div><div class=""square""></div><div class=""circle""></div></div>","q","","shape_test","mismatch","方","p","false","圆"
"","null","html-keynbutton-response","91","2.0.0","2643347","1","<div class=""pb-14 text-7xl"">+</div>","null","fixation","","","","","",""
"","530","html-keynbutton-response","92","2.0.0","2643879","1","<div class=""flex flex-row stim-length pb-8 md:pd-20 justify-evenly items-center""><div class=""square""></div><div class=""square""></div><div class=""square""></div></div>","p","","shape_test","match","方","p","true","方"
"","null","html-keynbutton-response","93","2.0.0","2644382","1","<div class=""pb-14 text-7xl"">+</div>","null","fixation","","","","","",""
"","424","html-keynbutton-response","94","2.0.0","2644807","1","<div class=""flex flex-row stim-length pb-8 md:pd-20 justify-evenly items-center""><div class=""circle""></div><div class=""circle""></div><div class=""circle""></div></div>","q","","shape_test","match","圆","q","true","圆"
"","null","html-keynbutton-response","95","2.0.0","2645314","1","<div class=""pb-14 text-7xl"">+</div>","null","fixation","","","","","",""
"","548","html-keynbutton-response","96","2.0.0","2645862","1","<div class=""flex flex-row stim-length pb-8 md:pd-20 justify-evenly items-center""><div class=""square""></div><div class=""circle""></div><div class=""square""></div></div>","q","","shape_test","mismatch","圆","q","true","圆"
"","null","html-keynbutton-response","97","2.0.0","2646366","1","<div class=""pb-14 text-7xl"">+</div>","null","fixation","","","","","",""
"","440","html-keynbutton-response","98","2.0.0","2646807","1","<div class=""flex flex-row stim-length pb-8 md:pd-20 justify-evenly items-center""><div class=""circle""></div><div class=""square""></div><div class=""circle""></div></div>","p","","shape_test","mismatch","方","p","true","方"
"","null","html-keynbutton-response","99","2.0.0","2647314","1","<div class=""pb-14 text-7xl"">+</div>","null","fixation","","","","","",""
"","452","html-keynbutton-response","100","2.0.0","2647767","1","<div class=""flex flex-row stim-length pb-8 md:pd-20 justify-evenly items-center""><div class=""circle""></div><div class=""circle""></div><div class=""circle""></div></div>","q","","shape_test","match","圆","q","true","圆"
"","null","html-keynbutton-response","101","2.0.0","2648281","1","<div class=""pb-14 text-7xl"">+</div>","null","fixation","","","","","",""
"","445","html-keynbutton-response","102","2.0.0","2648727","1","<div class=""flex flex-row stim-length pb-8 md:pd-20 justify-evenly items-center""><div class=""square""></div><div class=""circle""></div><div class=""square""></div></div>","q","","shape_test","mismatch","圆","q","true","圆"
"","null","html-keynbutton-response","103","2.0.0","2649233","1","<div class=""pb-14 text-7xl"">+</div>","null","fixation","","","","","",""
"","421","html-keynbutton-response","104","2.0.0","2649655","1","<div class=""flex flex-row stim-length pb-8 md:pd-20 justify-evenly items-center""><div class=""square""></div><div class=""square""></div><div class=""square""></div></div>","p","","shape_test","match","方","p","true","方"
"","null","html-keynbutton-response","105","2.0.0","2650163","1","<div class=""pb-14 text-7xl"">+</div>","null","fixation","","","","","",""
"","339","html-keynbutton-response","106","2.0.0","2650503","1","<div class=""flex flex-row stim-length pb-8 md:pd-20 justify-evenly items-center""><div class=""circle""></div><div class=""square""></div><div class=""circle""></div></div>","p","","shape_test","mismatch","方","p","true","方"
"","null","html-keynbutton-response","107","2.0.0","2651014","1","<div class=""pb-14 text-7xl"">+</div>","null","fixation","","","","","",""
"","336","html-keynbutton-response","108","2.0.0","2651351","1","<div class=""flex flex-row stim-length pb-8 md:pd-20 justify-evenly items-center""><div class=""circle""></div><div class=""square""></div><div class=""circle""></div></div>","p","","shape_test","mismatch","方","p","true","方"
"","null","html-keynbutton-response","109","2.0.0","2651864","1","<div class=""pb-14 text-7xl"">+</div>","null","fixation","","","","","",""
"","382","html-keynbutton-response","110","2.0.0","2652247","1","<div class=""flex flex-row stim-length pb-8 md:pd-20 justify-evenly items-center""><div class=""square""></div><div class=""circle""></div><div class=""square""></div></div>","q","","shape_test","mismatch","圆","q","true","圆"
"","null","html-keynbutton-response","111","2.0.0","2652753","1","<div class=""pb-14 text-7xl"">+</div>","null","fixation","","","","","",""
"","421","html-keynbutton-response","112","2.0.0","2653174","1","<div class=""flex flex-row stim-length pb-8 md:pd-20 justify-evenly items-center""><div class=""circle""></div><div class=""circle""></div><div class=""circle""></div></div>","q","","shape_test","match","圆","q","true","圆"
"","null","html-keynbutton-response","113","2.0.0","2653687","1","<div class=""pb-14 text-7xl"">+</div>","null","fixation","","","","","",""
"","399","html-keynbutton-response","114","2.0.0","2654087","1","<div class=""flex flex-row stim-length pb-8 md:pd-20 justify-evenly items-center""><div class=""square""></div><div class=""square""></div><div class=""square""></div></div>","p","","shape_test","match","方","p","true","方"
"","null","html-keynbutton-response","115","2.0.0","2654602","1","<div class=""pb-14 text-7xl"">+</div>","null","fixation","","","","","",""
"","299","html-keynbutton-response","116","2.0.0","2654902","1","<div class=""flex flex-row stim-length pb-8 md:pd-20 justify-evenly items-center""><div class=""circle""></div><div class=""square""></div><div class=""circle""></div></div>","p","","shape_test","mismatch","方","p","true","方"
"","null","html-keynbutton-response","117","2.0.0","2655415","1","<div class=""pb-14 text-7xl"">+</div>","null","fixation","","","","","",""
"","415","html-keynbutton-response","118","2.0.0","2655831","1","<div class=""flex flex-row stim-length pb-8 md:pd-20 justify-evenly items-center""><div class=""circle""></div><div class=""circle""></div><div class=""circle""></div></div>","q","","shape_test","match","圆","q","true","圆"
"","null","html-keynbutton-response","119","2.0.0","2656347","1","<div class=""pb-14 text-7xl"">+</div>","null","fixation","","","","","",""
"","427","html-keynbutton-response","120","2.0.0","2656775","1","<div class=""flex flex-row stim-length pb-8 md:pd-20 justify-evenly items-center""><div class=""square""></div><div class=""square""></div><div class=""square""></div></div>","p","","shape_test","match","方","p","true","方"
"","null","html-keynbutton-response","121","2.0.0","2657282","1","<div class=""pb-14 text-7xl"">+</div>","null","fixation","","","","","",""
"","436","html-keynbutton-response","122","2.0.0","2657719","1","<div class=""flex flex-row stim-length pb-8 md:pd-20 justify-evenly items-center""><div class=""square""></div><div class=""circle""></div><div class=""square""></div></div>","q","","shape_test","mismatch","圆","q","true","圆"
"","null","html-keynbutton-response","123","2.0.0","2658231","1","<div class=""pb-14 text-7xl"">+</div>","null","fixation","","","","","",""
"","415","html-keynbutton-response","124","2.0.0","2658646","1","<div class=""flex flex-row stim-length pb-8 md:pd-20 justify-evenly items-center""><div class=""square""></div><div class=""square""></div><div class=""square""></div></div>","p","","shape_test","match","方","p","true","方"
"","null","html-keynbutton-response","125","2.0.0","2659149","1","<div class=""pb-14 text-7xl"">+</div>","null","fixation","","","","","",""
"","346","html-keynbutton-response","126","2.0.0","2659496","1","<div class=""flex flex-row stim-length pb-8 md:pd-20 justify-evenly items-center""><div class=""circle""></div><div class=""square""></div><div class=""circle""></div></div>","p","","shape_test","mismatch","方","p","true","方"
"","null","html-keynbutton-response","127","2.0.0","2660002","1","<div class=""pb-14 text-7xl"">+</div>","null","fixation","","","","","",""
"","452","html-keynbutton-response","128","2.0.0","2660455","1","<div class=""flex flex-row stim-length pb-8 md:pd-20 justify-evenly items-center""><div class=""square""></div><div class=""circle""></div><div class=""square""></div></div>","q","","shape_test","mismatch","圆","q","true","圆"
"","null","html-keynbutton-response","129","2.0.0","2660964","1","<div class=""pb-14 text-7xl"">+</div>","null","fixation","","","","","",""
"","368","html-keynbutton-response","130","2.0.0","2661333","1","<div class=""flex flex-row stim-length pb-8 md:pd-20 justify-evenly items-center""><div class=""circle""></div><div class=""circle""></div><div class=""circle""></div></div>","q","","shape_test","match","圆","q","true","圆"
"","null","html-keynbutton-response","131","2.0.0","2661848","1","<div class=""pb-14 text-7xl"">+</div>","null","fixation","","","","","",""
"","397","html-keynbutton-response","132","2.0.0","2662246","1","<div class=""flex flex-row stim-length pb-8 md:pd-20 justify-evenly items-center""><div class=""circle""></div><div class=""square""></div><div class=""circle""></div></div>","p","","shape_test","mismatch","方","p","true","方"
"","null","html-keynbutton-response","133","2.0.0","2662750","1","<div class=""pb-14 text-7xl"">+</div>","null","fixation","","","","","",""
"","376","html-keynbutton-response","134","2.0.0","2663127","1","<div class=""flex flex-row stim-length pb-8 md:pd-20 justify-evenly items-center""><div class=""square""></div><div class=""square""></div><div class=""square""></div></div>","p","","shape_test","match","方","p","true","方"
"","null","html-keynbutton-response","135","2.0.0","2663634","1","<div class=""pb-14 text-7xl"">+</div>","null","fixation","","","","","",""
"","436","html-keynbutton-response","136","2.0.0","2664070","1","<div class=""flex flex-row stim-length pb-8 md:pd-20 justify-evenly items-center""><div class=""circle""></div><div class=""circle""></div><div class=""circle""></div></div>","q","","shape_test","match","圆","q","true","圆"
"","null","html-keynbutton-response","137","2.0.0","2664581","1","<div class=""pb-14 text-7xl"">+</div>","null","fixation","","","","","",""
"","321","html-keynbutton-response","138","2.0.0","2664903","1","<div class=""flex flex-row stim-length pb-8 md:pd-20 justify-evenly items-center""><div class=""square""></div><div class=""circle""></div><div class=""square""></div></div>","q","","shape_test","mismatch","圆","q","true","圆"
"","null","html-keynbutton-response","139","2.0.0","2665414","1","<div class=""pb-14 text-7xl"">+</div>","null","fixation","","","","","",""
"","399","html-keynbutton-response","140","2.0.0","2665815","1","<div class=""flex flex-row stim-length pb-8 md:pd-20 justify-evenly items-center""><div class=""circle""></div><div class=""square""></div><div class=""circle""></div></div>","p","","shape_test","mismatch","方","p","true","方"
"","null","html-keynbutton-response","141","2.0.0","2666331","1","<div class=""pb-14 text-7xl"">+</div>","null","fixation","","","","","",""
"","507","html-keynbutton-response","142","2.0.0","2666839","1","<div class=""flex flex-row stim-length pb-8 md:pd-20 justify-evenly items-center""><div class=""circle""></div><div class=""circle""></div><div class=""circle""></div></div>","q","","shape_test","match","圆","q","true","圆"
"","null","html-keynbutton-response","143","2.0.0","2667348","1","<div class=""pb-14 text-7xl"">+</div>","null","fixation","","","","","",""
"","466","html-keynbutton-response","144","2.0.0","2667815","1","<div class=""flex flex-row stim-length pb-8 md:pd-20 justify-evenly items-center""><div class=""square""></div><div class=""circle""></div><div class=""square""></div></div>","q","","shape_test","mismatch","圆","q","true","圆"
"","null","html-keynbutton-response","145","2.0.0","2668331","1","<div class=""pb-14 text-7xl"">+</div>","null","fixation","","","","","",""
"","475","html-keynbutton-response","146","2.0.0","2668807","1","<div class=""flex flex-row stim-length pb-8 md:pd-20 justify-evenly items-center""><div class=""square""></div><div class=""square""></div><div class=""square""></div></div>","p","","shape_test","match","方","p","true","方"
"","21774","html-keynbutton-response","147","2.0.0","2690575","1","<div class=""jp""><p>您已完成1/10部分</p><p>请休息一会儿</p>
    <p>您的正确率是：98%</p>
    <p>您的平均反应时间是：412毫秒</p></div>"," ","block_feedback","","","","","",""
"","null","html-keynbutton-response","148","2.0.0","2693788","1","<count-down title=""""></count-down>","null","countDown_trial","","","","","",""
"","null","html-keynbutton-response","149","2.0.0","2694291","1","<div class=""pb-14 text-7xl"">+</div>","null","fixation","","","","","",""
"","491","html-keynbutton-response","150","2.0.0","2694784","1","<div class=""flex flex-row stim-length pb-8 md:pd-20 justify-evenly items-center""><div class=""square""></div><div class=""square""></div><div class=""square""></div></div>","p","","shape_test_1","match","方","p","true","方"
"","null","html-keynbutton-response","151","2.0.0","2695290","1","<div class=""pb-14 text-7xl"">+</div>","null","fixation","","","","","",""
"","372","html-keynbutton-response","152","2.0.0","2695663","1","<div class=""flex flex-row stim-length pb-8 md:pd-20 justify-evenly items-center""><div class=""square""></div><div class=""circle""></div><div class=""square""></div></div>","q","","shape_test_1","mismatch","圆","q","true","圆"
"","null","html-keynbutton-response","153","2.0.0","2696174","1","<div class=""pb-14 text-7xl"">+</div>","null","fixation","","","","","",""
"","304","html-keynbutton-response","154","2.0.0","2696480","1","<div class=""flex flex-row stim-length pb-8 md:pd-20 justify-evenly items-center""><div class=""circle""></div><div class=""circle""></div><div class=""circle""></div></div>","q","","shape_test_1","match","圆","q","true","圆"
"","null","html-keynbutton-response","155","2.0.0","2696991","1","<div class=""pb-14 text-7xl"">+</div>","null","fixation","","","","","",""
"","447","html-keynbutton-response","156","2.0.0","2697440","1","<div class=""flex flex-row stim-length pb-8 md:pd-20 justify-evenly items-center""><div class=""circle""></div><div class=""square""></div><div class=""circle""></div></div>","p","","shape_test_1","mismatch","方","p","true","方"
"","null","html-keynbutton-response","157","2.0.0","2697941","1","<div class=""pb-14 text-7xl"">+</div>","null","fixation","","","","","",""
"","377","html-keynbutton-response","158","2.0.0","2698320","1","<div class=""flex flex-row stim-length pb-8 md:pd-20 justify-evenly items-center""><div class=""square""></div><div class=""square""></div><div class=""square""></div></div>","p","","shape_test_1","match","方","p","true","方"
"","null","html-keynbutton-response","159","2.0.0","2698826","1","<div class=""pb-14 text-7xl"">+</div>","null","fixation","","","","","",""
"","373","html-keynbutton-response","160","2.0.0","2699200","1","<div class=""flex flex-row stim-length pb-8 md:pd-20 justify-evenly items-center""><div class=""circle""></div><div class=""circle""></div><div class=""circle""></div></div>","q","","shape_test_1","match","圆","q","true","圆"
"","null","html-keynbutton-response","161","2.0.0","2699707","1","<div class=""pb-14 text-7xl"">+</div>","null","fixation","","","","","",""
"","452","html-keynbutton-response","162","2.0.0","2700160","1","<div class=""flex flex-row stim-length pb-8 md:pd-20 justify-evenly items-center""><div class=""circle""></div><div class=""square""></div><div class=""circle""></div></div>","q","","shape_test_1","mismatch","方","p","false","圆"
"","null","html-keynbutton-response","163","2.0.0","2700674","1","<div class=""pb-14 text-7xl"">+</div>","null","fixation","","","","","",""
"","605","html-keynbutton-response","164","2.0.0","2701280","1","<div class=""flex flex-row stim-length pb-8 md:pd-20 justify-evenly items-center""><div class=""square""></div><div class=""circle""></div><div class=""square""></div></div>","q","","shape_test_1","mismatch","圆","q","true","圆"
"","null","html-keynbutton-response","165","2.0.0","2701790","1","<div class=""pb-14 text-7xl"">+</div>","null","fixation","","","","","",""
"","449","html-keynbutton-response","166","2.0.0","2702240","1","<div class=""flex flex-row stim-length pb-8 md:pd-20 justify-evenly items-center""><div class=""square""></div><div class=""square""></div><div class=""square""></div></div>","p","","shape_test_1","match","方","p","true","方"
"","null","html-keynbutton-response","167","2.0.0","2702741","1","<div class=""pb-14 text-7xl"">+</div>","null","fixation","","","","","",""
"","329","html-keynbutton-response","168","2.0.0","2703071","1","<div class=""flex flex-row stim-length pb-8 md:pd-20 justify-evenly items-center""><div class=""circle""></div><div class=""square""></div><div class=""circle""></div></div>","p","","shape_test_1","mismatch","方","p","true","方"
"","null","html-keynbutton-response","169","2.0.0","2703575","1","<div class=""pb-14 text-7xl"">+</div>","null","fixation","","","","","",""
"","424","html-keynbutton-response","170","2.0.0","2704000","1","<div class=""flex flex-row stim-length pb-8 md:pd-20 justify-evenly items-center""><div class=""circle""></div><div class=""circle""></div><div class=""circle""></div></div>","q","","shape_test_1","match","圆","q","true","圆"
"","null","html-keynbutton-response","171","2.0.0","2704509","1","<div class=""pb-14 text-7xl"">+</div>","null","fixation","","","","","",""
"","386","html-keynbutton-response","172","2.0.0","2704896","1","<div class=""flex flex-row stim-length pb-8 md:pd-20 justify-evenly items-center""><div class=""square""></div><div class=""circle""></div><div class=""square""></div></div>","q","","shape_test_1","mismatch","圆","q","true","圆"
"","null","html-keynbutton-response","173","2.0.0","2705407","1","<div class=""pb-14 text-7xl"">+</div>","null","fixation","","","","","",""
"","368","html-keynbutton-response","174","2.0.0","2705776","1","<div class=""flex flex-row stim-length pb-8 md:pd-20 justify-evenly items-center""><div class=""circle""></div><div class=""square""></div><div class=""circle""></div></div>","p","","shape_test_1","mismatch","方","p","true","方"
"","null","html-keynbutton-response","175","2.0.0","2706291","1","<div class=""pb-14 text-7xl"">+</div>","null","fixation","","","","","",""
"","412","html-keynbutton-response","176","2.0.0","2706703","1","<div class=""flex flex-row stim-length pb-8 md:pd-20 justify-evenly items-center""><div class=""square""></div><div class=""square""></div><div class=""square""></div></div>","p","","shape_test_1","match","方","p","true","方"
"","null","html-keynbutton-response","177","2.0.0","2707210","1","<div class=""pb-14 text-7xl"">+</div>","null","fixation","","","","","",""
"","389","html-keynbutton-response","178","2.0.0","2707600","1","<div class=""flex flex-row stim-length pb-8 md:pd-20 justify-evenly items-center""><div class=""square""></div><div class=""circle""></div><div class=""square""></div></div>","q","","shape_test_1","mismatch","圆","q","true","圆"
"","null","html-keynbutton-response","179","2.0.0","2708107","1","<div class=""pb-14 text-7xl"">+</div>","null","fixation","","","","","",""
"","404","html-keynbutton-response","180","2.0.0","2708512","1","<div class=""flex flex-row stim-length pb-8 md:pd-20 justify-evenly items-center""><div class=""circle""></div><div class=""circle""></div><div class=""circle""></div></div>","q","","shape_test_1","match","圆","q","true","圆"
"","null","html-keynbutton-response","181","2.0.0","2709025","1","<div class=""pb-14 text-7xl"">+</div>","null","fixation","","","","","",""
"","334","html-keynbutton-response","182","2.0.0","2709360","1","<div class=""flex flex-row stim-length pb-8 md:pd-20 justify-evenly items-center""><div class=""circle""></div><div class=""circle""></div><div class=""circle""></div></div>","q","","shape_test_1","match","圆","q","true","圆"
"","null","html-keynbutton-response","183","2.0.0","2709874","1","<div class=""pb-14 text-7xl"">+</div>","null","fixation","","","","","",""
"","429","html-keynbutton-response","184","2.0.0","2710304","1","<div class=""flex flex-row stim-length pb-8 md:pd-20 justify-evenly items-center""><div class=""circle""></div><div class=""square""></div><div class=""circle""></div></div>","p","","shape_test_1","mismatch","方","p","true","方"
"","null","html-keynbutton-response","185","2.0.0","2710809","1","<div class=""pb-14 text-7xl"">+</div>","null","fixation","","","","","",""
"","486","html-keynbutton-response","186","2.0.0","2711296","1","<div class=""flex flex-row stim-length pb-8 md:pd-20 justify-evenly items-center""><div class=""square""></div><div class=""circle""></div><div class=""square""></div></div>","q","","shape_test_1","mismatch","圆","q","true","圆"
"","null","html-keynbutton-response","187","2.0.0","2711807","1","<div class=""pb-14 text-7xl"">+</div>","null","fixation","","","","","",""
"","432","html-keynbutton-response","188","2.0.0","2712240","1","<div class=""flex flex-row stim-length pb-8 md:pd-20 justify-evenly items-center""><div class=""square""></div><div class=""square""></div><div class=""square""></div></div>","p","","shape_test_1","match","方","p","true","方"
"","null","html-keynbutton-response","189","2.0.0","2712742","1","<div class=""pb-14 text-7xl"">+</div>","null","fixation","","","","","",""
"","457","html-keynbutton-response","190","2.0.0","2713200","1","<div class=""flex flex-row stim-length pb-8 md:pd-20 justify-evenly items-center""><div class=""square""></div><div class=""square""></div><div class=""square""></div></div>","p","","shape_test_1","match","方","p","true","方"
"","null","html-keynbutton-response","191","2.0.0","2713707","1","<div class=""pb-14 text-7xl"">+</div>","null","fixation","","","","","",""
"","420","html-keynbutton-response","192","2.0.0","2714128","1","<div class=""flex flex-row stim-length pb-8 md:pd-20 justify-evenly items-center""><div class=""square""></div><div class=""circle""></div><div class=""square""></div></div>","q","","shape_test_1","mismatch","圆","q","true","圆"
"","null","html-keynbutton-response","193","2.0.0","2714641","1","<div class=""pb-14 text-7xl"">+</div>","null","fixation","","","","","",""
"","478","html-keynbutton-response","194","2.0.0","2715120","1","<div class=""flex flex-row stim-length pb-8 md:pd-20 justify-evenly items-center""><div class=""circle""></div><div class=""square""></div><div class=""circle""></div></div>","p","","shape_test_1","mismatch","方","p","true","方"
"","null","html-keynbutton-response","195","2.0.0","2715626","1","<div class=""pb-14 text-7xl"">+</div>","null","fixation","","","","","",""
"","500","html-keynbutton-response","196","2.0.0","2716128","1","<div class=""flex flex-row stim-length pb-8 md:pd-20 justify-evenly items-center""><div class=""circle""></div><div class=""circle""></div><div class=""circle""></div></div>","q","","shape_test_1","match","圆","q","true","圆"
"","null","html-keynbutton-response","197","2.0.0","2716640","1","<div class=""pb-14 text-7xl"">+</div>","null","fixation","","","","","",""
"","366","html-keynbutton-response","198","2.0.0","2717008","1","<div class=""flex flex-row stim-length pb-8 md:pd-20 justify-evenly items-center""><div class=""square""></div><div class=""circle""></div><div class=""square""></div></div>","q","","shape_test_1","mismatch","圆","q","true","圆"
"","null","html-keynbutton-response","199","2.0.0","2717524","1","<div class=""pb-14 text-7xl"">+</div>","null","fixation","","","","","",""
"","331","html-keynbutton-response","200","2.0.0","2717855","1","<div class=""flex flex-row stim-length pb-8 md:pd-20 justify-evenly items-center""><div class=""circle""></div><div class=""circle""></div><div class=""circle""></div></div>","q","","shape_test_1","match","圆","q","true","圆"
"","null","html-keynbutton-response","201","2.0.0","2718358","1","<div class=""pb-14 text-7xl"">+</div>","null","fixation","","","","","",""
"","488","html-keynbutton-response","202","2.0.0","2718848","1","<div class=""flex flex-row stim-length pb-8 md:pd-20 justify-evenly items-center""><div class=""circle""></div><div class=""square""></div><div class=""circle""></div></div>","p","","shape_test_1","mismatch","方","p","true","方"
"","null","html-keynbutton-response","203","2.0.0","2719357","1","<div class=""pb-14 text-7xl"">+</div>","null","fixation","","","","","",""
"","353","html-keynbutton-response","204","2.0.0","2719712","1","<div class=""flex flex-row stim-length pb-8 md:pd-20 justify-evenly items-center""><div class=""square""></div><div class=""square""></div><div class=""square""></div></div>","p","","shape_test_1","match","方","p","true","方"
"","null","html-keynbutton-response","205","2.0.0","2720225","1","<div class=""pb-14 text-7xl"">+</div>","null","fixation","","","","","",""
"","302","html-keynbutton-response","206","2.0.0","2720528","1","<div class=""flex flex-row stim-length pb-8 md:pd-20 justify-evenly items-center""><div class=""square""></div><div class=""square""></div><div class=""square""></div></div>","p","","shape_test_1","match","方","p","true","方"
"","null","html-keynbutton-response","207","2.0.0","2721041","1","<div class=""pb-14 text-7xl"">+</div>","null","fixation","","","","","",""
"","302","html-keynbutton-response","208","2.0.0","2721344","1","<div class=""flex flex-row stim-length pb-8 md:pd-20 justify-evenly items-center""><div class=""circle""></div><div class=""square""></div><div class=""circle""></div></div>","p","","shape_test_1","mismatch","方","p","true","方"
"","null","html-keynbutton-response","209","2.0.0","2721857","1","<div class=""pb-14 text-7xl"">+</div>","null","fixation","","","","","",""
"","510","html-keynbutton-response","210","2.0.0","2722367","1","<div class=""flex flex-row stim-length pb-8 md:pd-20 justify-evenly items-center""><div class=""circle""></div><div class=""circle""></div><div class=""circle""></div></div>","q","","shape_test_1","match","圆","q","true","圆"
"","null","html-keynbutton-response","211","2.0.0","2722875","1","<div class=""pb-14 text-7xl"">+</div>","null","fixation","","","","","",""
"","484","html-keynbutton-response","212","2.0.0","2723360","1","<div class=""flex flex-row stim-length pb-8 md:pd-20 justify-evenly items-center""><div class=""square""></div><div class=""circle""></div><div class=""square""></div></div>","q","","shape_test_1","mismatch","圆","q","true","圆"
"","null","html-keynbutton-response","213","2.0.0","2723875","1","<div class=""pb-14 text-7xl"">+</div>","null","fixation","","","","","",""
"","299","html-keynbutton-response","214","2.0.0","2724176","1","<div class=""flex flex-row stim-length pb-8 md:pd-20 justify-evenly items-center""><div class=""circle""></div><div class=""circle""></div><div class=""circle""></div></div>","q","","shape_test_1","match","圆","q","true","圆"
"","null","html-keynbutton-response","215","2.0.0","2724690","1","<div class=""pb-14 text-7xl"">+</div>","null","fixation","","","","","",""
"","860","html-keynbutton-response","216","2.0.0","2725552","1","<div class=""flex flex-row stim-length pb-8 md:pd-20 justify-evenly items-center""><div class=""square""></div><div class=""square""></div><div class=""square""></div></div>","p","","shape_test_1","match","方","p","true","方"
"","null","html-keynbutton-response","217","2.0.0","2726058","1","<div class=""pb-14 text-7xl"">+</div>","null","fixation","","","","","",""
"","453","html-keynbutton-response","218","2.0.0","2726512","1","<div class=""flex flex-row stim-length pb-8 md:pd-20 justify-evenly items-center""><div class=""square""></div><div class=""circle""></div><div class=""square""></div></div>","q","","shape_test_1","mismatch","圆","q","true","圆"
"","null","html-keynbutton-response","219","2.0.0","2727024","1","<div class=""pb-14 text-7xl"">+</div>","null","fixation","","","","","",""
"","399","html-keynbutton-response","220","2.0.0","2727424","1","<div class=""flex flex-row stim-length pb-8 md:pd-20 justify-evenly items-center""><div class=""circle""></div><div class=""square""></div><div class=""circle""></div></div>","p","","shape_test_1","mismatch","方","p","true","方"
"","null","html-keynbutton-response","221","2.0.0","2727925","1","<div class=""pb-14 text-7xl"">+</div>","null","fixation","","","","","",""
"","522","html-keynbutton-response","222","2.0.0","2728448","1","<div class=""flex flex-row stim-length pb-8 md:pd-20 justify-evenly items-center""><div class=""circle""></div><div class=""circle""></div><div class=""circle""></div></div>","q","","shape_test_1","match","圆","q","true","圆"
"","null","html-keynbutton-response","223","2.0.0","2728958","1","<div class=""pb-14 text-7xl"">+</div>","null","fixation","","","","","",""
"","545","html-keynbutton-response","224","2.0.0","2729504","1","<div class=""flex flex-row stim-length pb-8 md:pd-20 justify-evenly items-center""><div class=""circle""></div><div class=""square""></div><div class=""circle""></div></div>","p","","shape_test_1","mismatch","方","p","true","方"
"","null","html-keynbutton-response","225","2.0.0","2730009","1","<div class=""pb-14 text-7xl"">+</div>","null","fixation","","","","","",""
"","438","html-keynbutton-response","226","2.0.0","2730448","1","<div class=""flex flex-row stim-length pb-8 md:pd-20 justify-evenly items-center""><div class=""square""></div><div class=""square""></div><div class=""square""></div></div>","p","","shape_test_1","match","方","p","true","方"
"","null","html-keynbutton-response","227","2.0.0","2730958","1","<div class=""pb-14 text-7xl"">+</div>","null","fixation","","","","","",""
"","417","html-keynbutton-response","228","2.0.0","2731376","1","<div class=""flex flex-row stim-length pb-8 md:pd-20 justify-evenly items-center""><div class=""square""></div><div class=""circle""></div><div class=""square""></div></div>","q","","shape_test_1","mismatch","圆","q","true","圆"
"","11070","html-keynbutton-response","229","2.0.0","2742448","1","<div class=""jp""><p>您已完成2/10部分</p><p>请休息一会儿</p>
    <p>您的正确率是：98%</p>
    <p>您的平均反应时间是：430毫秒</p></div>"," ","block_feedback","","","","","",""
"","null","html-keynbutton-response","230","2.0.0","2745655","1","<count-down title=""""></count-down>","null","countDown_trial","","","","","",""
"","null","html-keynbutton-response","231","2.0.0","2746159","1","<div class=""pb-14 text-7xl"">+</div>","null","fixation","","","","","",""
"","368","html-keynbutton-response","232","2.0.0","2746528","1","<div class=""flex flex-row stim-length pb-8 md:pd-20 justify-evenly items-center""><div class=""circle""></div><div class=""circle""></div><div class=""circle""></div></div>","q","","shape_test_2","match","圆","q","true","圆"
"","null","html-keynbutton-response","233","2.0.0","2747044","1","<div class=""pb-14 text-7xl"">+</div>","null","fixation","","","","","",""
"","363","html-keynbutton-response","234","2.0.0","2747408","1","<div class=""flex flex-row stim-length pb-8 md:pd-20 justify-evenly items-center""><div class=""square""></div><div class=""square""></div><div class=""square""></div></div>","p","","shape_test_2","match","方","p","true","方"
"","null","html-keynbutton-response","235","2.0.0","2747924","1","<div class=""pb-14 text-7xl"">+</div>","null","fixation","","","","","",""
"","315","html-keynbutton-response","236","2.0.0","2748240","1","<div class=""flex flex-row stim-length pb-8 md:pd-20 justify-evenly items-center""><div class=""circle""></div><div class=""square""></div><div class=""circle""></div></div>","p","","shape_test_2","mismatch","方","p","true","方"
"","null","html-keynbutton-response","237","2.0.0","2748743","1","<div class=""pb-14 text-7xl"">+</div>","null","fixation","","","","","",""
"","360","html-keynbutton-response","238","2.0.0","2749104","1","<div class=""flex flex-row stim-length pb-8 md:pd-20 justify-evenly items-center""><div class=""square""></div><div class=""circle""></div><div class=""square""></div></div>","q","","shape_test_2","mismatch","圆","q","true","圆"
"","null","html-keynbutton-response","239","2.0.0","2749609","1","<div class=""pb-14 text-7xl"">+</div>","null","fixation","","","","","",""
"","421","html-keynbutton-response","240","2.0.0","2750031","1","<div class=""flex flex-row stim-length pb-8 md:pd-20 justify-evenly items-center""><div class=""circle""></div><div class=""circle""></div><div class=""circle""></div></div>","q","","shape_test_2","match","圆","q","true","圆"
"","null","html-keynbutton-response","241","2.0.0","2750542","1","<div class=""pb-14 text-7xl"">+</div>","null","fixation","","","","","",""
"","385","html-keynbutton-response","242","2.0.0","2750926","1","<div class=""flex flex-row stim-length pb-8 md:pd-20 justify-evenly items-center""><div class=""square""></div><div class=""square""></div><div class=""square""></div></div>","p","","shape_test_2","match","方","p","true","方"
"","null","html-keynbutton-response","243","2.0.0","2751439","1","<div class=""pb-14 text-7xl"">+</div>","null","fixation","","","","","",""
"","414","html-keynbutton-response","244","2.0.0","2751853","1","<div class=""flex flex-row stim-length pb-8 md:pd-20 justify-evenly items-center""><div class=""circle""></div><div class=""square""></div><div class=""circle""></div></div>","p","","shape_test_2","mismatch","方","p","true","方"
"","null","html-keynbutton-response","245","2.0.0","2752356","1","<div class=""pb-14 text-7xl"">+</div>","null","fixation","","","","","",""
"","409","html-keynbutton-response","246","2.0.0","2752766","1","<div class=""flex flex-row stim-length pb-8 md:pd-20 justify-evenly items-center""><div class=""square""></div><div class=""circle""></div><div class=""square""></div></div>","q","","shape_test_2","mismatch","圆","q","true","圆"
"","null","html-keynbutton-response","247","2.0.0","2753273","1","<div class=""pb-14 text-7xl"">+</div>","null","fixation","","","","","",""
"","420","html-keynbutton-response","248","2.0.0","2753694","1","<div class=""flex flex-row stim-length pb-8 md:pd-20 justify-evenly items-center""><div class=""circle""></div><div class=""square""></div><div class=""circle""></div></div>","p","","shape_test_2","mismatch","方","p","true","方"
"","null","html-keynbutton-response","249","2.0.0","2754205","1","<div class=""pb-14 text-7xl"">+</div>","null","fixation","","","","","",""
"","335","html-keynbutton-response","250","2.0.0","2754542","1","<div class=""flex flex-row stim-length pb-8 md:pd-20 justify-evenly items-center""><div class=""square""></div><div class=""circle""></div><div class=""square""></div></div>","q","","shape_test_2","mismatch","圆","q","true","圆"
"","null","html-keynbutton-response","251","2.0.0","2755055","1","<div class=""pb-14 text-7xl"">+</div>","null","fixation","","","","","",""
"","414","html-keynbutton-response","252","2.0.0","2755470","1","<div class=""flex flex-row stim-length pb-8 md:pd-20 justify-evenly items-center""><div class=""square""></div><div class=""square""></div><div class=""square""></div></div>","p","","shape_test_2","match","方","p","true","方"
"","null","html-keynbutton-response","253","2.0.0","2755973","1","<div class=""pb-14 text-7xl"">+</div>","null","fixation","","","","","",""
"","424","html-keynbutton-response","254","2.0.0","2756397","1","<div class=""flex flex-row stim-length pb-8 md:pd-20 justify-evenly items-center""><div class=""circle""></div><div class=""circle""></div><div class=""circle""></div></div>","q","","shape_test_2","match","圆","q","true","圆"
"","null","html-keynbutton-response","255","2.0.0","2756905","1","<div class=""pb-14 text-7xl"">+</div>","null","fixation","","","","","",""
"","340","html-keynbutton-response","256","2.0.0","2757246","1","<div class=""flex flex-row stim-length pb-8 md:pd-20 justify-evenly items-center""><div class=""circle""></div><div class=""circle""></div><div class=""circle""></div></div>","q","","shape_test_2","match","圆","q","true","圆"
"","null","html-keynbutton-response","257","2.0.0","2757759","1","<div class=""pb-14 text-7xl"">+</div>","null","fixation","","","","","",""
"","462","html-keynbutton-response","258","2.0.0","2758222","1","<div class=""flex flex-row stim-length pb-8 md:pd-20 justify-evenly items-center""><div class=""square""></div><div class=""square""></div><div class=""square""></div></div>","p","","shape_test_2","match","方","p","true","方"
"","null","html-keynbutton-response","259","2.0.0","2758723","1","<div class=""pb-14 text-7xl"">+</div>","null","fixation","","","","","",""
"","441","html-keynbutton-response","260","2.0.0","2759165","1","<div class=""flex flex-row stim-length pb-8 md:pd-20 justify-evenly items-center""><div class=""square""></div><div class=""circle""></div><div class=""square""></div></div>","q","","shape_test_2","mismatch","圆","q","true","圆"
"","null","html-keynbutton-response","261","2.0.0","2759672","1","<div class=""pb-14 text-7xl"">+</div>","null","fixation","","","","","",""
"","373","html-keynbutton-response","262","2.0.0","2760046","1","<div class=""flex flex-row stim-length pb-8 md:pd-20 justify-evenly items-center""><div class=""circle""></div><div class=""square""></div><div class=""circle""></div></div>","p","","shape_test_2","mismatch","方","p","true","方"
"","null","html-keynbutton-response","263","2.0.0","2760547","1","<div class=""pb-14 text-7xl"">+</div>","null","fixation","","","","","",""
"","426","html-keynbutton-response","264","2.0.0","2760974","1","<div class=""flex flex-row stim-length pb-8 md:pd-20 justify-evenly items-center""><div class=""square""></div><div class=""circle""></div><div class=""square""></div></div>","q","","shape_test_2","mismatch","圆","q","true","圆"
"","null","html-keynbutton-response","265","2.0.0","2761488","1","<div class=""pb-14 text-7xl"">+</div>","null","fixation","","","","","",""
"","508","html-keynbutton-response","266","2.0.0","2761998","1","<div class=""flex flex-row stim-length pb-8 md:pd-20 justify-evenly items-center""><div class=""circle""></div><div class=""square""></div><div class=""circle""></div></div>","p","","shape_test_2","mismatch","方","p","true","方"
"","null","html-keynbutton-response","267","2.0.0","2762505","1","<div class=""pb-14 text-7xl"">+</div>","null","fixation","","","","","",""
"","500","html-keynbutton-response","268","2.0.0","2763006","1","<div class=""flex flex-row stim-length pb-8 md:pd-20 justify-evenly items-center""><div class=""circle""></div><div class=""circle""></div><div class=""circle""></div></div>","q","","shape_test_2","match","圆","q","true","圆"
"","null","html-keynbutton-response","269","2.0.0","2763522","1","<div class=""pb-14 text-7xl"">+</div>","null","fixation","","","","","",""
"","634","html-keynbutton-response","270","2.0.0","2764157","1","<div class=""flex flex-row stim-length pb-8 md:pd-20 justify-evenly items-center""><div class=""square""></div><div class=""square""></div><div class=""square""></div></div>","p","","shape_test_2","match","方","p","true","方"
"","null","html-keynbutton-response","271","2.0.0","2764672","1","<div class=""pb-14 text-7xl"">+</div>","null","fixation","","","","","",""
"","621","html-keynbutton-response","272","2.0.0","2765294","1","<div class=""flex flex-row stim-length pb-8 md:pd-20 justify-evenly items-center""><div class=""square""></div><div class=""circle""></div><div class=""square""></div></div>","q","","shape_test_2","mismatch","圆","q","true","圆"
"","null","html-keynbutton-response","273","2.0.0","2765805","1","<div class=""pb-14 text-7xl"">+</div>","null","fixation","","","","","",""
"","527","html-keynbutton-response","274","2.0.0","2766333","1","<div class=""flex flex-row stim-length pb-8 md:pd-20 justify-evenly items-center""><div class=""circle""></div><div class=""square""></div><div class=""circle""></div></div>","p","","shape_test_2","mismatch","方","p","true","方"
"","null","html-keynbutton-response","275","2.0.0","2766839","1","<div class=""pb-14 text-7xl"">+</div>","null","fixation","","","","","",""
"","421","html-keynbutton-response","276","2.0.0","2767262","1","<div class=""flex flex-row stim-length pb-8 md:pd-20 justify-evenly items-center""><div class=""square""></div><div class=""square""></div><div class=""square""></div></div>","p","","shape_test_2","match","方","p","true","方"
"","null","html-keynbutton-response","277","2.0.0","2767773","1","<div class=""pb-14 text-7xl"">+</div>","null","fixation","","","","","",""
"","447","html-keynbutton-response","278","2.0.0","2768221","1","<div class=""flex flex-row stim-length pb-8 md:pd-20 justify-evenly items-center""><div class=""circle""></div><div class=""circle""></div><div class=""circle""></div></div>","q","","shape_test_2","match","圆","q","true","圆"
"","null","html-keynbutton-response","279","2.0.0","2768727","1","<div class=""pb-14 text-7xl"">+</div>","null","fixation","","","","","",""
"","469","html-keynbutton-response","280","2.0.0","2769197","1","<div class=""flex flex-row stim-length pb-8 md:pd-20 justify-evenly items-center""><div class=""circle""></div><div class=""square""></div><div class=""circle""></div></div>","p","","shape_test_2","mismatch","方","p","true","方"
"","null","html-keynbutton-response","281","2.0.0","2769706","1","<div class=""pb-14 text-7xl"">+</div>","null","fixation","","","","","",""
"","451","html-keynbutton-response","282","2.0.0","2770158","1","<div class=""flex flex-row stim-length pb-8 md:pd-20 justify-evenly items-center""><div class=""square""></div><div class=""square""></div><div class=""square""></div></div>","p","","shape_test_2","match","方","p","true","方"
"","null","html-keynbutton-response","283","2.0.0","2770672","1","<div class=""pb-14 text-7xl"">+</div>","null","fixation","","","","","",""
"","556","html-keynbutton-response","284","2.0.0","2771230","1","<div class=""flex flex-row stim-length pb-8 md:pd-20 justify-evenly items-center""><div class=""square""></div><div class=""circle""></div><div class=""square""></div></div>","q","","shape_test_2","mismatch","圆","q","true","圆"
"","null","html-keynbutton-response","285","2.0.0","2771739","1","<div class=""pb-14 text-7xl"">+</div>","null","fixation","","","","","",""
"","562","html-keynbutton-response","286","2.0.0","2772302","1","<div class=""flex flex-row stim-length pb-8 md:pd-20 justify-evenly items-center""><div class=""circle""></div><div class=""circle""></div><div class=""circle""></div></div>","q","","shape_test_2","match","圆","q","true","圆"
"","null","html-keynbutton-response","287","2.0.0","2772808","1","<div class=""pb-14 text-7xl"">+</div>","null","fixation","","","","","",""
"","420","html-keynbutton-response","288","2.0.0","2773230","1","<div class=""flex flex-row stim-length pb-8 md:pd-20 justify-evenly items-center""><div class=""square""></div><div class=""square""></div><div class=""square""></div></div>","p","","shape_test_2","match","方","p","true","方"
"","null","html-keynbutton-response","289","2.0.0","2773739","1","<div class=""pb-14 text-7xl"">+</div>","null","fixation","","","","","",""
"","513","html-keynbutton-response","290","2.0.0","2774253","1","<div class=""flex flex-row stim-length pb-8 md:pd-20 justify-evenly items-center""><div class=""circle""></div><div class=""circle""></div><div class=""circle""></div></div>","q","","shape_test_2","match","圆","q","true","圆"
"","null","html-keynbutton-response","291","2.0.0","2774757","1","<div class=""pb-14 text-7xl"">+</div>","null","fixation","","","","","",""
"","487","html-keynbutton-response","292","2.0.0","2775245","1","<div class=""flex flex-row stim-length pb-8 md:pd-20 justify-evenly items-center""><div class=""circle""></div><div class=""square""></div><div class=""circle""></div></div>","p","","shape_test_2","mismatch","方","p","true","方"
"","null","html-keynbutton-response","293","2.0.0","2775755","1","<div class=""pb-14 text-7xl"">+</div>","null","fixation","","","","","",""
"","465","html-keynbutton-response","294","2.0.0","2776221","1","<div class=""flex flex-row stim-length pb-8 md:pd-20 justify-evenly items-center""><div class=""square""></div><div class=""circle""></div><div class=""square""></div></div>","q","","shape_test_2","mismatch","圆","q","true","圆"
"","null","html-keynbutton-response","295","2.0.0","2776724","1","<div class=""pb-14 text-7xl"">+</div>","null","fixation","","","","","",""
"","393","html-keynbutton-response","296","2.0.0","2777118","1","<div class=""flex flex-row stim-length pb-8 md:pd-20 justify-evenly items-center""><div class=""circle""></div><div class=""square""></div><div class=""circle""></div></div>","p","","shape_test_2","mismatch","方","p","true","方"
"","null","html-keynbutton-response","297","2.0.0","2777624","1","<div class=""pb-14 text-7xl"">+</div>","null","fixation","","","","","",""
"","421","html-keynbutton-response","298","2.0.0","2778046","1","<div class=""flex flex-row stim-length pb-8 md:pd-20 justify-evenly items-center""><div class=""square""></div><div class=""circle""></div><div class=""square""></div></div>","q","","shape_test_2","mismatch","圆","q","true","圆"
"","null","html-keynbutton-response","299","2.0.0","2778555","1","<div class=""pb-14 text-7xl"">+</div>","null","fixation","","","","","",""
"","513","html-keynbutton-response","300","2.0.0","2779070","1","<div class=""flex flex-row stim-length pb-8 md:pd-20 justify-evenly items-center""><div class=""circle""></div><div class=""circle""></div><div class=""circle""></div></div>","q","","shape_test_2","match","圆","q","true","圆"
"","null","html-keynbutton-response","301","2.0.0","2779573","1","<div class=""pb-14 text-7xl"">+</div>","null","fixation","","","","","",""
"","632","html-keynbutton-response","302","2.0.0","2780206","1","<div class=""flex flex-row stim-length pb-8 md:pd-20 justify-evenly items-center""><div class=""square""></div><div class=""square""></div><div class=""square""></div></div>","p","","shape_test_2","match","方","p","true","方"
"","null","html-keynbutton-response","303","2.0.0","2780707","1","<div class=""pb-14 text-7xl"">+</div>","null","fixation","","","","","",""
"","409","html-keynbutton-response","304","2.0.0","2781117","1","<div class=""flex flex-row stim-length pb-8 md:pd-20 justify-evenly items-center""><div class=""circle""></div><div class=""square""></div><div class=""circle""></div></div>","p","","shape_test_2","mismatch","方","p","true","方"
"","null","html-keynbutton-response","305","2.0.0","2781623","1","<div class=""pb-14 text-7xl"">+</div>","null","fixation","","","","","",""
"","501","html-keynbutton-response","306","2.0.0","2782124","1","<div class=""flex flex-row stim-length pb-8 md:pd-20 justify-evenly items-center""><div class=""square""></div><div class=""circle""></div><div class=""square""></div></div>","q","","shape_test_2","mismatch","圆","q","true","圆"
"","null","html-keynbutton-response","307","2.0.0","2782638","1","<div class=""pb-14 text-7xl"">+</div>","null","fixation","","","","","",""
"","350","html-keynbutton-response","308","2.0.0","2782990","1","<div class=""flex flex-row stim-length pb-8 md:pd-20 justify-evenly items-center""><div class=""circle""></div><div class=""circle""></div><div class=""circle""></div></div>","q","","shape_test_2","match","圆","q","true","圆"
"","null","html-keynbutton-response","309","2.0.0","2783505","1","<div class=""pb-14 text-7xl"">+</div>","null","fixation","","","","","",""
"","379","html-keynbutton-response","310","2.0.0","2783885","1","<div class=""flex flex-row stim-length pb-8 md:pd-20 justify-evenly items-center""><div class=""square""></div><div class=""square""></div><div class=""square""></div></div>","q","","shape_test_2","match","方","p","false","圆"
"","13951","html-keynbutton-response","311","2.0.0","2797838","1","<div class=""jp""><p>您已完成3/10部分</p><p>请休息一会儿</p>
    <p>您的正确率是：98%</p>
    <p>您的平均反应时间是：446毫秒</p></div>"," ","block_feedback","","","","","",""
"","null","html-keynbutton-response","312","2.0.0","2801052","1","<count-down title=""""></count-down>","null","countDown_trial","","","","","",""
"","null","html-keynbutton-response","313","2.0.0","2801558","1","<div class=""pb-14 text-7xl"">+</div>","null","fixation","","","","","",""
"","471","html-keynbutton-response","314","2.0.0","2802030","1","<div class=""flex flex-row stim-length pb-8 md:pd-20 justify-evenly items-center""><div class=""circle""></div><div class=""circle""></div><div class=""circle""></div></div>","q","","shape_test_3","match","圆","q","true","圆"
"","null","html-keynbutton-response","315","2.0.0","2802539","1","<div class=""pb-14 text-7xl"">+</div>","null","fixation","","","","","",""
"","307","html-keynbutton-response","316","2.0.0","2802846","1","<div class=""flex flex-row stim-length pb-8 md:pd-20 justify-evenly items-center""><div class=""circle""></div><div class=""square""></div><div class=""circle""></div></div>","p","","shape_test_3","mismatch","方","p","true","方"
"","null","html-keynbutton-response","317","2.0.0","2803355","1","<div class=""pb-14 text-7xl"">+</div>","null","fixation","","","","","",""
"","370","html-keynbutton-response","318","2.0.0","2803726","1","<div class=""flex flex-row stim-length pb-8 md:pd-20 justify-evenly items-center""><div class=""square""></div><div class=""square""></div><div class=""square""></div></div>","p","","shape_test_3","match","方","p","true","方"
"","null","html-keynbutton-response","319","2.0.0","2804239","1","<div class=""pb-14 text-7xl"">+</div>","null","fixation","","","","","",""
"","413","html-keynbutton-response","320","2.0.0","2804654","1","<div class=""flex flex-row stim-length pb-8 md:pd-20 justify-evenly items-center""><div class=""square""></div><div class=""circle""></div><div class=""square""></div></div>","q","","shape_test_3","mismatch","圆","q","true","圆"
"","null","html-keynbutton-response","321","2.0.0","2805157","1","<div class=""pb-14 text-7xl"">+</div>","null","fixation","","","","","",""
"","407","html-keynbutton-response","322","2.0.0","2805565","1","<div class=""flex flex-row stim-length pb-8 md:pd-20 justify-evenly items-center""><div class=""circle""></div><div class=""square""></div><div class=""circle""></div></div>","p","","shape_test_3","mismatch","方","p","true","方"
"","null","html-keynbutton-response","323","2.0.0","2806072","1","<div class=""pb-14 text-7xl"">+</div>","null","fixation","","","","","",""
"","484","html-keynbutton-response","324","2.0.0","2806557","1","<div class=""flex flex-row stim-length pb-8 md:pd-20 justify-evenly items-center""><div class=""square""></div><div class=""circle""></div><div class=""square""></div></div>","q","","shape_test_3","mismatch","圆","q","true","圆"
"","null","html-keynbutton-response","325","2.0.0","2807073","1","<div class=""pb-14 text-7xl"">+</div>","null","fixation","","","","","",""
"","475","html-keynbutton-response","326","2.0.0","2807549","1","<div class=""flex flex-row stim-length pb-8 md:pd-20 justify-evenly items-center""><div class=""circle""></div><div class=""circle""></div><div class=""circle""></div></div>","q","","shape_test_3","match","圆","q","true","圆"
"","null","html-keynbutton-response","327","2.0.0","2808056","1","<div class=""pb-14 text-7xl"">+</div>","null","fixation","","","","","",""
"","373","html-keynbutton-response","328","2.0.0","2808430","1","<div class=""flex flex-row stim-length pb-8 md:pd-20 justify-evenly items-center""><div class=""square""></div><div class=""square""></div><div class=""square""></div></div>","p","","shape_test_3","match","方","p","true","方"
"","null","html-keynbutton-response","329","2.0.0","2808939","1","<div class=""pb-14 text-7xl"">+</div>","null","fixation","","","","","",""
"","385","html-keynbutton-response","330","2.0.0","2809326","1","<div class=""flex flex-row stim-length pb-8 md:pd-20 justify-evenly items-center""><div class=""circle""></div><div class=""square""></div><div class=""circle""></div></div>","p","","shape_test_3","mismatch","方","p","true","方"
"","null","html-keynbutton-response","331","2.0.0","2809831","1","<div class=""pb-14 text-7xl"">+</div>","null","fixation","","","","","",""
"","470","html-keynbutton-response","332","2.0.0","2810302","1","<div class=""flex flex-row stim-length pb-8 md:pd-20 justify-evenly items-center""><div class=""square""></div><div class=""circle""></div><div class=""square""></div></div>","q","","shape_test_3","mismatch","圆","q","true","圆"
"","null","html-keynbutton-response","333","2.0.0","2810807","1","<div class=""pb-14 text-7xl"">+</div>","null","fixation","","","","","",""
"","405","html-keynbutton-response","334","2.0.0","2811223","1","<div class=""flex flex-row stim-length pb-8 md:pd-20 justify-evenly items-center""><div class=""square""></div><div class=""square""></div><div class=""square""></div></div>","p","","shape_test_3","match","方","p","true","方"
"","null","html-keynbutton-response","335","2.0.0","2811731","1","<div class=""pb-14 text-7xl"">+</div>","null","fixation","","","","","",""
"","451","html-keynbutton-response","336","2.0.0","2812183","1","<div class=""flex flex-row stim-length pb-8 md:pd-20 justify-evenly items-center""><div class=""circle""></div><div class=""circle""></div><div class=""circle""></div></div>","q","","shape_test_3","match","圆","q","true","圆"
"","null","html-keynbutton-response","337","2.0.0","2812699","1","<div class=""pb-14 text-7xl"">+</div>","null","fixation","","","","","",""
"","444","html-keynbutton-response","338","2.0.0","2813143","1","<div class=""flex flex-row stim-length pb-8 md:pd-20 justify-evenly items-center""><div class=""circle""></div><div class=""circle""></div><div class=""circle""></div></div>","q","","shape_test_3","match","圆","q","true","圆"
"","null","html-keynbutton-response","339","2.0.0","2813656","1","<div class=""pb-14 text-7xl"">+</div>","null","fixation","","","","","",""
"","383","html-keynbutton-response","340","2.0.0","2814039","1","<div class=""flex flex-row stim-length pb-8 md:pd-20 justify-evenly items-center""><div class=""square""></div><div class=""square""></div><div class=""square""></div></div>","p","","shape_test_3","match","方","p","true","方"
"","null","html-keynbutton-response","341","2.0.0","2814549","1","<div class=""pb-14 text-7xl"">+</div>","null","fixation","","","","","",""
"","369","html-keynbutton-response","342","2.0.0","2814919","1","<div class=""flex flex-row stim-length pb-8 md:pd-20 justify-evenly items-center""><div class=""circle""></div><div class=""square""></div><div class=""circle""></div></div>","p","","shape_test_3","mismatch","方","p","true","方"
"","null","html-keynbutton-response","343","2.0.0","2815432","1","<div class=""pb-14 text-7xl"">+</div>","null","fixation","","","","","",""
"","479","html-keynbutton-response","344","2.0.0","2815911","1","<div class=""flex flex-row stim-length pb-8 md:pd-20 justify-evenly items-center""><div class=""square""></div><div class=""circle""></div><div class=""square""></div></div>","q","","shape_test_3","mismatch","圆","q","true","圆"
"","null","html-keynbutton-response","345","2.0.0","2816417","1","<div class=""pb-14 text-7xl"">+</div>","null","fixation","","","","","",""
"","421","html-keynbutton-response","346","2.0.0","2816839","1","<div class=""flex flex-row stim-length pb-8 md:pd-20 justify-evenly items-center""><div class=""circle""></div><div class=""square""></div><div class=""circle""></div></div>","p","","shape_test_3","mismatch","方","p","true","方"
"","null","html-keynbutton-response","347","2.0.0","2817349","1","<div class=""pb-14 text-7xl"">+</div>","null","fixation","","","","","",""
"","433","html-keynbutton-response","348","2.0.0","2817783","1","<div class=""flex flex-row stim-length pb-8 md:pd-20 justify-evenly items-center""><div class=""square""></div><div class=""circle""></div><div class=""square""></div></div>","q","","shape_test_3","mismatch","圆","q","true","圆"
"","null","html-keynbutton-response","349","2.0.0","2818288","1","<div class=""pb-14 text-7xl"">+</div>","null","fixation","","","","","",""
"","342","html-keynbutton-response","350","2.0.0","2818631","1","<div class=""flex flex-row stim-length pb-8 md:pd-20 justify-evenly items-center""><div class=""circle""></div><div class=""circle""></div><div class=""circle""></div></div>","q","","shape_test_3","match","圆","q","true","圆"
"","null","html-keynbutton-response","351","2.0.0","2819134","1","<div class=""pb-14 text-7xl"">+</div>","null","fixation","","","","","",""
"","440","html-keynbutton-response","352","2.0.0","2819575","1","<div class=""flex flex-row stim-length pb-8 md:pd-20 justify-evenly items-center""><div class=""square""></div><div class=""square""></div><div class=""square""></div></div>","p","","shape_test_3","match","方","p","true","方"
"","null","html-keynbutton-response","353","2.0.0","2820084","1","<div class=""pb-14 text-7xl"">+</div>","null","fixation","","","","","",""
"","403","html-keynbutton-response","354","2.0.0","2820487","1","<div class=""flex flex-row stim-length pb-8 md:pd-20 justify-evenly items-center""><div class=""square""></div><div class=""circle""></div><div class=""square""></div></div>","q","","shape_test_3","mismatch","圆","q","true","圆"
"","null","html-keynbutton-response","355","2.0.0","2820998","1","<div class=""pb-14 text-7xl"">+</div>","null","fixation","","","","","",""
"","384","html-keynbutton-response","356","2.0.0","2821383","1","<div class=""flex flex-row stim-length pb-8 md:pd-20 justify-evenly items-center""><div class=""circle""></div><div class=""circle""></div><div class=""circle""></div></div>","q","","shape_test_3","match","圆","q","true","圆"
"","null","html-keynbutton-response","357","2.0.0","2821899","1","<div class=""pb-14 text-7xl"">+</div>","null","fixation","","","","","",""
"","444","html-keynbutton-response","358","2.0.0","2822343","1","<div class=""flex flex-row stim-length pb-8 md:pd-20 justify-evenly items-center""><div class=""square""></div><div class=""square""></div><div class=""square""></div></div>","p","","shape_test_3","match","方","p","true","方"
"","null","html-keynbutton-response","359","2.0.0","2822850","1","<div class=""pb-14 text-7xl"">+</div>","null","fixation","","","","","",""
"","373","html-keynbutton-response","360","2.0.0","2823223","1","<div class=""flex flex-row stim-length pb-8 md:pd-20 justify-evenly items-center""><div class=""circle""></div><div class=""square""></div><div class=""circle""></div></div>","p","","shape_test_3","mismatch","方","p","true","方"
"","null","html-keynbutton-response","361","2.0.0","2823732","1","<div class=""pb-14 text-7xl"">+</div>","null","fixation","","","","","",""
"","419","html-keynbutton-response","362","2.0.0","2824151","1","<div class=""flex flex-row stim-length pb-8 md:pd-20 justify-evenly items-center""><div class=""circle""></div><div class=""circle""></div><div class=""circle""></div></div>","q","","shape_test_3","match","圆","q","true","圆"
"","null","html-keynbutton-response","363","2.0.0","2824666","1","<div class=""pb-14 text-7xl"">+</div>","null","fixation","","","","","",""
"","508","html-keynbutton-response","364","2.0.0","2825174","1","<div class=""flex flex-row stim-length pb-8 md:pd-20 justify-evenly items-center""><div class=""circle""></div><div class=""square""></div><div class=""circle""></div></div>","p","","shape_test_3","mismatch","方","p","true","方"
"","null","html-keynbutton-response","365","2.0.0","2825682","1","<div class=""pb-14 text-7xl"">+</div>","null","fixation","","","","","",""
"","500","html-keynbutton-response","366","2.0.0","2826183","1","<div class=""flex flex-row stim-length pb-8 md:pd-20 justify-evenly items-center""><div class=""square""></div><div class=""circle""></div><div class=""square""></div></div>","q","","shape_test_3","mismatch","圆","q","true","圆"
"","null","html-keynbutton-response","367","2.0.0","2826699","1","<div class=""pb-14 text-7xl"">+</div>","null","fixation","","","","","",""
"","459","html-keynbutton-response","368","2.0.0","2827159","1","<div class=""flex flex-row stim-length pb-8 md:pd-20 justify-evenly items-center""><div class=""square""></div><div class=""square""></div><div class=""square""></div></div>","p","","shape_test_3","match","方","p","true","方"
"","null","html-keynbutton-response","369","2.0.0","2827666","1","<div class=""pb-14 text-7xl"">+</div>","null","fixation","","","","","",""
"","452","html-keynbutton-response","370","2.0.0","2828119","1","<div class=""flex flex-row stim-length pb-8 md:pd-20 justify-evenly items-center""><div class=""square""></div><div class=""circle""></div><div class=""square""></div></div>","q","","shape_test_3","mismatch","圆","q","true","圆"
"","null","html-keynbutton-response","371","2.0.0","2828633","1","<div class=""pb-14 text-7xl"">+</div>","null","fixation","","","","","",""
"","494","html-keynbutton-response","372","2.0.0","2829127","1","<div class=""flex flex-row stim-length pb-8 md:pd-20 justify-evenly items-center""><div class=""circle""></div><div class=""circle""></div><div class=""circle""></div></div>","q","","shape_test_3","match","圆","q","true","圆"
"","null","html-keynbutton-response","373","2.0.0","2829634","1","<div class=""pb-14 text-7xl"">+</div>","null","fixation","","","","","",""
"","533","html-keynbutton-response","374","2.0.0","2830167","1","<div class=""flex flex-row stim-length pb-8 md:pd-20 justify-evenly items-center""><div class=""square""></div><div class=""square""></div><div class=""square""></div></div>","p","","shape_test_3","match","方","p","true","方"
"","null","html-keynbutton-response","375","2.0.0","2830682","1","<div class=""pb-14 text-7xl"">+</div>","null","fixation","","","","","",""
"","349","html-keynbutton-response","376","2.0.0","2831031","1","<div class=""flex flex-row stim-length pb-8 md:pd-20 justify-evenly items-center""><div class=""circle""></div><div class=""square""></div><div class=""circle""></div></div>","p","","shape_test_3","mismatch","方","p","true","方"
"","null","html-keynbutton-response","377","2.0.0","2831533","1","<div class=""pb-14 text-7xl"">+</div>","null","fixation","","","","","",""
"","393","html-keynbutton-response","378","2.0.0","2831927","1","<div class=""flex flex-row stim-length pb-8 md:pd-20 justify-evenly items-center""><div class=""circle""></div><div class=""square""></div><div class=""circle""></div></div>","p","","shape_test_3","mismatch","方","p","true","方"
"","null","html-keynbutton-response","379","2.0.0","2832434","1","<div class=""pb-14 text-7xl"">+</div>","null","fixation","","","","","",""
"","340","html-keynbutton-response","380","2.0.0","2832774","1","<div class=""flex flex-row stim-length pb-8 md:pd-20 justify-evenly items-center""><div class=""square""></div><div class=""square""></div><div class=""square""></div></div>","p","","shape_test_3","match","方","p","true","方"
"","null","html-keynbutton-response","381","2.0.0","2833283","1","<div class=""pb-14 text-7xl"">+</div>","null","fixation","","","","","",""
"","436","html-keynbutton-response","382","2.0.0","2833719","1","<div class=""flex flex-row stim-length pb-8 md:pd-20 justify-evenly items-center""><div class=""square""></div><div class=""circle""></div><div class=""square""></div></div>","q","","shape_test_3","mismatch","圆","q","true","圆"
"","null","html-keynbutton-response","383","2.0.0","2834232","1","<div class=""pb-14 text-7xl"">+</div>","null","fixation","","","","","",""
"","478","html-keynbutton-response","384","2.0.0","2834711","1","<div class=""flex flex-row stim-length pb-8 md:pd-20 justify-evenly items-center""><div class=""circle""></div><div class=""circle""></div><div class=""circle""></div></div>","q","","shape_test_3","match","圆","q","true","圆"
"","null","html-keynbutton-response","385","2.0.0","2835218","1","<div class=""pb-14 text-7xl"">+</div>","null","fixation","","","","","",""
"","596","html-keynbutton-response","386","2.0.0","2835815","1","<div class=""flex flex-row stim-length pb-8 md:pd-20 justify-evenly items-center""><div class=""circle""></div><div class=""square""></div><div class=""circle""></div></div>","p","","shape_test_3","mismatch","方","p","true","方"
"","null","html-keynbutton-response","387","2.0.0","2836317","1","<div class=""pb-14 text-7xl"">+</div>","null","fixation","","","","","",""
"","552","html-keynbutton-response","388","2.0.0","2836870","1","<div class=""flex flex-row stim-length pb-8 md:pd-20 justify-evenly items-center""><div class=""square""></div><div class=""circle""></div><div class=""square""></div></div>","q","","shape_test_3","mismatch","圆","q","true","圆"
"","null","html-keynbutton-response","389","2.0.0","2837382","1","<div class=""pb-14 text-7xl"">+</div>","null","fixation","","","","","",""
"","527","html-keynbutton-response","390","2.0.0","2837910","1","<div class=""flex flex-row stim-length pb-8 md:pd-20 justify-evenly items-center""><div class=""circle""></div><div class=""circle""></div><div class=""circle""></div></div>","q","","shape_test_3","match","圆","q","true","圆"
"","null","html-keynbutton-response","391","2.0.0","2838417","1","<div class=""pb-14 text-7xl"">+</div>","null","fixation","","","","","",""
"","469","html-keynbutton-response","392","2.0.0","2838886","1","<div class=""flex flex-row stim-length pb-8 md:pd-20 justify-evenly items-center""><div class=""square""></div><div class=""square""></div><div class=""square""></div></div>","p","","shape_test_3","match","方","p","true","方"
"","12272","html-keynbutton-response","393","2.0.0","2851159","1","<div class=""jp""><p>您已完成4/10部分</p><p>请休息一会儿</p>
    <p>您的正确率是：100%</p>
    <p>您的平均反应时间是：436毫秒</p></div>"," ","block_feedback","","","","","",""
"","null","html-keynbutton-response","394","2.0.0","2854363","1","<count-down title=""""></count-down>","null","countDown_trial","","","","","",""
"","null","html-keynbutton-response","395","2.0.0","2854868","1","<div class=""pb-14 text-7xl"">+</div>","null","fixation","","","","","",""
"","739","html-keynbutton-response","396","2.0.0","2855607","1","<div class=""flex flex-row stim-length pb-8 md:pd-20 justify-evenly items-center""><div class=""circle""></div><div class=""circle""></div><div class=""circle""></div></div>","q","","shape_test_4","match","圆","q","true","圆"
"","null","html-keynbutton-response","397","2.0.0","2856115","1","<div class=""pb-14 text-7xl"">+</div>","null","fixation","","","","","",""
"","436","html-keynbutton-response","398","2.0.0","2856551","1","<div class=""flex flex-row stim-length pb-8 md:pd-20 justify-evenly items-center""><div class=""circle""></div><div class=""square""></div><div class=""circle""></div></div>","p","","shape_test_4","mismatch","方","p","true","方"
"","null","html-keynbutton-response","399","2.0.0","2857065","1","<div class=""pb-14 text-7xl"">+</div>","null","fixation","","","","","",""
"","350","html-keynbutton-response","400","2.0.0","2857415","1","<div class=""flex flex-row stim-length pb-8 md:pd-20 justify-evenly items-center""><div class=""square""></div><div class=""circle""></div><div class=""square""></div></div>","q","","shape_test_4","mismatch","圆","q","true","圆"
"","null","html-keynbutton-response","401","2.0.0","2857932","1","<div class=""pb-14 text-7xl"">+</div>","null","fixation","","","","","",""
"","411","html-keynbutton-response","402","2.0.0","2858343","1","<div class=""flex flex-row stim-length pb-8 md:pd-20 justify-evenly items-center""><div class=""square""></div><div class=""square""></div><div class=""square""></div></div>","p","","shape_test_4","match","方","p","true","方"
"","null","html-keynbutton-response","403","2.0.0","2858849","1","<div class=""pb-14 text-7xl"">+</div>","null","fixation","","","","","",""
"","485","html-keynbutton-response","404","2.0.0","2859335","1","<div class=""flex flex-row stim-length pb-8 md:pd-20 justify-evenly items-center""><div class=""circle""></div><div class=""square""></div><div class=""circle""></div></div>","p","","shape_test_4","mismatch","方","p","true","方"
"","null","html-keynbutton-response","405","2.0.0","2859850","1","<div class=""pb-14 text-7xl"">+</div>","null","fixation","","","","","",""
"","396","html-keynbutton-response","406","2.0.0","2860247","1","<div class=""flex flex-row stim-length pb-8 md:pd-20 justify-evenly items-center""><div class=""square""></div><div class=""square""></div><div class=""square""></div></div>","p","","shape_test_4","match","方","p","true","方"
"","null","html-keynbutton-response","407","2.0.0","2860753","1","<div class=""pb-14 text-7xl"">+</div>","null","fixation","","","","","",""
"","422","html-keynbutton-response","408","2.0.0","2861175","1","<div class=""flex flex-row stim-length pb-8 md:pd-20 justify-evenly items-center""><div class=""square""></div><div class=""circle""></div><div class=""square""></div></div>","q","","shape_test_4","mismatch","圆","q","true","圆"
"","null","html-keynbutton-response","409","2.0.0","2861685","1","<div class=""pb-14 text-7xl"">+</div>","null","fixation","","","","","",""
"","945","html-keynbutton-response","410","2.0.0","2862631","1","<div class=""flex flex-row stim-length pb-8 md:pd-20 justify-evenly items-center""><div class=""circle""></div><div class=""circle""></div><div class=""circle""></div></div>","q","","shape_test_4","match","圆","q","true","圆"
"","null","html-keynbutton-response","411","2.0.0","2863133","1","<div class=""pb-14 text-7xl"">+</div>","null","fixation","","","","","",""
"","474","html-keynbutton-response","412","2.0.0","2863607","1","<div class=""flex flex-row stim-length pb-8 md:pd-20 justify-evenly items-center""><div class=""circle""></div><div class=""square""></div><div class=""circle""></div></div>","p","","shape_test_4","mismatch","方","p","true","方"
"","null","html-keynbutton-response","413","2.0.0","2864112","1","<div class=""pb-14 text-7xl"">+</div>","null","fixation","","","","","",""
"","438","html-keynbutton-response","414","2.0.0","2864551","1","<div class=""flex flex-row stim-length pb-8 md:pd-20 justify-evenly items-center""><div class=""square""></div><div class=""circle""></div><div class=""square""></div></div>","q","","shape_test_4","mismatch","圆","q","true","圆"
"","null","html-keynbutton-response","415","2.0.0","2865066","1","<div class=""pb-14 text-7xl"">+</div>","null","fixation","","","","","",""
"","444","html-keynbutton-response","416","2.0.0","2865511","1","<div class=""flex flex-row stim-length pb-8 md:pd-20 justify-evenly items-center""><div class=""circle""></div><div class=""circle""></div><div class=""circle""></div></div>","q","","shape_test_4","match","圆","q","true","圆"
"","null","html-keynbutton-response","417","2.0.0","2866017","1","<div class=""pb-14 text-7xl"">+</div>","null","fixation","","","","","",""
"","453","html-keynbutton-response","418","2.0.0","2866471","1","<div class=""flex flex-row stim-length pb-8 md:pd-20 justify-evenly items-center""><div class=""square""></div><div class=""square""></div><div class=""square""></div></div>","p","","shape_test_4","match","方","p","true","方"
"","null","html-keynbutton-response","419","2.0.0","2866982","1","<div class=""pb-14 text-7xl"">+</div>","null","fixation","","","","","",""
"","497","html-keynbutton-response","420","2.0.0","2867479","1","<div class=""flex flex-row stim-length pb-8 md:pd-20 justify-evenly items-center""><div class=""circle""></div><div class=""circle""></div><div class=""circle""></div></div>","q","","shape_test_4","match","圆","q","true","圆"
"","null","html-keynbutton-response","421","2.0.0","2867983","1","<div class=""pb-14 text-7xl"">+</div>","null","fixation","","","","","",""
"","409","html-keynbutton-response","422","2.0.0","2868392","1","<div class=""flex flex-row stim-length pb-8 md:pd-20 justify-evenly items-center""><div class=""square""></div><div class=""square""></div><div class=""square""></div></div>","p","","shape_test_4","match","方","p","true","方"
"","null","html-keynbutton-response","423","2.0.0","2868900","1","<div class=""pb-14 text-7xl"">+</div>","null","fixation","","","","","",""
"","434","html-keynbutton-response","424","2.0.0","2869335","1","<div class=""flex flex-row stim-length pb-8 md:pd-20 justify-evenly items-center""><div class=""circle""></div><div class=""square""></div><div class=""circle""></div></div>","p","","shape_test_4","mismatch","方","p","true","方"
"","null","html-keynbutton-response","425","2.0.0","2869848","1","<div class=""pb-14 text-7xl"">+</div>","null","fixation","","","","","",""
"","446","html-keynbutton-response","426","2.0.0","2870295","1","<div class=""flex flex-row stim-length pb-8 md:pd-20 justify-evenly items-center""><div class=""square""></div><div class=""circle""></div><div class=""square""></div></div>","q","","shape_test_4","mismatch","圆","q","true","圆"
"","null","html-keynbutton-response","427","2.0.0","2870800","1","<div class=""pb-14 text-7xl"">+</div>","null","fixation","","","","","",""
"","455","html-keynbutton-response","428","2.0.0","2871254","1","<div class=""flex flex-row stim-length pb-8 md:pd-20 justify-evenly items-center""><div class=""square""></div><div class=""square""></div><div class=""square""></div></div>","p","","shape_test_4","match","方","p","true","方"
"","null","html-keynbutton-response","429","2.0.0","2871764","1","<div class=""pb-14 text-7xl"">+</div>","null","fixation","","","","","",""
"","434","html-keynbutton-response","430","2.0.0","2872199","1","<div class=""flex flex-row stim-length pb-8 md:pd-20 justify-evenly items-center""><div class=""square""></div><div class=""circle""></div><div class=""square""></div></div>","q","","shape_test_4","mismatch","圆","q","true","圆"
"","null","html-keynbutton-response","431","2.0.0","2872715","1","<div class=""pb-14 text-7xl"">+</div>","null","fixation","","","","","",""
"","427","html-keynbutton-response","432","2.0.0","2873143","1","<div class=""flex flex-row stim-length pb-8 md:pd-20 justify-evenly items-center""><div class=""circle""></div><div class=""square""></div><div class=""circle""></div></div>","p","","shape_test_4","mismatch","方","p","true","方"
"","null","html-keynbutton-response","433","2.0.0","2873649","1","<div class=""pb-14 text-7xl"">+</div>","null","fixation","","","","","",""
"","437","html-keynbutton-response","434","2.0.0","2874087","1","<div class=""flex flex-row stim-length pb-8 md:pd-20 justify-evenly items-center""><div class=""circle""></div><div class=""circle""></div><div class=""circle""></div></div>","q","","shape_test_4","match","圆","q","true","圆"
"","null","html-keynbutton-response","435","2.0.0","2874598","1","<div class=""pb-14 text-7xl"">+</div>","null","fixation","","","","","",""
"","320","html-keynbutton-response","436","2.0.0","2874919","1","<div class=""flex flex-row stim-length pb-8 md:pd-20 justify-evenly items-center""><div class=""square""></div><div class=""circle""></div><div class=""square""></div></div>","q","","shape_test_4","mismatch","圆","q","true","圆"
"","null","html-keynbutton-response","437","2.0.0","2875432","1","<div class=""pb-14 text-7xl"">+</div>","null","fixation","","","","","",""
"","446","html-keynbutton-response","438","2.0.0","2875879","1","<div class=""flex flex-row stim-length pb-8 md:pd-20 justify-evenly items-center""><div class=""square""></div><div class=""square""></div><div class=""square""></div></div>","p","","shape_test_4","match","方","p","true","方"
"","null","html-keynbutton-response","439","2.0.0","2876382","1","<div class=""pb-14 text-7xl"">+</div>","null","fixation","","","","","",""
"","520","html-keynbutton-response","440","2.0.0","2876903","1","<div class=""flex flex-row stim-length pb-8 md:pd-20 justify-evenly items-center""><div class=""circle""></div><div class=""circle""></div><div class=""circle""></div></div>","q","","shape_test_4","match","圆","q","true","圆"
"","null","html-keynbutton-response","441","2.0.0","2877415","1","<div class=""pb-14 text-7xl"">+</div>","null","fixation","","","","","",""
"","415","html-keynbutton-response","442","2.0.0","2877831","1","<div class=""flex flex-row stim-length pb-8 md:pd-20 justify-evenly items-center""><div class=""circle""></div><div class=""square""></div><div class=""circle""></div></div>","p","","shape_test_4","mismatch","方","p","true","方"
"","null","html-keynbutton-response","443","2.0.0","2878338","1","<div class=""pb-14 text-7xl"">+</div>","null","fixation","","","","","",""
"","565","html-keynbutton-response","444","2.0.0","2878903","1","<div class=""flex flex-row stim-length pb-8 md:pd-20 justify-evenly items-center""><div class=""circle""></div><div class=""square""></div><div class=""circle""></div></div>","p","","shape_test_4","mismatch","方","p","true","方"
"","null","html-keynbutton-response","445","2.0.0","2879415","1","<div class=""pb-14 text-7xl"">+</div>","null","fixation","","","","","",""
"","639","html-keynbutton-response","446","2.0.0","2880055","1","<div class=""flex flex-row stim-length pb-8 md:pd-20 justify-evenly items-center""><div class=""square""></div><div class=""square""></div><div class=""square""></div></div>","p","","shape_test_4","match","方","p","true","方"
"","null","html-keynbutton-response","447","2.0.0","2880565","1","<div class=""pb-14 text-7xl"">+</div>","null","fixation","","","","","",""
"","768","html-keynbutton-response","448","2.0.0","2881334","1","<div class=""flex flex-row stim-length pb-8 md:pd-20 justify-evenly items-center""><div class=""square""></div><div class=""circle""></div><div class=""square""></div></div>","q","","shape_test_4","mismatch","圆","q","true","圆"
"","null","html-keynbutton-response","449","2.0.0","2881849","1","<div class=""pb-14 text-7xl"">+</div>","null","fixation","","","","","",""
"","830","html-keynbutton-response","450","2.0.0","2882679","1","<div class=""flex flex-row stim-length pb-8 md:pd-20 justify-evenly items-center""><div class=""circle""></div><div class=""circle""></div><div class=""circle""></div></div>","q","","shape_test_4","match","圆","q","true","圆"
"","null","html-keynbutton-response","451","2.0.0","2883183","1","<div class=""pb-14 text-7xl"">+</div>","null","fixation","","","","","",""
"","503","html-keynbutton-response","452","2.0.0","2883687","1","<div class=""flex flex-row stim-length pb-8 md:pd-20 justify-evenly items-center""><div class=""square""></div><div class=""square""></div><div class=""square""></div></div>","p","","shape_test_4","match","方","p","true","方"
"","null","html-keynbutton-response","453","2.0.0","2884199","1","<div class=""pb-14 text-7xl"">+</div>","null","fixation","","","","","",""
"","543","html-keynbutton-response","454","2.0.0","2884743","1","<div class=""flex flex-row stim-length pb-8 md:pd-20 justify-evenly items-center""><div class=""square""></div><div class=""circle""></div><div class=""square""></div></div>","q","","shape_test_4","mismatch","圆","q","true","圆"
"","null","html-keynbutton-response","455","2.0.0","2885249","1","<div class=""pb-14 text-7xl"">+</div>","null","fixation","","","","","",""
"","517","html-keynbutton-response","456","2.0.0","2885767","1","<div class=""flex flex-row stim-length pb-8 md:pd-20 justify-evenly items-center""><div class=""circle""></div><div class=""circle""></div><div class=""circle""></div></div>","q","","shape_test_4","match","圆","q","true","圆"
"","null","html-keynbutton-response","457","2.0.0","2886273","1","<div class=""pb-14 text-7xl"">+</div>","null","fixation","","","","","",""
"","517","html-keynbutton-response","458","2.0.0","2886791","1","<div class=""flex flex-row stim-length pb-8 md:pd-20 justify-evenly items-center""><div class=""circle""></div><div class=""square""></div><div class=""circle""></div></div>","p","","shape_test_4","mismatch","方","p","true","方"
"","null","html-keynbutton-response","459","2.0.0","2887298","1","<div class=""pb-14 text-7xl"">+</div>","null","fixation","","","","","",""
"","420","html-keynbutton-response","460","2.0.0","2887719","1","<div class=""flex flex-row stim-length pb-8 md:pd-20 justify-evenly items-center""><div class=""circle""></div><div class=""square""></div><div class=""circle""></div></div>","p","","shape_test_4","mismatch","方","p","true","方"
"","null","html-keynbutton-response","461","2.0.0","2888231","1","<div class=""pb-14 text-7xl"">+</div>","null","fixation","","","","","",""
"","479","html-keynbutton-response","462","2.0.0","2888711","1","<div class=""flex flex-row stim-length pb-8 md:pd-20 justify-evenly items-center""><div class=""circle""></div><div class=""circle""></div><div class=""circle""></div></div>","q","","shape_test_4","match","圆","q","true","圆"
"","null","html-keynbutton-response","463","2.0.0","2889217","1","<div class=""pb-14 text-7xl"">+</div>","null","fixation","","","","","",""
"","468","html-keynbutton-response","464","2.0.0","2889687","1","<div class=""flex flex-row stim-length pb-8 md:pd-20 justify-evenly items-center""><div class=""square""></div><div class=""square""></div><div class=""square""></div></div>","p","","shape_test_4","match","方","p","true","方"
"","null","html-keynbutton-response","465","2.0.0","2890198","1","<div class=""pb-14 text-7xl"">+</div>","null","fixation","","","","","",""
"","512","html-keynbutton-response","466","2.0.0","2890711","1","<div class=""flex flex-row stim-length pb-8 md:pd-20 justify-evenly items-center""><div class=""square""></div><div class=""circle""></div><div class=""square""></div></div>","q","","shape_test_4","mismatch","圆","q","true","圆"
"","null","html-keynbutton-response","467","2.0.0","2891217","1","<div class=""pb-14 text-7xl"">+</div>","null","fixation","","","","","",""
