"success","rt","trial_type","trial_index","plugin_version","time_elapsed","subj_id","stimulus","response","trail_tag","task","ismatch","target","correct_key","correct","response_key"
"true","603745","fullscreen","0","2.0.0","604758","11","","","","","","","","",""
"","32398","html-keynbutton-response","1","2.0.0","637157","11","
        <div class=""jp px-2 xxs:px-5 mx-auto"">
        <p class=""text-center text-red-600 text-[1.2em] pb-5"">欢迎您参加知觉
          <strong>判断实验。</strong>
        </p>
        <p>接下来的任务中您将看到一排图形。</p>
        <p>(圆形●或方形■)</p><p>您的任务是<strong>忽略两侧的图形，专注于中间的图形</strong>。</p>
        <p>如果中间的图形是方，请按“q”；</p>
        <p>如果是圆，请按“p”。</p><p>请尽量又快又准地做出反应。</p>
      <p>请按空格键开始练习。</p>
      </div>"," ","","","","","","",""
"","null","html-keynbutton-response","2","2.0.0","640367","11","<count-down title=""""></count-down>","null","countDown_trial","","","","","",""
"","null","html-keynbutton-response","3","2.0.0","640872","11","<div class=""pb-14 text-7xl"">+</div>","null","fixation","","","","","",""
"","684","html-keynbutton-response","4","2.0.0","641557","11","<div class=""flex flex-row stim-length pb-8 md:pd-20 justify-evenly items-center""><div class=""circle""></div><div class=""circle""></div><div class=""circle""></div></div>","p","","shape_practice","match","圆","p","true","圆"
"","null","html-keynbutton-response","5","2.0.0","642069","11","<span class='text-green-400 text-4xl md:text-5xl lg:text-6xl'>正确!</span>","null","trial_feedback","","","","","",""
"","null","html-keynbutton-response","6","2.0.0","642583","11","<div class=""pb-14 text-7xl"">+</div>","null","fixation","","","","","",""
"","590","html-keynbutton-response","7","2.0.0","643173","11","<div class=""flex flex-row stim-length pb-8 md:pd-20 justify-evenly items-center""><div class=""square""></div><div class=""square""></div><div class=""square""></div></div>","q","","shape_practice","match","方","q","true","方"
"","null","html-keynbutton-response","8","2.0.0","643683","11","<span class='text-green-400 text-4xl md:text-5xl lg:text-6xl'>正确!</span>","null","trial_feedback","","","","","",""
"","null","html-keynbutton-response","9","2.0.0","644184","11","<div class=""pb-14 text-7xl"">+</div>","null","fixation","","","","","",""
"","492","html-keynbutton-response","10","2.0.0","644677","11","<div class=""flex flex-row stim-length pb-8 md:pd-20 justify-evenly items-center""><div class=""circle""></div><div class=""square""></div><div class=""circle""></div></div>","q","","shape_practice","mismatch","方","q","true","方"
"","null","html-keynbutton-response","11","2.0.0","645184","11","<span class='text-green-400 text-4xl md:text-5xl lg:text-6xl'>正确!</span>","null","trial_feedback","","","","","",""
"","null","html-keynbutton-response","12","2.0.0","645700","11","<div class=""pb-14 text-7xl"">+</div>","null","fixation","","","","","",""
"","432","html-keynbutton-response","13","2.0.0","646133","11","<div class=""flex flex-row stim-length pb-8 md:pd-20 justify-evenly items-center""><div class=""square""></div><div class=""circle""></div><div class=""square""></div></div>","p","","shape_practice","mismatch","圆","p","true","圆"
"","null","html-keynbutton-response","14","2.0.0","646641","11","<span class='text-green-400 text-4xl md:text-5xl lg:text-6xl'>正确!</span>","null","trial_feedback","","","","","",""
"","null","html-keynbutton-response","15","2.0.0","647149","11","<div class=""pb-14 text-7xl"">+</div>","null","fixation","","","","","",""
"","631","html-keynbutton-response","16","2.0.0","647781","11","<div class=""flex flex-row stim-length pb-8 md:pd-20 justify-evenly items-center""><div class=""circle""></div><div class=""square""></div><div class=""circle""></div></div>","q","","shape_practice","mismatch","方","q","true","方"
"","null","html-keynbutton-response","17","2.0.0","648292","11","<span class='text-green-400 text-4xl md:text-5xl lg:text-6xl'>正确!</span>","null","trial_feedback","","","","","",""
"","null","html-keynbutton-response","18","2.0.0","648799","11","<div class=""pb-14 text-7xl"">+</div>","null","fixation","","","","","",""
"","421","html-keynbutton-response","19","2.0.0","649221","11","<div class=""flex flex-row stim-length pb-8 md:pd-20 justify-evenly items-center""><div class=""circle""></div><div class=""circle""></div><div class=""circle""></div></div>","p","","shape_practice","match","圆","p","true","圆"
"","null","html-keynbutton-response","20","2.0.0","649735","11","<span class='text-green-400 text-4xl md:text-5xl lg:text-6xl'>正确!</span>","null","trial_feedback","","","","","",""
"","null","html-keynbutton-response","21","2.0.0","650245","11","<div class=""pb-14 text-7xl"">+</div>","null","fixation","","","","","",""
"","511","html-keynbutton-response","22","2.0.0","650757","11","<div class=""flex flex-row stim-length pb-8 md:pd-20 justify-evenly items-center""><div class=""square""></div><div class=""square""></div><div class=""square""></div></div>","q","","shape_practice","match","方","q","true","方"
"","null","html-keynbutton-response","23","2.0.0","651262","11","<span class='text-green-400 text-4xl md:text-5xl lg:text-6xl'>正确!</span>","null","trial_feedback","","","","","",""
"","null","html-keynbutton-response","24","2.0.0","651768","11","<div class=""pb-14 text-7xl"">+</div>","null","fixation","","","","","",""
"","380","html-keynbutton-response","25","2.0.0","652149","11","<div class=""flex flex-row stim-length pb-8 md:pd-20 justify-evenly items-center""><div class=""square""></div><div class=""circle""></div><div class=""square""></div></div>","p","","shape_practice","mismatch","圆","p","true","圆"
"","null","html-keynbutton-response","26","2.0.0","652653","11","<span class='text-green-400 text-4xl md:text-5xl lg:text-6xl'>正确!</span>","null","trial_feedback","","","","","",""
"","null","html-keynbutton-response","27","2.0.0","653163","11","<div class=""pb-14 text-7xl"">+</div>","null","fixation","","","","","",""
"","489","html-keynbutton-response","28","2.0.0","653653","11","<div class=""flex flex-row stim-length pb-8 md:pd-20 justify-evenly items-center""><div class=""square""></div><div class=""circle""></div><div class=""square""></div></div>","p","","shape_practice","mismatch","圆","p","true","圆"
"","null","html-keynbutton-response","29","2.0.0","654160","11","<span class='text-green-400 text-4xl md:text-5xl lg:text-6xl'>正确!</span>","null","trial_feedback","","","","","",""
"","null","html-keynbutton-response","30","2.0.0","654671","11","<div class=""pb-14 text-7xl"">+</div>","null","fixation","","","","","",""
"","469","html-keynbutton-response","31","2.0.0","655141","11","<div class=""flex flex-row stim-length pb-8 md:pd-20 justify-evenly items-center""><div class=""circle""></div><div class=""circle""></div><div class=""circle""></div></div>","p","","shape_practice","match","圆","p","true","圆"
"","null","html-keynbutton-response","32","2.0.0","655655","11","<span class='text-green-400 text-4xl md:text-5xl lg:text-6xl'>正确!</span>","null","trial_feedback","","","","","",""
"","null","html-keynbutton-response","33","2.0.0","656164","11","<div class=""pb-14 text-7xl"">+</div>","null","fixation","","","","","",""
"","385","html-keynbutton-response","34","2.0.0","656549","11","<div class=""flex flex-row stim-length pb-8 md:pd-20 justify-evenly items-center""><div class=""circle""></div><div class=""square""></div><div class=""circle""></div></div>","q","","shape_practice","mismatch","方","q","true","方"
"","null","html-keynbutton-response","35","2.0.0","657060","11","<span class='text-green-400 text-4xl md:text-5xl lg:text-6xl'>正确!</span>","null","trial_feedback","","","","","",""
"","null","html-keynbutton-response","36","2.0.0","657567","11","<div class=""pb-14 text-7xl"">+</div>","null","fixation","","","","","",""
"","613","html-keynbutton-response","37","2.0.0","658181","11","<div class=""flex flex-row stim-length pb-8 md:pd-20 justify-evenly items-center""><div class=""square""></div><div class=""square""></div><div class=""square""></div></div>","q","","shape_practice","match","方","q","true","方"
"","null","html-keynbutton-response","38","2.0.0","658683","11","<span class='text-green-400 text-4xl md:text-5xl lg:text-6xl'>正确!</span>","null","trial_feedback","","","","","",""
"","null","html-keynbutton-response","39","2.0.0","659198","11","<div class=""pb-14 text-7xl"">+</div>","null","fixation","","","","","",""
"","391","html-keynbutton-response","40","2.0.0","659589","11","<div class=""flex flex-row stim-length pb-8 md:pd-20 justify-evenly items-center""><div class=""circle""></div><div class=""square""></div><div class=""circle""></div></div>","q","","shape_practice","mismatch","方","q","true","方"
"","null","html-keynbutton-response","41","2.0.0","660102","11","<span class='text-green-400 text-4xl md:text-5xl lg:text-6xl'>正确!</span>","null","trial_feedback","","","","","",""
"","null","html-keynbutton-response","42","2.0.0","660604","11","<div class=""pb-14 text-7xl"">+</div>","null","fixation","","","","","",""
"","424","html-keynbutton-response","43","2.0.0","661022","11","<div class=""flex flex-row stim-length pb-8 md:pd-20 justify-evenly items-center""><div class=""circle""></div><div class=""circle""></div><div class=""circle""></div></div>","p","","shape_practice","match","圆","p","true","圆"
"","null","html-keynbutton-response","44","2.0.0","661533","11","<span class='text-green-400 text-4xl md:text-5xl lg:text-6xl'>正确!</span>","null","trial_feedback","","","","","",""
"","null","html-keynbutton-response","45","2.0.0","662042","11","<div class=""pb-14 text-7xl"">+</div>","null","fixation","","","","","",""
"","533","html-keynbutton-response","46","2.0.0","662575","11","<div class=""flex flex-row stim-length pb-8 md:pd-20 justify-evenly items-center""><div class=""square""></div><div class=""circle""></div><div class=""square""></div></div>","p","","shape_practice","mismatch","圆","p","true","圆"
"","null","html-keynbutton-response","47","2.0.0","663076","11","<span class='text-green-400 text-4xl md:text-5xl lg:text-6xl'>正确!</span>","null","trial_feedback","","","","","",""
"","null","html-keynbutton-response","48","2.0.0","663583","11","<div class=""pb-14 text-7xl"">+</div>","null","fixation","","","","","",""
"","399","html-keynbutton-response","49","2.0.0","663982","11","<div class=""flex flex-row stim-length pb-8 md:pd-20 justify-evenly items-center""><div class=""square""></div><div class=""square""></div><div class=""square""></div></div>","q","","shape_practice","match","方","q","true","方"
"","null","html-keynbutton-response","50","2.0.0","664497","11","<span class='text-green-400 text-4xl md:text-5xl lg:text-6xl'>正确!</span>","null","trial_feedback","","","","","",""
"","null","html-keynbutton-response","51","2.0.0","665010","11","<div class=""pb-14 text-7xl"">+</div>","null","fixation","","","","","",""
"","349","html-keynbutton-response","52","2.0.0","665359","11","<div class=""flex flex-row stim-length pb-8 md:pd-20 justify-evenly items-center""><div class=""circle""></div><div class=""circle""></div><div class=""circle""></div></div>","p","","shape_practice","match","圆","p","true","圆"
"","null","html-keynbutton-response","53","2.0.0","665860","11","<span class='text-green-400 text-4xl md:text-5xl lg:text-6xl'>正确!</span>","null","trial_feedback","","","","","",""
"","null","html-keynbutton-response","54","2.0.0","666374","11","<div class=""pb-14 text-7xl"">+</div>","null","fixation","","","","","",""
"","376","html-keynbutton-response","55","2.0.0","666751","11","<div class=""flex flex-row stim-length pb-8 md:pd-20 justify-evenly items-center""><div class=""circle""></div><div class=""square""></div><div class=""circle""></div></div>","q","","shape_practice","mismatch","方","q","true","方"
"","null","html-keynbutton-response","56","2.0.0","667253","11","<span class='text-green-400 text-4xl md:text-5xl lg:text-6xl'>正确!</span>","null","trial_feedback","","","","","",""
"","null","html-keynbutton-response","57","2.0.0","667760","11","<div class=""pb-14 text-7xl"">+</div>","null","fixation","","","","","",""
"","414","html-keynbutton-response","58","2.0.0","668175","11","<div class=""flex flex-row stim-length pb-8 md:pd-20 justify-evenly items-center""><div class=""square""></div><div class=""circle""></div><div class=""square""></div></div>","p","","shape_practice","mismatch","圆","p","true","圆"
"","null","html-keynbutton-response","59","2.0.0","668679","11","<span class='text-green-400 text-4xl md:text-5xl lg:text-6xl'>正确!</span>","null","trial_feedback","","","","","",""
"","null","html-keynbutton-response","60","2.0.0","669194","11","<div class=""pb-14 text-7xl"">+</div>","null","fixation","","","","","",""
"","388","html-keynbutton-response","61","2.0.0","669583","11","<div class=""flex flex-row stim-length pb-8 md:pd-20 justify-evenly items-center""><div class=""square""></div><div class=""square""></div><div class=""square""></div></div>","q","","shape_practice","match","方","q","true","方"
"","null","html-keynbutton-response","62","2.0.0","670090","11","<span class='text-green-400 text-4xl md:text-5xl lg:text-6xl'>正确!</span>","null","trial_feedback","","","","","",""
"","2563","html-keynbutton-response","64","2.0.0","672655","11","<div class=""jp"">
    <p>您的正确率是：100%</p>
    <p>您的平均反应时间是：469毫秒</p></div>"," ","block_feedback","","","","","",""
"","2863","html-keynbutton-response","65","2.0.0","675518","11","
        <div class=""jp px-2 xxs:px-5 mx-auto"">
        <p class=""text-center text-red-600 text-[1.2em] pb-5"">练习结束，现在开始正式实验</p>
        <p>请注意：正式实验中将不再会呈现反馈。</p>
        </div>
        "," ","","","","","","",""
"","null","html-keynbutton-response","66","2.0.0","678728","11","<count-down title=""""></count-down>","null","countDown_trial","","","","","",""
"","null","html-keynbutton-response","67","2.0.0","679233","11","<div class=""pb-14 text-7xl"">+</div>","null","fixation","","","","","",""
"","397","html-keynbutton-response","68","2.0.0","679630","11","<div class=""flex flex-row stim-length pb-8 md:pd-20 justify-evenly items-center""><div class=""circle""></div><div class=""square""></div><div class=""circle""></div></div>","q","","shape_test","mismatch","方","q","true","方"
"","null","html-keynbutton-response","69","2.0.0","680147","11","<div class=""pb-14 text-7xl"">+</div>","null","fixation","","","","","",""
"","507","html-keynbutton-response","70","2.0.0","680655","11","<div class=""flex flex-row stim-length pb-8 md:pd-20 justify-evenly items-center""><div class=""circle""></div><div class=""circle""></div><div class=""circle""></div></div>","p","","shape_test","match","圆","p","true","圆"
"","null","html-keynbutton-response","71","2.0.0","681163","11","<div class=""pb-14 text-7xl"">+</div>","null","fixation","","","","","",""
"","436","html-keynbutton-response","72","2.0.0","681598","11","<div class=""flex flex-row stim-length pb-8 md:pd-20 justify-evenly items-center""><div class=""square""></div><div class=""square""></div><div class=""square""></div></div>","q","","shape_test","match","方","q","true","方"
"","null","html-keynbutton-response","73","2.0.0","682102","11","<div class=""pb-14 text-7xl"">+</div>","null","fixation","","","","","",""
"","376","html-keynbutton-response","74","2.0.0","682479","11","<div class=""flex flex-row stim-length pb-8 md:pd-20 justify-evenly items-center""><div class=""square""></div><div class=""circle""></div><div class=""square""></div></div>","p","","shape_test","mismatch","圆","p","true","圆"
"","null","html-keynbutton-response","75","2.0.0","682979","11","<div class=""pb-14 text-7xl"">+</div>","null","fixation","","","","","",""
"","411","html-keynbutton-response","76","2.0.0","683391","11","<div class=""flex flex-row stim-length pb-8 md:pd-20 justify-evenly items-center""><div class=""square""></div><div class=""square""></div><div class=""square""></div></div>","q","","shape_test","match","方","q","true","方"
"","null","html-keynbutton-response","77","2.0.0","683893","11","<div class=""pb-14 text-7xl"">+</div>","null","fixation","","","","","",""
"","393","html-keynbutton-response","78","2.0.0","684287","11","<div class=""flex flex-row stim-length pb-8 md:pd-20 justify-evenly items-center""><div class=""circle""></div><div class=""square""></div><div class=""circle""></div></div>","q","","shape_test","mismatch","方","q","true","方"
"","null","html-keynbutton-response","79","2.0.0","684791","11","<div class=""pb-14 text-7xl"">+</div>","null","fixation","","","","","",""
"","359","html-keynbutton-response","80","2.0.0","685150","11","<div class=""flex flex-row stim-length pb-8 md:pd-20 justify-evenly items-center""><div class=""circle""></div><div class=""circle""></div><div class=""circle""></div></div>","p","","shape_test","match","圆","p","true","圆"
"","null","html-keynbutton-response","81","2.0.0","685657","11","<div class=""pb-14 text-7xl"">+</div>","null","fixation","","","","","",""
"","389","html-keynbutton-response","82","2.0.0","686046","11","<div class=""flex flex-row stim-length pb-8 md:pd-20 justify-evenly items-center""><div class=""square""></div><div class=""circle""></div><div class=""square""></div></div>","p","","shape_test","mismatch","圆","p","true","圆"
"","null","html-keynbutton-response","83","2.0.0","686560","11","<div class=""pb-14 text-7xl"">+</div>","null","fixation","","","","","",""
"","414","html-keynbutton-response","84","2.0.0","686974","11","<div class=""flex flex-row stim-length pb-8 md:pd-20 justify-evenly items-center""><div class=""circle""></div><div class=""circle""></div><div class=""circle""></div></div>","p","","shape_test","match","圆","p","true","圆"
"","null","html-keynbutton-response","85","2.0.0","687479","11","<div class=""pb-14 text-7xl"">+</div>","null","fixation","","","","","",""
"","360","html-keynbutton-response","86","2.0.0","687839","11","<div class=""flex flex-row stim-length pb-8 md:pd-20 justify-evenly items-center""><div class=""square""></div><div class=""square""></div><div class=""square""></div></div>","q","","shape_test","match","方","q","true","方"
"","null","html-keynbutton-response","87","2.0.0","688349","11","<div class=""pb-14 text-7xl"">+</div>","null","fixation","","","","","",""
"","385","html-keynbutton-response","88","2.0.0","688734","11","<div class=""flex flex-row stim-length pb-8 md:pd-20 justify-evenly items-center""><div class=""square""></div><div class=""circle""></div><div class=""square""></div></div>","p","","shape_test","mismatch","圆","p","true","圆"
"","null","html-keynbutton-response","89","2.0.0","689235","11","<div class=""pb-14 text-7xl"">+</div>","null","fixation","","","","","",""
"","395","html-keynbutton-response","90","2.0.0","689631","11","<div class=""flex flex-row stim-length pb-8 md:pd-20 justify-evenly items-center""><div class=""circle""></div><div class=""square""></div><div class=""circle""></div></div>","q","","shape_test","mismatch","方","q","true","方"
"","null","html-keynbutton-response","91","2.0.0","690133","11","<div class=""pb-14 text-7xl"">+</div>","null","fixation","","","","","",""
"","441","html-keynbutton-response","92","2.0.0","690575","11","<div class=""flex flex-row stim-length pb-8 md:pd-20 justify-evenly items-center""><div class=""circle""></div><div class=""circle""></div><div class=""circle""></div></div>","p","","shape_test","match","圆","p","true","圆"
"","null","html-keynbutton-response","93","2.0.0","691083","11","<div class=""pb-14 text-7xl"">+</div>","null","fixation","","","","","",""
"","515","html-keynbutton-response","94","2.0.0","691598","11","<div class=""flex flex-row stim-length pb-8 md:pd-20 justify-evenly items-center""><div class=""circle""></div><div class=""square""></div><div class=""circle""></div></div>","q","","shape_test","mismatch","方","q","true","方"
"","null","html-keynbutton-response","95","2.0.0","692111","11","<div class=""pb-14 text-7xl"">+</div>","null","fixation","","","","","",""
"","415","html-keynbutton-response","96","2.0.0","692527","11","<div class=""flex flex-row stim-length pb-8 md:pd-20 justify-evenly items-center""><div class=""square""></div><div class=""square""></div><div class=""square""></div></div>","q","","shape_test","match","方","q","true","方"
"","null","html-keynbutton-response","97","2.0.0","693029","11","<div class=""pb-14 text-7xl"">+</div>","null","fixation","","","","","",""
"","394","html-keynbutton-response","98","2.0.0","693422","11","<div class=""flex flex-row stim-length pb-8 md:pd-20 justify-evenly items-center""><div class=""square""></div><div class=""circle""></div><div class=""square""></div></div>","p","","shape_test","mismatch","圆","p","true","圆"
"","null","html-keynbutton-response","99","2.0.0","693923","11","<div class=""pb-14 text-7xl"">+</div>","null","fixation","","","","","",""
"","379","html-keynbutton-response","100","2.0.0","694302","11","<div class=""flex flex-row stim-length pb-8 md:pd-20 justify-evenly items-center""><div class=""square""></div><div class=""circle""></div><div class=""square""></div></div>","p","","shape_test","mismatch","圆","p","true","圆"
"","null","html-keynbutton-response","101","2.0.0","694818","11","<div class=""pb-14 text-7xl"">+</div>","null","fixation","","","","","",""
"","444","html-keynbutton-response","102","2.0.0","695263","11","<div class=""flex flex-row stim-length pb-8 md:pd-20 justify-evenly items-center""><div class=""circle""></div><div class=""circle""></div><div class=""circle""></div></div>","p","","shape_test","match","圆","p","true","圆"
"","null","html-keynbutton-response","103","2.0.0","695765","11","<div class=""pb-14 text-7xl"">+</div>","null","fixation","","","","","",""
"","393","html-keynbutton-response","104","2.0.0","696159","11","<div class=""flex flex-row stim-length pb-8 md:pd-20 justify-evenly items-center""><div class=""circle""></div><div class=""square""></div><div class=""circle""></div></div>","q","","shape_test","mismatch","方","q","true","方"
"","null","html-keynbutton-response","105","2.0.0","696671","11","<div class=""pb-14 text-7xl"">+</div>","null","fixation","","","","","",""
"","448","html-keynbutton-response","106","2.0.0","697118","11","<div class=""flex flex-row stim-length pb-8 md:pd-20 justify-evenly items-center""><div class=""square""></div><div class=""square""></div><div class=""square""></div></div>","p","","shape_test","match","方","q","false","圆"
"","null","html-keynbutton-response","107","2.0.0","697619","11","<div class=""pb-14 text-7xl"">+</div>","null","fixation","","","","","",""
"","491","html-keynbutton-response","108","2.0.0","698110","11","<div class=""flex flex-row stim-length pb-8 md:pd-20 justify-evenly items-center""><div class=""circle""></div><div class=""circle""></div><div class=""circle""></div></div>","p","","shape_test","match","圆","p","true","圆"
"","null","html-keynbutton-response","109","2.0.0","698611","11","<div class=""pb-14 text-7xl"">+</div>","null","fixation","","","","","",""
"","491","html-keynbutton-response","110","2.0.0","699103","11","<div class=""flex flex-row stim-length pb-8 md:pd-20 justify-evenly items-center""><div class=""circle""></div><div class=""square""></div><div class=""circle""></div></div>","q","","shape_test","mismatch","方","q","true","方"
"","null","html-keynbutton-response","111","2.0.0","699603","11","<div class=""pb-14 text-7xl"">+</div>","null","fixation","","","","","",""
"","395","html-keynbutton-response","112","2.0.0","699999","11","<div class=""flex flex-row stim-length pb-8 md:pd-20 justify-evenly items-center""><div class=""square""></div><div class=""square""></div><div class=""square""></div></div>","q","","shape_test","match","方","q","true","方"
"","null","html-keynbutton-response","113","2.0.0","700510","11","<div class=""pb-14 text-7xl"">+</div>","null","fixation","","","","","",""
"","465","html-keynbutton-response","114","2.0.0","700975","11","<div class=""flex flex-row stim-length pb-8 md:pd-20 justify-evenly items-center""><div class=""square""></div><div class=""circle""></div><div class=""square""></div></div>","p","","shape_test","mismatch","圆","p","true","圆"
"","null","html-keynbutton-response","115","2.0.0","701488","11","<div class=""pb-14 text-7xl"">+</div>","null","fixation","","","","","",""
"","462","html-keynbutton-response","116","2.0.0","701950","11","<div class=""flex flex-row stim-length pb-8 md:pd-20 justify-evenly items-center""><div class=""circle""></div><div class=""circle""></div><div class=""circle""></div></div>","p","","shape_test","match","圆","p","true","圆"
"","null","html-keynbutton-response","117","2.0.0","702460","11","<div class=""pb-14 text-7xl"">+</div>","null","fixation","","","","","",""
"","370","html-keynbutton-response","118","2.0.0","702831","11","<div class=""flex flex-row stim-length pb-8 md:pd-20 justify-evenly items-center""><div class=""square""></div><div class=""square""></div><div class=""square""></div></div>","q","","shape_test","match","方","q","true","方"
"","null","html-keynbutton-response","119","2.0.0","703339","11","<div class=""pb-14 text-7xl"">+</div>","null","fixation","","","","","",""
"","403","html-keynbutton-response","120","2.0.0","703742","11","<div class=""flex flex-row stim-length pb-8 md:pd-20 justify-evenly items-center""><div class=""square""></div><div class=""circle""></div><div class=""square""></div></div>","p","","shape_test","mismatch","圆","p","true","圆"
"","null","html-keynbutton-response","121","2.0.0","704255","11","<div class=""pb-14 text-7xl"">+</div>","null","fixation","","","","","",""
"","415","html-keynbutton-response","122","2.0.0","704670","11","<div class=""flex flex-row stim-length pb-8 md:pd-20 justify-evenly items-center""><div class=""circle""></div><div class=""square""></div><div class=""circle""></div></div>","q","","shape_test","mismatch","方","q","true","方"
"","null","html-keynbutton-response","123","2.0.0","705176","11","<div class=""pb-14 text-7xl"">+</div>","null","fixation","","","","","",""
"","422","html-keynbutton-response","124","2.0.0","705598","11","<div class=""flex flex-row stim-length pb-8 md:pd-20 justify-evenly items-center""><div class=""square""></div><div class=""circle""></div><div class=""square""></div></div>","p","","shape_test","mismatch","圆","p","true","圆"
"","null","html-keynbutton-response","125","2.0.0","706112","11","<div class=""pb-14 text-7xl"">+</div>","null","fixation","","","","","",""
"","430","html-keynbutton-response","126","2.0.0","706543","11","<div class=""flex flex-row stim-length pb-8 md:pd-20 justify-evenly items-center""><div class=""square""></div><div class=""square""></div><div class=""square""></div></div>","q","","shape_test","match","方","q","true","方"
"","null","html-keynbutton-response","127","2.0.0","707058","11","<div class=""pb-14 text-7xl"">+</div>","null","fixation","","","","","",""
"","412","html-keynbutton-response","128","2.0.0","707470","11","<div class=""flex flex-row stim-length pb-8 md:pd-20 justify-evenly items-center""><div class=""circle""></div><div class=""circle""></div><div class=""circle""></div></div>","p","","shape_test","match","圆","p","true","圆"
"","null","html-keynbutton-response","129","2.0.0","707972","11","<div class=""pb-14 text-7xl"">+</div>","null","fixation","","","","","",""
"","491","html-keynbutton-response","130","2.0.0","708463","11","<div class=""flex flex-row stim-length pb-8 md:pd-20 justify-evenly items-center""><div class=""circle""></div><div class=""square""></div><div class=""circle""></div></div>","q","","shape_test","mismatch","方","q","true","方"
"","null","html-keynbutton-response","131","2.0.0","708963","11","<div class=""pb-14 text-7xl"">+</div>","null","fixation","","","","","",""
"","395","html-keynbutton-response","132","2.0.0","709358","11","<div class=""flex flex-row stim-length pb-8 md:pd-20 justify-evenly items-center""><div class=""square""></div><div class=""square""></div><div class=""square""></div></div>","q","","shape_test","match","方","q","true","方"
"","null","html-keynbutton-response","133","2.0.0","709874","11","<div class=""pb-14 text-7xl"">+</div>","null","fixation","","","","","",""
"","396","html-keynbutton-response","134","2.0.0","710271","11","<div class=""flex flex-row stim-length pb-8 md:pd-20 justify-evenly items-center""><div class=""circle""></div><div class=""square""></div><div class=""circle""></div></div>","q","","shape_test","mismatch","方","q","true","方"
"","null","html-keynbutton-response","135","2.0.0","710786","11","<div class=""pb-14 text-7xl"">+</div>","null","fixation","","","","","",""
"","428","html-keynbutton-response","136","2.0.0","711215","11","<div class=""flex flex-row stim-length pb-8 md:pd-20 justify-evenly items-center""><div class=""circle""></div><div class=""circle""></div><div class=""circle""></div></div>","p","","shape_test","match","圆","p","true","圆"
"","null","html-keynbutton-response","137","2.0.0","711716","11","<div class=""pb-14 text-7xl"">+</div>","null","fixation","","","","","",""
"","410","html-keynbutton-response","138","2.0.0","712126","11","<div class=""flex flex-row stim-length pb-8 md:pd-20 justify-evenly items-center""><div class=""square""></div><div class=""circle""></div><div class=""square""></div></div>","p","","shape_test","mismatch","圆","p","true","圆"
"","null","html-keynbutton-response","139","2.0.0","712628","11","<div class=""pb-14 text-7xl"">+</div>","null","fixation","","","","","",""
"","459","html-keynbutton-response","140","2.0.0","713087","11","<div class=""flex flex-row stim-length pb-8 md:pd-20 justify-evenly items-center""><div class=""circle""></div><div class=""circle""></div><div class=""circle""></div></div>","p","","shape_test","match","圆","p","true","圆"
"","null","html-keynbutton-response","141","2.0.0","713588","11","<div class=""pb-14 text-7xl"">+</div>","null","fixation","","","","","",""
"","539","html-keynbutton-response","142","2.0.0","714126","11","<div class=""flex flex-row stim-length pb-8 md:pd-20 justify-evenly items-center""><div class=""square""></div><div class=""square""></div><div class=""square""></div></div>","q","","shape_test","match","方","q","true","方"
"","null","html-keynbutton-response","143","2.0.0","714637","11","<div class=""pb-14 text-7xl"">+</div>","null","fixation","","","","","",""
"","481","html-keynbutton-response","144","2.0.0","715118","11","<div class=""flex flex-row stim-length pb-8 md:pd-20 justify-evenly items-center""><div class=""circle""></div><div class=""square""></div><div class=""circle""></div></div>","q","","shape_test","mismatch","方","q","true","方"
"","null","html-keynbutton-response","145","2.0.0","715620","11","<div class=""pb-14 text-7xl"">+</div>","null","fixation","","","","","",""
"","442","html-keynbutton-response","146","2.0.0","716063","11","<div class=""flex flex-row stim-length pb-8 md:pd-20 justify-evenly items-center""><div class=""square""></div><div class=""circle""></div><div class=""square""></div></div>","p","","shape_test","mismatch","圆","p","true","圆"
"","12080","html-keynbutton-response","147","2.0.0","728148","11","<div class=""jp""><p>您已完成1/10部分</p><p>请休息一会儿</p>
    <p>您的正确率是：98%</p>
    <p>您的平均反应时间是：426毫秒</p></div>"," ","block_feedback","","","","","",""
"","null","html-keynbutton-response","148","2.0.0","731349","11","<count-down title=""""></count-down>","null","countDown_trial","","","","","",""
"","null","html-keynbutton-response","149","2.0.0","731854","11","<div class=""pb-14 text-7xl"">+</div>","null","fixation","","","","","",""
"","373","html-keynbutton-response","150","2.0.0","732228","11","<div class=""flex flex-row stim-length pb-8 md:pd-20 justify-evenly items-center""><div class=""square""></div><div class=""square""></div><div class=""square""></div></div>","q","","shape_test_1","match","方","q","true","方"
"","null","html-keynbutton-response","151","2.0.0","732730","11","<div class=""pb-14 text-7xl"">+</div>","null","fixation","","","","","",""
"","393","html-keynbutton-response","152","2.0.0","733124","11","<div class=""flex flex-row stim-length pb-8 md:pd-20 justify-evenly items-center""><div class=""circle""></div><div class=""square""></div><div class=""circle""></div></div>","q","","shape_test_1","mismatch","方","q","true","方"
"","null","html-keynbutton-response","153","2.0.0","733637","11","<div class=""pb-14 text-7xl"">+</div>","null","fixation","","","","","",""
"","351","html-keynbutton-response","154","2.0.0","733988","11","<div class=""flex flex-row stim-length pb-8 md:pd-20 justify-evenly items-center""><div class=""circle""></div><div class=""circle""></div><div class=""circle""></div></div>","p","","shape_test_1","match","圆","p","true","圆"
"","null","html-keynbutton-response","155","2.0.0","734504","11","<div class=""pb-14 text-7xl"">+</div>","null","fixation","","","","","",""
"","411","html-keynbutton-response","156","2.0.0","734915","11","<div class=""flex flex-row stim-length pb-8 md:pd-20 justify-evenly items-center""><div class=""square""></div><div class=""circle""></div><div class=""square""></div></div>","p","","shape_test_1","mismatch","圆","p","true","圆"
"","null","html-keynbutton-response","157","2.0.0","735417","11","<div class=""pb-14 text-7xl"">+</div>","null","fixation","","","","","",""
"","427","html-keynbutton-response","158","2.0.0","735844","11","<div class=""flex flex-row stim-length pb-8 md:pd-20 justify-evenly items-center""><div class=""circle""></div><div class=""circle""></div><div class=""circle""></div></div>","p","","shape_test_1","match","圆","p","true","圆"
"","null","html-keynbutton-response","159","2.0.0","736346","11","<div class=""pb-14 text-7xl"">+</div>","null","fixation","","","","","",""
"","602","html-keynbutton-response","160","2.0.0","736948","11","<div class=""flex flex-row stim-length pb-8 md:pd-20 justify-evenly items-center""><div class=""square""></div><div class=""circle""></div><div class=""square""></div></div>","p","","shape_test_1","mismatch","圆","p","true","圆"
"","null","html-keynbutton-response","161","2.0.0","737456","11","<div class=""pb-14 text-7xl"">+</div>","null","fixation","","","","","",""
"","468","html-keynbutton-response","162","2.0.0","737924","11","<div class=""flex flex-row stim-length pb-8 md:pd-20 justify-evenly items-center""><div class=""square""></div><div class=""square""></div><div class=""square""></div></div>","q","","shape_test_1","match","方","q","true","方"
"","null","html-keynbutton-response","163","2.0.0","738440","11","<div class=""pb-14 text-7xl"">+</div>","null","fixation","","","","","",""
"","379","html-keynbutton-response","164","2.0.0","738820","11","<div class=""flex flex-row stim-length pb-8 md:pd-20 justify-evenly items-center""><div class=""circle""></div><div class=""square""></div><div class=""circle""></div></div>","q","","shape_test_1","mismatch","方","q","true","方"
"","null","html-keynbutton-response","165","2.0.0","739322","11","<div class=""pb-14 text-7xl"">+</div>","null","fixation","","","","","",""
"","409","html-keynbutton-response","166","2.0.0","739732","11","<div class=""flex flex-row stim-length pb-8 md:pd-20 justify-evenly items-center""><div class=""circle""></div><div class=""square""></div><div class=""circle""></div></div>","q","","shape_test_1","mismatch","方","q","true","方"
"","null","html-keynbutton-response","167","2.0.0","740247","11","<div class=""pb-14 text-7xl"">+</div>","null","fixation","","","","","",""
"","508","html-keynbutton-response","168","2.0.0","740756","11","<div class=""flex flex-row stim-length pb-8 md:pd-20 justify-evenly items-center""><div class=""circle""></div><div class=""circle""></div><div class=""circle""></div></div>","p","","shape_test_1","match","圆","p","true","圆"
"","null","html-keynbutton-response","169","2.0.0","741263","11","<div class=""pb-14 text-7xl"">+</div>","null","fixation","","","","","",""
"","436","html-keynbutton-response","170","2.0.0","741700","11","<div class=""flex flex-row stim-length pb-8 md:pd-20 justify-evenly items-center""><div class=""square""></div><div class=""square""></div><div class=""square""></div></div>","q","","shape_test_1","match","方","q","true","方"
"","null","html-keynbutton-response","171","2.0.0","742208","11","<div class=""pb-14 text-7xl"">+</div>","null","fixation","","","","","",""
"","356","html-keynbutton-response","172","2.0.0","742564","11","<div class=""flex flex-row stim-length pb-8 md:pd-20 justify-evenly items-center""><div class=""square""></div><div class=""circle""></div><div class=""square""></div></div>","p","","shape_test_1","mismatch","圆","p","true","圆"
"","null","html-keynbutton-response","173","2.0.0","743064","11","<div class=""pb-14 text-7xl"">+</div>","null","fixation","","","","","",""
"","539","html-keynbutton-response","174","2.0.0","743604","11","<div class=""flex flex-row stim-length pb-8 md:pd-20 justify-evenly items-center""><div class=""circle""></div><div class=""circle""></div><div class=""circle""></div></div>","p","","shape_test_1","match","圆","p","true","圆"
"","null","html-keynbutton-response","175","2.0.0","744115","11","<div class=""pb-14 text-7xl"">+</div>","null","fixation","","","","","",""
"","401","html-keynbutton-response","176","2.0.0","744516","11","<div class=""flex flex-row stim-length pb-8 md:pd-20 justify-evenly items-center""><div class=""circle""></div><div class=""square""></div><div class=""circle""></div></div>","q","","shape_test_1","mismatch","方","q","true","方"
"","null","html-keynbutton-response","177","2.0.0","745021","11","<div class=""pb-14 text-7xl"">+</div>","null","fixation","","","","","",""
"","407","html-keynbutton-response","178","2.0.0","745428","11","<div class=""flex flex-row stim-length pb-8 md:pd-20 justify-evenly items-center""><div class=""square""></div><div class=""circle""></div><div class=""square""></div></div>","p","","shape_test_1","mismatch","圆","p","true","圆"
"","null","html-keynbutton-response","179","2.0.0","745930","11","<div class=""pb-14 text-7xl"">+</div>","null","fixation","","","","","",""
"","410","html-keynbutton-response","180","2.0.0","746340","11","<div class=""flex flex-row stim-length pb-8 md:pd-20 justify-evenly items-center""><div class=""square""></div><div class=""square""></div><div class=""square""></div></div>","q","","shape_test_1","match","方","q","true","方"
"","null","html-keynbutton-response","181","2.0.0","746846","11","<div class=""pb-14 text-7xl"">+</div>","null","fixation","","","","","",""
"","470","html-keynbutton-response","182","2.0.0","747316","11","<div class=""flex flex-row stim-length pb-8 md:pd-20 justify-evenly items-center""><div class=""circle""></div><div class=""square""></div><div class=""circle""></div></div>","q","","shape_test_1","mismatch","方","q","true","方"
"","null","html-keynbutton-response","183","2.0.0","747829","11","<div class=""pb-14 text-7xl"">+</div>","null","fixation","","","","","",""
"","447","html-keynbutton-response","184","2.0.0","748276","11","<div class=""flex flex-row stim-length pb-8 md:pd-20 justify-evenly items-center""><div class=""square""></div><div class=""circle""></div><div class=""square""></div></div>","p","","shape_test_1","mismatch","圆","p","true","圆"
"","null","html-keynbutton-response","185","2.0.0","748788","11","<div class=""pb-14 text-7xl"">+</div>","null","fixation","","","","","",""
"","384","html-keynbutton-response","186","2.0.0","749172","11","<div class=""flex flex-row stim-length pb-8 md:pd-20 justify-evenly items-center""><div class=""square""></div><div class=""square""></div><div class=""square""></div></div>","q","","shape_test_1","match","方","q","true","方"
"","null","html-keynbutton-response","187","2.0.0","749683","11","<div class=""pb-14 text-7xl"">+</div>","null","fixation","","","","","",""
"","433","html-keynbutton-response","188","2.0.0","750116","11","<div class=""flex flex-row stim-length pb-8 md:pd-20 justify-evenly items-center""><div class=""circle""></div><div class=""circle""></div><div class=""circle""></div></div>","p","","shape_test_1","match","圆","p","true","圆"
"","null","html-keynbutton-response","189","2.0.0","750617","11","<div class=""pb-14 text-7xl"">+</div>","null","fixation","","","","","",""
"","427","html-keynbutton-response","190","2.0.0","751044","11","<div class=""flex flex-row stim-length pb-8 md:pd-20 justify-evenly items-center""><div class=""square""></div><div class=""square""></div><div class=""square""></div></div>","q","","shape_test_1","match","方","q","true","方"
"","null","html-keynbutton-response","191","2.0.0","751545","11","<div class=""pb-14 text-7xl"">+</div>","null","fixation","","","","","",""
"","426","html-keynbutton-response","192","2.0.0","751972","11","<div class=""flex flex-row stim-length pb-8 md:pd-20 justify-evenly items-center""><div class=""circle""></div><div class=""square""></div><div class=""circle""></div></div>","q","","shape_test_1","mismatch","方","q","true","方"
"","null","html-keynbutton-response","193","2.0.0","752485","11","<div class=""pb-14 text-7xl"">+</div>","null","fixation","","","","","",""
"","447","html-keynbutton-response","194","2.0.0","752932","11","<div class=""flex flex-row stim-length pb-8 md:pd-20 justify-evenly items-center""><div class=""circle""></div><div class=""circle""></div><div class=""circle""></div></div>","p","","shape_test_1","match","圆","p","true","圆"
"","null","html-keynbutton-response","195","2.0.0","753441","11","<div class=""pb-14 text-7xl"">+</div>","null","fixation","","","","","",""
"","435","html-keynbutton-response","196","2.0.0","753876","11","<div class=""flex flex-row stim-length pb-8 md:pd-20 justify-evenly items-center""><div class=""square""></div><div class=""circle""></div><div class=""square""></div></div>","p","","shape_test_1","mismatch","圆","p","true","圆"
"","null","html-keynbutton-response","197","2.0.0","754381","11","<div class=""pb-14 text-7xl"">+</div>","null","fixation","","","","","",""
"","439","html-keynbutton-response","198","2.0.0","754820","11","<div class=""flex flex-row stim-length pb-8 md:pd-20 justify-evenly items-center""><div class=""square""></div><div class=""circle""></div><div class=""square""></div></div>","p","","shape_test_1","mismatch","圆","p","true","圆"
"","null","html-keynbutton-response","199","2.0.0","755323","11","<div class=""pb-14 text-7xl"">+</div>","null","fixation","","","","","",""
"","409","html-keynbutton-response","200","2.0.0","755732","11","<div class=""flex flex-row stim-length pb-8 md:pd-20 justify-evenly items-center""><div class=""circle""></div><div class=""square""></div><div class=""circle""></div></div>","q","","shape_test_1","mismatch","方","q","true","方"
"","null","html-keynbutton-response","201","2.0.0","756248","11","<div class=""pb-14 text-7xl"">+</div>","null","fixation","","","","","",""
"","412","html-keynbutton-response","202","2.0.0","756660","11","<div class=""flex flex-row stim-length pb-8 md:pd-20 justify-evenly items-center""><div class=""square""></div><div class=""square""></div><div class=""square""></div></div>","q","","shape_test_1","match","方","q","true","方"
"","null","html-keynbutton-response","203","2.0.0","757162","11","<div class=""pb-14 text-7xl"">+</div>","null","fixation","","","","","",""
"","425","html-keynbutton-response","204","2.0.0","757588","11","<div class=""flex flex-row stim-length pb-8 md:pd-20 justify-evenly items-center""><div class=""circle""></div><div class=""circle""></div><div class=""circle""></div></div>","p","","shape_test_1","match","圆","p","true","圆"
"","null","html-keynbutton-response","205","2.0.0","758100","11","<div class=""pb-14 text-7xl"">+</div>","null","fixation","","","","","",""
"","447","html-keynbutton-response","206","2.0.0","758548","11","<div class=""flex flex-row stim-length pb-8 md:pd-20 justify-evenly items-center""><div class=""circle""></div><div class=""circle""></div><div class=""circle""></div></div>","p","","shape_test_1","match","圆","p","true","圆"
"","null","html-keynbutton-response","207","2.0.0","759048","11","<div class=""pb-14 text-7xl"">+</div>","null","fixation","","","","","",""
"","443","html-keynbutton-response","208","2.0.0","759492","11","<div class=""flex flex-row stim-length pb-8 md:pd-20 justify-evenly items-center""><div class=""square""></div><div class=""circle""></div><div class=""square""></div></div>","p","","shape_test_1","mismatch","圆","p","true","圆"
"","null","html-keynbutton-response","209","2.0.0","759993","11","<div class=""pb-14 text-7xl"">+</div>","null","fixation","","","","","",""
"","395","html-keynbutton-response","210","2.0.0","760388","11","<div class=""flex flex-row stim-length pb-8 md:pd-20 justify-evenly items-center""><div class=""circle""></div><div class=""square""></div><div class=""circle""></div></div>","q","","shape_test_1","mismatch","方","q","true","方"
"","null","html-keynbutton-response","211","2.0.0","760899","11","<div class=""pb-14 text-7xl"">+</div>","null","fixation","","","","","",""
"","513","html-keynbutton-response","212","2.0.0","761412","11","<div class=""flex flex-row stim-length pb-8 md:pd-20 justify-evenly items-center""><div class=""square""></div><div class=""square""></div><div class=""square""></div></div>","q","","shape_test_1","match","方","q","true","方"
"","null","html-keynbutton-response","213","2.0.0","761921","11","<div class=""pb-14 text-7xl"">+</div>","null","fixation","","","","","",""
"","403","html-keynbutton-response","214","2.0.0","762324","11","<div class=""flex flex-row stim-length pb-8 md:pd-20 justify-evenly items-center""><div class=""square""></div><div class=""circle""></div><div class=""square""></div></div>","p","","shape_test_1","mismatch","圆","p","true","圆"
"","null","html-keynbutton-response","215","2.0.0","762832","11","<div class=""pb-14 text-7xl"">+</div>","null","fixation","","","","","",""
"","451","html-keynbutton-response","216","2.0.0","763284","11","<div class=""flex flex-row stim-length pb-8 md:pd-20 justify-evenly items-center""><div class=""circle""></div><div class=""square""></div><div class=""circle""></div></div>","q","","shape_test_1","mismatch","方","q","true","方"
"","null","html-keynbutton-response","217","2.0.0","763786","11","<div class=""pb-14 text-7xl"">+</div>","null","fixation","","","","","",""
"","474","html-keynbutton-response","218","2.0.0","764260","11","<div class=""flex flex-row stim-length pb-8 md:pd-20 justify-evenly items-center""><div class=""square""></div><div class=""square""></div><div class=""square""></div></div>","q","","shape_test_1","match","方","q","true","方"
"","null","html-keynbutton-response","219","2.0.0","764760","11","<div class=""pb-14 text-7xl"">+</div>","null","fixation","","","","","",""
"","379","html-keynbutton-response","220","2.0.0","765140","11","<div class=""flex flex-row stim-length pb-8 md:pd-20 justify-evenly items-center""><div class=""circle""></div><div class=""circle""></div><div class=""circle""></div></div>","p","","shape_test_1","match","圆","p","true","圆"
"","null","html-keynbutton-response","221","2.0.0","765649","11","<div class=""pb-14 text-7xl"">+</div>","null","fixation","","","","","",""
"","418","html-keynbutton-response","222","2.0.0","766068","11","<div class=""flex flex-row stim-length pb-8 md:pd-20 justify-evenly items-center""><div class=""square""></div><div class=""circle""></div><div class=""square""></div></div>","p","","shape_test_1","mismatch","圆","p","true","圆"
"","null","html-keynbutton-response","223","2.0.0","766575","11","<div class=""pb-14 text-7xl"">+</div>","null","fixation","","","","","",""
"","437","html-keynbutton-response","224","2.0.0","767012","11","<div class=""flex flex-row stim-length pb-8 md:pd-20 justify-evenly items-center""><div class=""circle""></div><div class=""circle""></div><div class=""circle""></div></div>","p","","shape_test_1","match","圆","p","true","圆"
"","null","html-keynbutton-response","225","2.0.0","767513","11","<div class=""pb-14 text-7xl"">+</div>","null","fixation","","","","","",""
"","363","html-keynbutton-response","226","2.0.0","767876","11","<div class=""flex flex-row stim-length pb-8 md:pd-20 justify-evenly items-center""><div class=""circle""></div><div class=""square""></div><div class=""circle""></div></div>","q","","shape_test_1","mismatch","方","q","true","方"
"","null","html-keynbutton-response","227","2.0.0","768382","11","<div class=""pb-14 text-7xl"">+</div>","null","fixation","","","","","",""
"","470","html-keynbutton-response","228","2.0.0","768852","11","<div class=""flex flex-row stim-length pb-8 md:pd-20 justify-evenly items-center""><div class=""square""></div><div class=""square""></div><div class=""square""></div></div>","q","","shape_test_1","match","方","q","true","方"
"","9888","html-keynbutton-response","229","2.0.0","778740","11","<div class=""jp""><p>您已完成2/10部分</p><p>请休息一会儿</p>
    <p>您的正确率是：100%</p>
    <p>您的平均反应时间是：430毫秒</p></div>"," ","block_feedback","","","","","",""
"","null","html-keynbutton-response","230","2.0.0","781950","11","<count-down title=""""></count-down>","null","countDown_trial","","","","","",""
"","null","html-keynbutton-response","231","2.0.0","782454","11","<div class=""pb-14 text-7xl"">+</div>","null","fixation","","","","","",""
"","606","html-keynbutton-response","232","2.0.0","783060","11","<div class=""flex flex-row stim-length pb-8 md:pd-20 justify-evenly items-center""><div class=""square""></div><div class=""circle""></div><div class=""square""></div></div>","p","","shape_test_2","mismatch","圆","p","true","圆"
"","null","html-keynbutton-response","233","2.0.0","783574","11","<div class=""pb-14 text-7xl"">+</div>","null","fixation","","","","","",""
"","413","html-keynbutton-response","234","2.0.0","783988","11","<div class=""flex flex-row stim-length pb-8 md:pd-20 justify-evenly items-center""><div class=""circle""></div><div class=""square""></div><div class=""circle""></div></div>","q","","shape_test_2","mismatch","方","q","true","方"
"","null","html-keynbutton-response","235","2.0.0","784489","11","<div class=""pb-14 text-7xl"">+</div>","null","fixation","","","","","",""
"","459","html-keynbutton-response","236","2.0.0","784948","11","<div class=""flex flex-row stim-length pb-8 md:pd-20 justify-evenly items-center""><div class=""circle""></div><div class=""circle""></div><div class=""circle""></div></div>","p","","shape_test_2","match","圆","p","true","圆"
"","null","html-keynbutton-response","237","2.0.0","785449","11","<div class=""pb-14 text-7xl"">+</div>","null","fixation","","","","","",""
"","459","html-keynbutton-response","238","2.0.0","785908","11","<div class=""flex flex-row stim-length pb-8 md:pd-20 justify-evenly items-center""><div class=""square""></div><div class=""square""></div><div class=""square""></div></div>","q","","shape_test_2","match","方","q","true","方"
"","null","html-keynbutton-response","239","2.0.0","786415","11","<div class=""pb-14 text-7xl"">+</div>","null","fixation","","","","","",""
"","869","html-keynbutton-response","240","2.0.0","787284","11","<div class=""flex flex-row stim-length pb-8 md:pd-20 justify-evenly items-center""><div class=""circle""></div><div class=""circle""></div><div class=""circle""></div></div>","p","","shape_test_2","match","圆","p","true","圆"
"","null","html-keynbutton-response","241","2.0.0","787792","11","<div class=""pb-14 text-7xl"">+</div>","null","fixation","","","","","",""
"","451","html-keynbutton-response","242","2.0.0","788235","11","<div class=""flex flex-row stim-length pb-8 md:pd-20 justify-evenly items-center""><div class=""circle""></div><div class=""square""></div><div class=""circle""></div></div>","q","","shape_test_2","mismatch","方","q","true","方"
"","null","html-keynbutton-response","243","2.0.0","788737","11","<div class=""pb-14 text-7xl"">+</div>","null","fixation","","","","","",""
"","442","html-keynbutton-response","244","2.0.0","789179","11","<div class=""flex flex-row stim-length pb-8 md:pd-20 justify-evenly items-center""><div class=""square""></div><div class=""circle""></div><div class=""square""></div></div>","p","","shape_test_2","mismatch","圆","p","true","圆"
"","null","html-keynbutton-response","245","2.0.0","789682","11","<div class=""pb-14 text-7xl"">+</div>","null","fixation","","","","","",""
"","537","html-keynbutton-response","246","2.0.0","790219","11","<div class=""flex flex-row stim-length pb-8 md:pd-20 justify-evenly items-center""><div class=""square""></div><div class=""square""></div><div class=""square""></div></div>","q","","shape_test_2","match","方","q","true","方"
"","null","html-keynbutton-response","247","2.0.0","790720","11","<div class=""pb-14 text-7xl"">+</div>","null","fixation","","","","","",""
"","379","html-keynbutton-response","248","2.0.0","791099","11","<div class=""flex flex-row stim-length pb-8 md:pd-20 justify-evenly items-center""><div class=""circle""></div><div class=""circle""></div><div class=""circle""></div></div>","p","","shape_test_2","match","圆","p","true","圆"
"","null","html-keynbutton-response","249","2.0.0","791600","11","<div class=""pb-14 text-7xl"">+</div>","null","fixation","","","","","",""
"","395","html-keynbutton-response","250","2.0.0","791995","11","<div class=""flex flex-row stim-length pb-8 md:pd-20 justify-evenly items-center""><div class=""square""></div><div class=""circle""></div><div class=""square""></div></div>","p","","shape_test_2","mismatch","圆","p","true","圆"
"","null","html-keynbutton-response","251","2.0.0","792496","11","<div class=""pb-14 text-7xl"">+</div>","null","fixation","","","","","",""
"","411","html-keynbutton-response","252","2.0.0","792907","11","<div class=""flex flex-row stim-length pb-8 md:pd-20 justify-evenly items-center""><div class=""square""></div><div class=""square""></div><div class=""square""></div></div>","q","","shape_test_2","match","方","q","true","方"
"","null","html-keynbutton-response","253","2.0.0","793409","11","<div class=""pb-14 text-7xl"">+</div>","null","fixation","","","","","",""
"","394","html-keynbutton-response","254","2.0.0","793803","11","<div class=""flex flex-row stim-length pb-8 md:pd-20 justify-evenly items-center""><div class=""circle""></div><div class=""square""></div><div class=""circle""></div></div>","q","","shape_test_2","mismatch","方","q","true","方"
"","null","html-keynbutton-response","255","2.0.0","794304","11","<div class=""pb-14 text-7xl"">+</div>","null","fixation","","","","","",""
"","443","html-keynbutton-response","256","2.0.0","794747","11","<div class=""flex flex-row stim-length pb-8 md:pd-20 justify-evenly items-center""><div class=""square""></div><div class=""square""></div><div class=""square""></div></div>","q","","shape_test_2","match","方","q","true","方"
"","null","html-keynbutton-response","257","2.0.0","795263","11","<div class=""pb-14 text-7xl"">+</div>","null","fixation","","","","","",""
"","363","html-keynbutton-response","258","2.0.0","795627","11","<div class=""flex flex-row stim-length pb-8 md:pd-20 justify-evenly items-center""><div class=""circle""></div><div class=""circle""></div><div class=""circle""></div></div>","p","","shape_test_2","match","圆","p","true","圆"
"","null","html-keynbutton-response","259","2.0.0","796130","11","<div class=""pb-14 text-7xl"">+</div>","null","fixation","","","","","",""
"","409","html-keynbutton-response","260","2.0.0","796539","11","<div class=""flex flex-row stim-length pb-8 md:pd-20 justify-evenly items-center""><div class=""circle""></div><div class=""square""></div><div class=""circle""></div></div>","q","","shape_test_2","mismatch","方","q","true","方"
"","null","html-keynbutton-response","261","2.0.0","797040","11","<div class=""pb-14 text-7xl"">+</div>","null","fixation","","","","","",""
"","363","html-keynbutton-response","262","2.0.0","797403","11","<div class=""flex flex-row stim-length pb-8 md:pd-20 justify-evenly items-center""><div class=""square""></div><div class=""circle""></div><div class=""square""></div></div>","p","","shape_test_2","mismatch","圆","p","true","圆"
"","null","html-keynbutton-response","263","2.0.0","797908","11","<div class=""pb-14 text-7xl"">+</div>","null","fixation","","","","","",""
"","391","html-keynbutton-response","264","2.0.0","798299","11","<div class=""flex flex-row stim-length pb-8 md:pd-20 justify-evenly items-center""><div class=""circle""></div><div class=""square""></div><div class=""circle""></div></div>","q","","shape_test_2","mismatch","方","q","true","方"
"","null","html-keynbutton-response","265","2.0.0","798807","11","<div class=""pb-14 text-7xl"">+</div>","null","fixation","","","","","",""
"","387","html-keynbutton-response","266","2.0.0","799195","11","<div class=""flex flex-row stim-length pb-8 md:pd-20 justify-evenly items-center""><div class=""square""></div><div class=""circle""></div><div class=""square""></div></div>","p","","shape_test_2","mismatch","圆","p","true","圆"
"","null","html-keynbutton-response","267","2.0.0","799710","11","<div class=""pb-14 text-7xl"">+</div>","null","fixation","","","","","",""
"","460","html-keynbutton-response","268","2.0.0","800171","11","<div class=""flex flex-row stim-length pb-8 md:pd-20 justify-evenly items-center""><div class=""circle""></div><div class=""circle""></div><div class=""circle""></div></div>","p","","shape_test_2","match","圆","p","true","圆"
"","null","html-keynbutton-response","269","2.0.0","800685","11","<div class=""pb-14 text-7xl"">+</div>","null","fixation","","","","","",""
"","414","html-keynbutton-response","270","2.0.0","801099","11","<div class=""flex flex-row stim-length pb-8 md:pd-20 justify-evenly items-center""><div class=""square""></div><div class=""square""></div><div class=""square""></div></div>","q","","shape_test_2","match","方","q","true","方"
"","null","html-keynbutton-response","271","2.0.0","801615","11","<div class=""pb-14 text-7xl"">+</div>","null","fixation","","","","","",""
"","459","html-keynbutton-response","272","2.0.0","802075","11","<div class=""flex flex-row stim-length pb-8 md:pd-20 justify-evenly items-center""><div class=""circle""></div><div class=""square""></div><div class=""circle""></div></div>","q","","shape_test_2","mismatch","方","q","true","方"
"","null","html-keynbutton-response","273","2.0.0","802591","11","<div class=""pb-14 text-7xl"">+</div>","null","fixation","","","","","",""
"","412","html-keynbutton-response","274","2.0.0","803003","11","<div class=""flex flex-row stim-length pb-8 md:pd-20 justify-evenly items-center""><div class=""square""></div><div class=""circle""></div><div class=""square""></div></div>","p","","shape_test_2","mismatch","圆","p","true","圆"
"","null","html-keynbutton-response","275","2.0.0","803504","11","<div class=""pb-14 text-7xl"">+</div>","null","fixation","","","","","",""
"","427","html-keynbutton-response","276","2.0.0","803931","11","<div class=""flex flex-row stim-length pb-8 md:pd-20 justify-evenly items-center""><div class=""square""></div><div class=""square""></div><div class=""square""></div></div>","q","","shape_test_2","match","方","q","true","方"
"","null","html-keynbutton-response","277","2.0.0","804432","11","<div class=""pb-14 text-7xl"">+</div>","null","fixation","","","","","",""
"","331","html-keynbutton-response","278","2.0.0","804763","11","<div class=""flex flex-row stim-length pb-8 md:pd-20 justify-evenly items-center""><div class=""circle""></div><div class=""circle""></div><div class=""circle""></div></div>","p","","shape_test_2","match","圆","p","true","圆"
"","null","html-keynbutton-response","279","2.0.0","805264","11","<div class=""pb-14 text-7xl"">+</div>","null","fixation","","","","","",""
"","426","html-keynbutton-response","280","2.0.0","805691","11","<div class=""flex flex-row stim-length pb-8 md:pd-20 justify-evenly items-center""><div class=""square""></div><div class=""circle""></div><div class=""square""></div></div>","p","","shape_test_2","mismatch","圆","p","true","圆"
"","null","html-keynbutton-response","281","2.0.0","806195","11","<div class=""pb-14 text-7xl"">+</div>","null","fixation","","","","","",""
"","424","html-keynbutton-response","282","2.0.0","806619","11","<div class=""flex flex-row stim-length pb-8 md:pd-20 justify-evenly items-center""><div class=""square""></div><div class=""square""></div><div class=""square""></div></div>","q","","shape_test_2","match","方","q","true","方"
"","null","html-keynbutton-response","283","2.0.0","807133","11","<div class=""pb-14 text-7xl"">+</div>","null","fixation","","","","","",""
"","382","html-keynbutton-response","284","2.0.0","807515","11","<div class=""flex flex-row stim-length pb-8 md:pd-20 justify-evenly items-center""><div class=""circle""></div><div class=""square""></div><div class=""circle""></div></div>","q","","shape_test_2","mismatch","方","q","true","方"
"","null","html-keynbutton-response","285","2.0.0","808022","11","<div class=""pb-14 text-7xl"">+</div>","null","fixation","","","","","",""
"","469","html-keynbutton-response","286","2.0.0","808491","11","<div class=""flex flex-row stim-length pb-8 md:pd-20 justify-evenly items-center""><div class=""circle""></div><div class=""circle""></div><div class=""circle""></div></div>","p","","shape_test_2","match","圆","p","true","圆"
"","null","html-keynbutton-response","287","2.0.0","808996","11","<div class=""pb-14 text-7xl"">+</div>","null","fixation","","","","","",""
"","407","html-keynbutton-response","288","2.0.0","809403","11","<div class=""flex flex-row stim-length pb-8 md:pd-20 justify-evenly items-center""><div class=""square""></div><div class=""circle""></div><div class=""square""></div></div>","p","","shape_test_2","mismatch","圆","p","true","圆"
"","null","html-keynbutton-response","289","2.0.0","809916","11","<div class=""pb-14 text-7xl"">+</div>","null","fixation","","","","","",""
"","606","html-keynbutton-response","290","2.0.0","810523","11","<div class=""flex flex-row stim-length pb-8 md:pd-20 justify-evenly items-center""><div class=""circle""></div><div class=""circle""></div><div class=""circle""></div></div>","p","","shape_test_2","match","圆","p","true","圆"
"","null","html-keynbutton-response","291","2.0.0","811038","11","<div class=""pb-14 text-7xl"">+</div>","null","fixation","","","","","",""
"","381","html-keynbutton-response","292","2.0.0","811419","11","<div class=""flex flex-row stim-length pb-8 md:pd-20 justify-evenly items-center""><div class=""square""></div><div class=""square""></div><div class=""square""></div></div>","q","","shape_test_2","match","方","q","true","方"
"","null","html-keynbutton-response","293","2.0.0","811933","11","<div class=""pb-14 text-7xl"">+</div>","null","fixation","","","","","",""
"","398","html-keynbutton-response","294","2.0.0","812331","11","<div class=""flex flex-row stim-length pb-8 md:pd-20 justify-evenly items-center""><div class=""circle""></div><div class=""square""></div><div class=""circle""></div></div>","q","","shape_test_2","mismatch","方","q","true","方"
"","null","html-keynbutton-response","295","2.0.0","812832","11","<div class=""pb-14 text-7xl"">+</div>","null","fixation","","","","","",""
"","443","html-keynbutton-response","296","2.0.0","813275","11","<div class=""flex flex-row stim-length pb-8 md:pd-20 justify-evenly items-center""><div class=""square""></div><div class=""square""></div><div class=""square""></div></div>","q","","shape_test_2","match","方","q","true","方"
"","null","html-keynbutton-response","297","2.0.0","813776","11","<div class=""pb-14 text-7xl"">+</div>","null","fixation","","","","","",""
"","347","html-keynbutton-response","298","2.0.0","814123","11","<div class=""flex flex-row stim-length pb-8 md:pd-20 justify-evenly items-center""><div class=""circle""></div><div class=""circle""></div><div class=""circle""></div></div>","p","","shape_test_2","match","圆","p","true","圆"
"","null","html-keynbutton-response","299","2.0.0","814628","11","<div class=""pb-14 text-7xl"">+</div>","null","fixation","","","","","",""
"","439","html-keynbutton-response","300","2.0.0","815067","11","<div class=""flex flex-row stim-length pb-8 md:pd-20 justify-evenly items-center""><div class=""square""></div><div class=""circle""></div><div class=""square""></div></div>","p","","shape_test_2","mismatch","圆","p","true","圆"
"","null","html-keynbutton-response","301","2.0.0","815581","11","<div class=""pb-14 text-7xl"">+</div>","null","fixation","","","","","",""
"","526","html-keynbutton-response","302","2.0.0","816107","11","<div class=""flex flex-row stim-length pb-8 md:pd-20 justify-evenly items-center""><div class=""circle""></div><div class=""square""></div><div class=""circle""></div></div>","q","","shape_test_2","mismatch","方","q","true","方"
"","null","html-keynbutton-response","303","2.0.0","816613","11","<div class=""pb-14 text-7xl"">+</div>","null","fixation","","","","","",""
"","550","html-keynbutton-response","304","2.0.0","817163","11","<div class=""flex flex-row stim-length pb-8 md:pd-20 justify-evenly items-center""><div class=""circle""></div><div class=""circle""></div><div class=""circle""></div></div>","p","","shape_test_2","match","圆","p","true","圆"
"","null","html-keynbutton-response","305","2.0.0","817667","11","<div class=""pb-14 text-7xl"">+</div>","null","fixation","","","","","",""
"","408","html-keynbutton-response","306","2.0.0","818075","11","<div class=""flex flex-row stim-length pb-8 md:pd-20 justify-evenly items-center""><div class=""square""></div><div class=""circle""></div><div class=""square""></div></div>","p","","shape_test_2","mismatch","圆","p","true","圆"
"","null","html-keynbutton-response","307","2.0.0","818576","11","<div class=""pb-14 text-7xl"">+</div>","null","fixation","","","","","",""
"","427","html-keynbutton-response","308","2.0.0","819003","11","<div class=""flex flex-row stim-length pb-8 md:pd-20 justify-evenly items-center""><div class=""square""></div><div class=""square""></div><div class=""square""></div></div>","q","","shape_test_2","match","方","q","true","方"
"","null","html-keynbutton-response","309","2.0.0","819504","11","<div class=""pb-14 text-7xl"">+</div>","null","fixation","","","","","",""
"","427","html-keynbutton-response","310","2.0.0","819931","11","<div class=""flex flex-row stim-length pb-8 md:pd-20 justify-evenly items-center""><div class=""circle""></div><div class=""square""></div><div class=""circle""></div></div>","q","","shape_test_2","mismatch","方","q","true","方"
"","5295","html-keynbutton-response","311","2.0.0","825227","11","<div class=""jp""><p>您已完成3/10部分</p><p>请休息一会儿</p>
    <p>您的正确率是：100%</p>
    <p>您的平均反应时间是：443毫秒</p></div>"," ","block_feedback","","","","","",""
"","null","html-keynbutton-response","312","2.0.0","828441","11","<count-down title=""""></count-down>","null","countDown_trial","","","","","",""
"","null","html-keynbutton-response","313","2.0.0","828946","11","<div class=""pb-14 text-7xl"">+</div>","null","fixation","","","","","",""
"","425","html-keynbutton-response","314","2.0.0","829371","11","<div class=""flex flex-row stim-length pb-8 md:pd-20 justify-evenly items-center""><div class=""square""></div><div class=""circle""></div><div class=""square""></div></div>","p","","shape_test_3","mismatch","圆","p","true","圆"
"","null","html-keynbutton-response","315","2.0.0","829873","11","<div class=""pb-14 text-7xl"">+</div>","null","fixation","","","","","",""
"","426","html-keynbutton-response","316","2.0.0","830299","11","<div class=""flex flex-row stim-length pb-8 md:pd-20 justify-evenly items-center""><div class=""circle""></div><div class=""square""></div><div class=""circle""></div></div>","q","","shape_test_3","mismatch","方","q","true","方"
"","null","html-keynbutton-response","317","2.0.0","830812","11","<div class=""pb-14 text-7xl"">+</div>","null","fixation","","","","","",""
"","431","html-keynbutton-response","318","2.0.0","831243","11","<div class=""flex flex-row stim-length pb-8 md:pd-20 justify-evenly items-center""><div class=""circle""></div><div class=""circle""></div><div class=""circle""></div></div>","p","","shape_test_3","match","圆","p","true","圆"
"","null","html-keynbutton-response","319","2.0.0","831753","11","<div class=""pb-14 text-7xl"">+</div>","null","fixation","","","","","",""
"","466","html-keynbutton-response","320","2.0.0","832219","11","<div class=""flex flex-row stim-length pb-8 md:pd-20 justify-evenly items-center""><div class=""square""></div><div class=""square""></div><div class=""square""></div></div>","q","","shape_test_3","match","方","q","true","方"
"","null","html-keynbutton-response","321","2.0.0","832720","11","<div class=""pb-14 text-7xl"">+</div>","null","fixation","","","","","",""
"","459","html-keynbutton-response","322","2.0.0","833179","11","<div class=""flex flex-row stim-length pb-8 md:pd-20 justify-evenly items-center""><div class=""circle""></div><div class=""circle""></div><div class=""circle""></div></div>","p","","shape_test_3","match","圆","p","true","圆"
"","null","html-keynbutton-response","323","2.0.0","833695","11","<div class=""pb-14 text-7xl"">+</div>","null","fixation","","","","","",""
"","412","html-keynbutton-response","324","2.0.0","834107","11","<div class=""flex flex-row stim-length pb-8 md:pd-20 justify-evenly items-center""><div class=""square""></div><div class=""circle""></div><div class=""square""></div></div>","p","","shape_test_3","mismatch","圆","p","true","圆"
"","null","html-keynbutton-response","325","2.0.0","834621","11","<div class=""pb-14 text-7xl"">+</div>","null","fixation","","","","","",""
"","445","html-keynbutton-response","326","2.0.0","835067","11","<div class=""flex flex-row stim-length pb-8 md:pd-20 justify-evenly items-center""><div class=""circle""></div><div class=""square""></div><div class=""circle""></div></div>","q","","shape_test_3","mismatch","方","q","true","方"
"","null","html-keynbutton-response","327","2.0.0","835568","11","<div class=""pb-14 text-7xl"">+</div>","null","fixation","","","","","",""
"","475","html-keynbutton-response","328","2.0.0","836043","11","<div class=""flex flex-row stim-length pb-8 md:pd-20 justify-evenly items-center""><div class=""square""></div><div class=""square""></div><div class=""square""></div></div>","q","","shape_test_3","match","方","q","true","方"
"","null","html-keynbutton-response","329","2.0.0","836544","11","<div class=""pb-14 text-7xl"">+</div>","null","fixation","","","","","",""
"","395","html-keynbutton-response","330","2.0.0","836939","11","<div class=""flex flex-row stim-length pb-8 md:pd-20 justify-evenly items-center""><div class=""circle""></div><div class=""circle""></div><div class=""circle""></div></div>","p","","shape_test_3","match","圆","p","true","圆"
"","null","html-keynbutton-response","331","2.0.0","837454","11","<div class=""pb-14 text-7xl"">+</div>","null","fixation","","","","","",""
"","429","html-keynbutton-response","332","2.0.0","837883","11","<div class=""flex flex-row stim-length pb-8 md:pd-20 justify-evenly items-center""><div class=""square""></div><div class=""circle""></div><div class=""square""></div></div>","p","","shape_test_3","mismatch","圆","p","true","圆"
"","null","html-keynbutton-response","333","2.0.0","838386","11","<div class=""pb-14 text-7xl"">+</div>","null","fixation","","","","","",""
"","392","html-keynbutton-response","334","2.0.0","838779","11","<div class=""flex flex-row stim-length pb-8 md:pd-20 justify-evenly items-center""><div class=""circle""></div><div class=""square""></div><div class=""circle""></div></div>","q","","shape_test_3","mismatch","方","q","true","方"
"","null","html-keynbutton-response","335","2.0.0","839280","11","<div class=""pb-14 text-7xl"">+</div>","null","fixation","","","","","",""
"","538","html-keynbutton-response","336","2.0.0","839819","11","<div class=""flex flex-row stim-length pb-8 md:pd-20 justify-evenly items-center""><div class=""square""></div><div class=""square""></div><div class=""square""></div></div>","q","","shape_test_3","match","方","q","true","方"
"","null","html-keynbutton-response","337","2.0.0","840333","11","<div class=""pb-14 text-7xl"">+</div>","null","fixation","","","","","",""
"","382","html-keynbutton-response","338","2.0.0","840715","11","<div class=""flex flex-row stim-length pb-8 md:pd-20 justify-evenly items-center""><div class=""square""></div><div class=""circle""></div><div class=""square""></div></div>","p","","shape_test_3","mismatch","圆","p","true","圆"
"","null","html-keynbutton-response","339","2.0.0","841220","11","<div class=""pb-14 text-7xl"">+</div>","null","fixation","","","","","",""
"","423","html-keynbutton-response","340","2.0.0","841643","11","<div class=""flex flex-row stim-length pb-8 md:pd-20 justify-evenly items-center""><div class=""circle""></div><div class=""square""></div><div class=""circle""></div></div>","q","","shape_test_3","mismatch","方","q","true","方"
"","null","html-keynbutton-response","341","2.0.0","842157","11","<div class=""pb-14 text-7xl"">+</div>","null","fixation","","","","","",""
"","526","html-keynbutton-response","342","2.0.0","842683","11","<div class=""flex flex-row stim-length pb-8 md:pd-20 justify-evenly items-center""><div class=""square""></div><div class=""square""></div><div class=""square""></div></div>","q","","shape_test_3","match","方","q","true","方"
"","null","html-keynbutton-response","343","2.0.0","843191","11","<div class=""pb-14 text-7xl"">+</div>","null","fixation","","","","","",""
"","452","html-keynbutton-response","344","2.0.0","843643","11","<div class=""flex flex-row stim-length pb-8 md:pd-20 justify-evenly items-center""><div class=""circle""></div><div class=""circle""></div><div class=""circle""></div></div>","p","","shape_test_3","match","圆","p","true","圆"
"","null","html-keynbutton-response","345","2.0.0","844150","11","<div class=""pb-14 text-7xl"">+</div>","null","fixation","","","","","",""
"","389","html-keynbutton-response","346","2.0.0","844539","11","<div class=""flex flex-row stim-length pb-8 md:pd-20 justify-evenly items-center""><div class=""circle""></div><div class=""circle""></div><div class=""circle""></div></div>","p","","shape_test_3","match","圆","p","true","圆"
"","null","html-keynbutton-response","347","2.0.0","845044","11","<div class=""pb-14 text-7xl"">+</div>","null","fixation","","","","","",""
"","471","html-keynbutton-response","348","2.0.0","845515","11","<div class=""flex flex-row stim-length pb-8 md:pd-20 justify-evenly items-center""><div class=""circle""></div><div class=""square""></div><div class=""circle""></div></div>","q","","shape_test_3","mismatch","方","q","true","方"
"","null","html-keynbutton-response","349","2.0.0","846017","11","<div class=""pb-14 text-7xl"">+</div>","null","fixation","","","","","",""
"","442","html-keynbutton-response","350","2.0.0","846459","11","<div class=""flex flex-row stim-length pb-8 md:pd-20 justify-evenly items-center""><div class=""square""></div><div class=""square""></div><div class=""square""></div></div>","q","","shape_test_3","match","方","q","true","方"
"","null","html-keynbutton-response","351","2.0.0","846961","11","<div class=""pb-14 text-7xl"">+</div>","null","fixation","","","","","",""
"","394","html-keynbutton-response","352","2.0.0","847355","11","<div class=""flex flex-row stim-length pb-8 md:pd-20 justify-evenly items-center""><div class=""square""></div><div class=""circle""></div><div class=""square""></div></div>","p","","shape_test_3","mismatch","圆","p","true","圆"
"","null","html-keynbutton-response","353","2.0.0","847869","11","<div class=""pb-14 text-7xl"">+</div>","null","fixation","","","","","",""
"","574","html-keynbutton-response","354","2.0.0","848453","11","<div class=""flex flex-row stim-length pb-8 md:pd-20 justify-evenly items-center""><div class=""square""></div><div class=""square""></div><div class=""square""></div></div>","q","","shape_test_3","match","方","q","true","方"
"","null","html-keynbutton-response","355","2.0.0","848953","11","<div class=""pb-14 text-7xl"">+</div>","null","fixation","","","","","",""
"","411","html-keynbutton-response","356","2.0.0","849365","11","<div class=""flex flex-row stim-length pb-8 md:pd-20 justify-evenly items-center""><div class=""circle""></div><div class=""circle""></div><div class=""circle""></div></div>","p","","shape_test_3","match","圆","p","true","圆"
"","null","html-keynbutton-response","357","2.0.0","849866","11","<div class=""pb-14 text-7xl"">+</div>","null","fixation","","","","","",""
"","459","html-keynbutton-response","358","2.0.0","850325","11","<div class=""flex flex-row stim-length pb-8 md:pd-20 justify-evenly items-center""><div class=""circle""></div><div class=""square""></div><div class=""circle""></div></div>","q","","shape_test_3","mismatch","方","q","true","方"
"","null","html-keynbutton-response","359","2.0.0","850826","11","<div class=""pb-14 text-7xl"">+</div>","null","fixation","","","","","",""
"","395","html-keynbutton-response","360","2.0.0","851221","11","<div class=""flex flex-row stim-length pb-8 md:pd-20 justify-evenly items-center""><div class=""square""></div><div class=""circle""></div><div class=""square""></div></div>","p","","shape_test_3","mismatch","圆","p","true","圆"
"","null","html-keynbutton-response","361","2.0.0","851722","11","<div class=""pb-14 text-7xl"">+</div>","null","fixation","","","","","",""
"","395","html-keynbutton-response","362","2.0.0","852117","11","<div class=""flex flex-row stim-length pb-8 md:pd-20 justify-evenly items-center""><div class=""circle""></div><div class=""square""></div><div class=""circle""></div></div>","q","","shape_test_3","mismatch","方","q","true","方"
"","null","html-keynbutton-response","363","2.0.0","852617","11","<div class=""pb-14 text-7xl"">+</div>","null","fixation","","","","","",""
"","427","html-keynbutton-response","364","2.0.0","853045","11","<div class=""flex flex-row stim-length pb-8 md:pd-20 justify-evenly items-center""><div class=""square""></div><div class=""circle""></div><div class=""square""></div></div>","p","","shape_test_3","mismatch","圆","p","true","圆"
"","null","html-keynbutton-response","365","2.0.0","853560","11","<div class=""pb-14 text-7xl"">+</div>","null","fixation","","","","","",""
"","461","html-keynbutton-response","366","2.0.0","854020","11","<div class=""flex flex-row stim-length pb-8 md:pd-20 justify-evenly items-center""><div class=""square""></div><div class=""square""></div><div class=""square""></div></div>","q","","shape_test_3","match","方","q","true","方"
"","null","html-keynbutton-response","367","2.0.0","854525","11","<div class=""pb-14 text-7xl"">+</div>","null","fixation","","","","","",""
"","423","html-keynbutton-response","368","2.0.0","854949","11","<div class=""flex flex-row stim-length pb-8 md:pd-20 justify-evenly items-center""><div class=""circle""></div><div class=""circle""></div><div class=""circle""></div></div>","p","","shape_test_3","match","圆","p","true","圆"
"","null","html-keynbutton-response","369","2.0.0","855456","11","<div class=""pb-14 text-7xl"">+</div>","null","fixation","","","","","",""
"","452","html-keynbutton-response","370","2.0.0","855908","11","<div class=""flex flex-row stim-length pb-8 md:pd-20 justify-evenly items-center""><div class=""circle""></div><div class=""square""></div><div class=""circle""></div></div>","q","","shape_test_3","mismatch","方","q","true","方"
"","null","html-keynbutton-response","371","2.0.0","856415","11","<div class=""pb-14 text-7xl"">+</div>","null","fixation","","","","","",""
"","373","html-keynbutton-response","372","2.0.0","856789","11","<div class=""flex flex-row stim-length pb-8 md:pd-20 justify-evenly items-center""><div class=""square""></div><div class=""circle""></div><div class=""square""></div></div>","p","","shape_test_3","mismatch","圆","p","true","圆"
"","null","html-keynbutton-response","373","2.0.0","857290","11","<div class=""pb-14 text-7xl"">+</div>","null","fixation","","","","","",""
"","459","html-keynbutton-response","374","2.0.0","857749","11","<div class=""flex flex-row stim-length pb-8 md:pd-20 justify-evenly items-center""><div class=""square""></div><div class=""square""></div><div class=""square""></div></div>","q","","shape_test_3","match","方","q","true","方"
"","null","html-keynbutton-response","375","2.0.0","858249","11","<div class=""pb-14 text-7xl"">+</div>","null","fixation","","","","","",""
"","443","html-keynbutton-response","376","2.0.0","858693","11","<div class=""flex flex-row stim-length pb-8 md:pd-20 justify-evenly items-center""><div class=""circle""></div><div class=""circle""></div><div class=""circle""></div></div>","p","","shape_test_3","match","圆","p","true","圆"
"","null","html-keynbutton-response","377","2.0.0","859200","11","<div class=""pb-14 text-7xl"">+</div>","null","fixation","","","","","",""
"","420","html-keynbutton-response","378","2.0.0","859621","11","<div class=""flex flex-row stim-length pb-8 md:pd-20 justify-evenly items-center""><div class=""square""></div><div class=""circle""></div><div class=""square""></div></div>","p","","shape_test_3","mismatch","圆","p","true","圆"
"","null","html-keynbutton-response","379","2.0.0","860122","11","<div class=""pb-14 text-7xl"">+</div>","null","fixation","","","","","",""
"","410","html-keynbutton-response","380","2.0.0","860533","11","<div class=""flex flex-row stim-length pb-8 md:pd-20 justify-evenly items-center""><div class=""circle""></div><div class=""square""></div><div class=""circle""></div></div>","q","","shape_test_3","mismatch","方","q","true","方"
"","null","html-keynbutton-response","381","2.0.0","861034","11","<div class=""pb-14 text-7xl"">+</div>","null","fixation","","","","","",""
"","363","html-keynbutton-response","382","2.0.0","861397","11","<div class=""flex flex-row stim-length pb-8 md:pd-20 justify-evenly items-center""><div class=""circle""></div><div class=""circle""></div><div class=""circle""></div></div>","p","","shape_test_3","match","圆","p","true","圆"
"","null","html-keynbutton-response","383","2.0.0","861907","11","<div class=""pb-14 text-7xl"">+</div>","null","fixation","","","","","",""
"","417","html-keynbutton-response","384","2.0.0","862324","11","<div class=""flex flex-row stim-length pb-8 md:pd-20 justify-evenly items-center""><div class=""square""></div><div class=""square""></div><div class=""square""></div></div>","q","","shape_test_3","match","方","q","true","方"
"","null","html-keynbutton-response","385","2.0.0","862825","11","<div class=""pb-14 text-7xl"">+</div>","null","fixation","","","","","",""
"","363","html-keynbutton-response","386","2.0.0","863188","11","<div class=""flex flex-row stim-length pb-8 md:pd-20 justify-evenly items-center""><div class=""square""></div><div class=""circle""></div><div class=""square""></div></div>","p","","shape_test_3","mismatch","圆","p","true","圆"
"","null","html-keynbutton-response","387","2.0.0","863700","11","<div class=""pb-14 text-7xl"">+</div>","null","fixation","","","","","",""
"","384","html-keynbutton-response","388","2.0.0","864085","11","<div class=""flex flex-row stim-length pb-8 md:pd-20 justify-evenly items-center""><div class=""square""></div><div class=""square""></div><div class=""square""></div></div>","q","","shape_test_3","match","方","q","true","方"
"","null","html-keynbutton-response","389","2.0.0","864601","11","<div class=""pb-14 text-7xl"">+</div>","null","fixation","","","","","",""
"","427","html-keynbutton-response","390","2.0.0","865028","11","<div class=""flex flex-row stim-length pb-8 md:pd-20 justify-evenly items-center""><div class=""circle""></div><div class=""square""></div><div class=""circle""></div></div>","q","","shape_test_3","mismatch","方","q","true","方"
"","null","html-keynbutton-response","391","2.0.0","865529","11","<div class=""pb-14 text-7xl"">+</div>","null","fixation","","","","","",""
"","427","html-keynbutton-response","392","2.0.0","865957","11","<div class=""flex flex-row stim-length pb-8 md:pd-20 justify-evenly items-center""><div class=""circle""></div><div class=""circle""></div><div class=""circle""></div></div>","p","","shape_test_3","match","圆","p","true","圆"
"","10383","html-keynbutton-response","393","2.0.0","876341","11","<div class=""jp""><p>您已完成4/10部分</p><p>请休息一会儿</p>
    <p>您的正确率是：100%</p>
    <p>您的平均反应时间是：431毫秒</p></div>"," ","block_feedback","","","","","",""
"","null","html-keynbutton-response","394","2.0.0","879550","11","<count-down title=""""></count-down>","null","countDown_trial","","","","","",""
"","null","html-keynbutton-response","395","2.0.0","880055","11","<div class=""pb-14 text-7xl"">+</div>","null","fixation","","","","","",""
"","509","html-keynbutton-response","396","2.0.0","880565","11","<div class=""flex flex-row stim-length pb-8 md:pd-20 justify-evenly items-center""><div class=""square""></div><div class=""circle""></div><div class=""square""></div></div>","p","","shape_test_4","mismatch","圆","p","true","圆"
"","null","html-keynbutton-response","397","2.0.0","881074","11","<div class=""pb-14 text-7xl"">+</div>","null","fixation","","","","","",""
"","450","html-keynbutton-response","398","2.0.0","881525","11","<div class=""flex flex-row stim-length pb-8 md:pd-20 justify-evenly items-center""><div class=""square""></div><div class=""square""></div><div class=""square""></div></div>","q","","shape_test_4","match","方","q","true","方"
"","null","html-keynbutton-response","399","2.0.0","882026","11","<div class=""pb-14 text-7xl"">+</div>","null","fixation","","","","","",""
"","491","html-keynbutton-response","400","2.0.0","882516","11","<div class=""flex flex-row stim-length pb-8 md:pd-20 justify-evenly items-center""><div class=""circle""></div><div class=""square""></div><div class=""circle""></div></div>","q","","shape_test_4","mismatch","方","q","true","方"
"","null","html-keynbutton-response","401","2.0.0","883025","11","<div class=""pb-14 text-7xl"">+</div>","null","fixation","","","","","",""
"","372","html-keynbutton-response","402","2.0.0","883397","11","<div class=""flex flex-row stim-length pb-8 md:pd-20 justify-evenly items-center""><div class=""circle""></div><div class=""circle""></div><div class=""circle""></div></div>","p","","shape_test_4","match","圆","p","true","圆"
"","null","html-keynbutton-response","403","2.0.0","883901","11","<div class=""pb-14 text-7xl"">+</div>","null","fixation","","","","","",""
"","439","html-keynbutton-response","404","2.0.0","884341","11","<div class=""flex flex-row stim-length pb-8 md:pd-20 justify-evenly items-center""><div class=""square""></div><div class=""circle""></div><div class=""square""></div></div>","p","","shape_test_4","mismatch","圆","p","true","圆"
"","null","html-keynbutton-response","405","2.0.0","884845","11","<div class=""pb-14 text-7xl"">+</div>","null","fixation","","","","","",""
"","376","html-keynbutton-response","406","2.0.0","885220","11","<div class=""flex flex-row stim-length pb-8 md:pd-20 justify-evenly items-center""><div class=""circle""></div><div class=""circle""></div><div class=""circle""></div></div>","p","","shape_test_4","match","圆","p","true","圆"
"","null","html-keynbutton-response","407","2.0.0","885729","11","<div class=""pb-14 text-7xl"">+</div>","null","fixation","","","","","",""
"","403","html-keynbutton-response","408","2.0.0","886132","11","<div class=""flex flex-row stim-length pb-8 md:pd-20 justify-evenly items-center""><div class=""square""></div><div class=""square""></div><div class=""square""></div></div>","q","","shape_test_4","match","方","q","true","方"
"","null","html-keynbutton-response","409","2.0.0","886633","11","<div class=""pb-14 text-7xl"">+</div>","null","fixation","","","","","",""
"","411","html-keynbutton-response","410","2.0.0","887044","11","<div class=""flex flex-row stim-length pb-8 md:pd-20 justify-evenly items-center""><div class=""circle""></div><div class=""square""></div><div class=""circle""></div></div>","q","","shape_test_4","mismatch","方","q","true","方"
"","null","html-keynbutton-response","411","2.0.0","887548","11","<div class=""pb-14 text-7xl"">+</div>","null","fixation","","","","","",""
"","472","html-keynbutton-response","412","2.0.0","888021","11","<div class=""flex flex-row stim-length pb-8 md:pd-20 justify-evenly items-center""><div class=""square""></div><div class=""square""></div><div class=""square""></div></div>","q","","shape_test_4","match","方","q","true","方"
"","null","html-keynbutton-response","413","2.0.0","888522","11","<div class=""pb-14 text-7xl"">+</div>","null","fixation","","","","","",""
"","410","html-keynbutton-response","414","2.0.0","888933","11","<div class=""flex flex-row stim-length pb-8 md:pd-20 justify-evenly items-center""><div class=""circle""></div><div class=""circle""></div><div class=""circle""></div></div>","p","","shape_test_4","match","圆","p","true","圆"
"","null","html-keynbutton-response","415","2.0.0","889445","11","<div class=""pb-14 text-7xl"">+</div>","null","fixation","","","","","",""
"","463","html-keynbutton-response","416","2.0.0","889909","11","<div class=""flex flex-row stim-length pb-8 md:pd-20 justify-evenly items-center""><div class=""square""></div><div class=""circle""></div><div class=""square""></div></div>","p","","shape_test_4","mismatch","圆","p","true","圆"
"","null","html-keynbutton-response","417","2.0.0","890409","11","<div class=""pb-14 text-7xl"">+</div>","null","fixation","","","","","",""
"","427","html-keynbutton-response","418","2.0.0","890837","11","<div class=""flex flex-row stim-length pb-8 md:pd-20 justify-evenly items-center""><div class=""circle""></div><div class=""square""></div><div class=""circle""></div></div>","q","","shape_test_4","mismatch","方","q","true","方"
"","null","html-keynbutton-response","419","2.0.0","891352","11","<div class=""pb-14 text-7xl"">+</div>","null","fixation","","","","","",""
"","412","html-keynbutton-response","420","2.0.0","891765","11","<div class=""flex flex-row stim-length pb-8 md:pd-20 justify-evenly items-center""><div class=""square""></div><div class=""circle""></div><div class=""square""></div></div>","p","","shape_test_4","mismatch","圆","p","true","圆"
"","null","html-keynbutton-response","421","2.0.0","892266","11","<div class=""pb-14 text-7xl"">+</div>","null","fixation","","","","","",""
"","490","html-keynbutton-response","422","2.0.0","892757","11","<div class=""flex flex-row stim-length pb-8 md:pd-20 justify-evenly items-center""><div class=""circle""></div><div class=""circle""></div><div class=""circle""></div></div>","p","","shape_test_4","match","圆","p","true","圆"
"","null","html-keynbutton-response","423","2.0.0","893257","11","<div class=""pb-14 text-7xl"">+</div>","null","fixation","","","","","",""
"","427","html-keynbutton-response","424","2.0.0","893684","11","<div class=""flex flex-row stim-length pb-8 md:pd-20 justify-evenly items-center""><div class=""square""></div><div class=""square""></div><div class=""square""></div></div>","q","","shape_test_4","match","方","q","true","方"
"","null","html-keynbutton-response","425","2.0.0","894200","11","<div class=""pb-14 text-7xl"">+</div>","null","fixation","","","","","",""
"","460","html-keynbutton-response","426","2.0.0","894660","11","<div class=""flex flex-row stim-length pb-8 md:pd-20 justify-evenly items-center""><div class=""circle""></div><div class=""square""></div><div class=""circle""></div></div>","q","","shape_test_4","mismatch","方","q","true","方"
"","null","html-keynbutton-response","427","2.0.0","895170","11","<div class=""pb-14 text-7xl"">+</div>","null","fixation","","","","","",""
"","514","html-keynbutton-response","428","2.0.0","895684","11","<div class=""flex flex-row stim-length pb-8 md:pd-20 justify-evenly items-center""><div class=""circle""></div><div class=""square""></div><div class=""circle""></div></div>","q","","shape_test_4","mismatch","方","q","true","方"
"","null","html-keynbutton-response","429","2.0.0","896186","11","<div class=""pb-14 text-7xl"">+</div>","null","fixation","","","","","",""
"","410","html-keynbutton-response","430","2.0.0","896596","11","<div class=""flex flex-row stim-length pb-8 md:pd-20 justify-evenly items-center""><div class=""circle""></div><div class=""circle""></div><div class=""circle""></div></div>","p","","shape_test_4","match","圆","p","true","圆"
"","null","html-keynbutton-response","431","2.0.0","897108","11","<div class=""pb-14 text-7xl"">+</div>","null","fixation","","","","","",""
"","480","html-keynbutton-response","432","2.0.0","897589","11","<div class=""flex flex-row stim-length pb-8 md:pd-20 justify-evenly items-center""><div class=""square""></div><div class=""square""></div><div class=""square""></div></div>","q","","shape_test_4","match","方","q","true","方"
"","null","html-keynbutton-response","433","2.0.0","898095","11","<div class=""pb-14 text-7xl"">+</div>","null","fixation","","","","","",""
"","486","html-keynbutton-response","434","2.0.0","898581","11","<div class=""flex flex-row stim-length pb-8 md:pd-20 justify-evenly items-center""><div class=""square""></div><div class=""circle""></div><div class=""square""></div></div>","p","","shape_test_4","mismatch","圆","p","true","圆"
"","null","html-keynbutton-response","435","2.0.0","899085","11","<div class=""pb-14 text-7xl"">+</div>","null","fixation","","","","","",""
"","439","html-keynbutton-response","436","2.0.0","899525","11","<div class=""flex flex-row stim-length pb-8 md:pd-20 justify-evenly items-center""><div class=""circle""></div><div class=""square""></div><div class=""circle""></div></div>","q","","shape_test_4","mismatch","方","q","true","方"
"","null","html-keynbutton-response","437","2.0.0","900038","11","<div class=""pb-14 text-7xl"">+</div>","null","fixation","","","","","",""
"","430","html-keynbutton-response","438","2.0.0","900469","11","<div class=""flex flex-row stim-length pb-8 md:pd-20 justify-evenly items-center""><div class=""circle""></div><div class=""circle""></div><div class=""circle""></div></div>","p","","shape_test_4","match","圆","p","true","圆"
"","null","html-keynbutton-response","439","2.0.0","900985","11","<div class=""pb-14 text-7xl"">+</div>","null","fixation","","","","","",""
"","428","html-keynbutton-response","440","2.0.0","901413","11","<div class=""flex flex-row stim-length pb-8 md:pd-20 justify-evenly items-center""><div class=""square""></div><div class=""square""></div><div class=""square""></div></div>","q","","shape_test_4","match","方","q","true","方"
"","null","html-keynbutton-response","441","2.0.0","901915","11","<div class=""pb-14 text-7xl"">+</div>","null","fixation","","","","","",""
"","521","html-keynbutton-response","442","2.0.0","902437","11","<div class=""flex flex-row stim-length pb-8 md:pd-20 justify-evenly items-center""><div class=""square""></div><div class=""circle""></div><div class=""square""></div></div>","p","","shape_test_4","mismatch","圆","p","true","圆"
"","null","html-keynbutton-response","443","2.0.0","902952","11","<div class=""pb-14 text-7xl"">+</div>","null","fixation","","","","","",""
"","508","html-keynbutton-response","444","2.0.0","903461","11","<div class=""flex flex-row stim-length pb-8 md:pd-20 justify-evenly items-center""><div class=""circle""></div><div class=""square""></div><div class=""circle""></div></div>","q","","shape_test_4","mismatch","方","q","true","方"
"","null","html-keynbutton-response","445","2.0.0","903965","11","<div class=""pb-14 text-7xl"">+</div>","null","fixation","","","","","",""
"","439","html-keynbutton-response","446","2.0.0","904405","11","<div class=""flex flex-row stim-length pb-8 md:pd-20 justify-evenly items-center""><div class=""circle""></div><div class=""circle""></div><div class=""circle""></div></div>","p","","shape_test_4","match","圆","p","true","圆"
"","null","html-keynbutton-response","447","2.0.0","904911","11","<div class=""pb-14 text-7xl"">+</div>","null","fixation","","","","","",""
"","566","html-keynbutton-response","448","2.0.0","905476","11","<div class=""flex flex-row stim-length pb-8 md:pd-20 justify-evenly items-center""><div class=""square""></div><div class=""circle""></div><div class=""square""></div></div>","p","","shape_test_4","mismatch","圆","p","true","圆"
"","null","html-keynbutton-response","449","2.0.0","905978","11","<div class=""pb-14 text-7xl"">+</div>","null","fixation","","","","","",""
"","491","html-keynbutton-response","450","2.0.0","906469","11","<div class=""flex flex-row stim-length pb-8 md:pd-20 justify-evenly items-center""><div class=""square""></div><div class=""square""></div><div class=""square""></div></div>","q","","shape_test_4","match","方","q","true","方"
"","null","html-keynbutton-response","451","2.0.0","906984","11","<div class=""pb-14 text-7xl"">+</div>","null","fixation","","","","","",""
"","572","html-keynbutton-response","452","2.0.0","907557","11","<div class=""flex flex-row stim-length pb-8 md:pd-20 justify-evenly items-center""><div class=""circle""></div><div class=""circle""></div><div class=""circle""></div></div>","p","","shape_test_4","match","圆","p","true","圆"
"","null","html-keynbutton-response","453","2.0.0","908063","11","<div class=""pb-14 text-7xl"">+</div>","null","fixation","","","","","",""
"","437","html-keynbutton-response","454","2.0.0","908491","11","<div class=""flex flex-row stim-length pb-8 md:pd-20 justify-evenly items-center""><div class=""square""></div><div class=""square""></div><div class=""square""></div></div>","q","","shape_test_4","match","方","q","true","方"
"","null","html-keynbutton-response","455","2.0.0","908992","11","<div class=""pb-14 text-7xl"">+</div>","null","fixation","","","","","",""
"","459","html-keynbutton-response","456","2.0.0","909451","11","<div class=""flex flex-row stim-length pb-8 md:pd-20 justify-evenly items-center""><div class=""square""></div><div class=""circle""></div><div class=""square""></div></div>","p","","shape_test_4","mismatch","圆","p","true","圆"
"","null","html-keynbutton-response","457","2.0.0","909951","11","<div class=""pb-14 text-7xl"">+</div>","null","fixation","","","","","",""
"","491","html-keynbutton-response","458","2.0.0","910443","11","<div class=""flex flex-row stim-length pb-8 md:pd-20 justify-evenly items-center""><div class=""circle""></div><div class=""square""></div><div class=""circle""></div></div>","q","","shape_test_4","mismatch","方","q","true","方"
"","null","html-keynbutton-response","459","2.0.0","910952","11","<div class=""pb-14 text-7xl"">+</div>","null","fixation","","","","","",""
"","514","html-keynbutton-response","460","2.0.0","911467","11","<div class=""flex flex-row stim-length pb-8 md:pd-20 justify-evenly items-center""><div class=""square""></div><div class=""circle""></div><div class=""square""></div></div>","p","","shape_test_4","mismatch","圆","p","true","圆"
"","null","html-keynbutton-response","461","2.0.0","911970","11","<div class=""pb-14 text-7xl"">+</div>","null","fixation","","","","","",""
"","632","html-keynbutton-response","462","2.0.0","912602","11","<div class=""flex flex-row stim-length pb-8 md:pd-20 justify-evenly items-center""><div class=""circle""></div><div class=""circle""></div><div class=""circle""></div></div>","p","","shape_test_4","match","圆","p","true","圆"
"","null","html-keynbutton-response","463","2.0.0","913103","11","<div class=""pb-14 text-7xl"">+</div>","null","fixation","","","","","",""
"","427","html-keynbutton-response","464","2.0.0","913531","11","<div class=""flex flex-row stim-length pb-8 md:pd-20 justify-evenly items-center""><div class=""square""></div><div class=""square""></div><div class=""square""></div></div>","q","","shape_test_4","match","方","q","true","方"
"","null","html-keynbutton-response","465","2.0.0","914039","11","<div class=""pb-14 text-7xl"">+</div>","null","fixation","","","","","",""
"","484","html-keynbutton-response","466","2.0.0","914523","11","<div class=""flex flex-row stim-length pb-8 md:pd-20 justify-evenly items-center""><div class=""circle""></div><div class=""square""></div><div class=""circle""></div></div>","q","","shape_test_4","mismatch","方","q","true","方"
"","null","html-keynbutton-response","467","2.0.0","915029","11","<div class=""pb-14 text-7xl"">+</div>","null","fixation","","","","","",""
