"success","timeout","failed_images","failed_audio","failed_video","trial_type","trial_index","time_elapsed","internal_node_id","rt","part","response","stimulus","correct","choices","correct_choice","trial_duration","response_ends_trial","number_of_apertures","number_of_dots","number_of_sets","coherent_direction","coherence","opposite_coherence","dot_radius","dot_side_length","dot_life","move_distance","aperture_width","aperture_height","dot_color_beforeOne","dot_color_beforeTwo","dot_color_after","dot_color_delay","move_delay","dot_shape","background_color","RDK_type","aperture_type","reinsert_type","frame_rate","frame_rate_array","number_of_frames","aperture_center_x","aperture_center_y","fixation_cross","fixation_cross_width","fixation_cross_height","fixation_cross_color","fixation_cross_thickness","border","border_thickness","border_color","canvas_width","canvas_height","task","correct_responce","match","association","difficulty"
"true","false","[]","[]","[]","preload","0","11","0.0-0.0","","","","","","","","","","","","","","","","","","","","","","","","","","","","","","","","","","","","","","","","","","","","","","","","","","",""
"true","","","","","fullscreen","1","1183034","0.0-1.0","1180995","fullScreen","","","","","","","","","","","","","","","","","","","","","","","","","","","","","","","","","","","","","","","","","","","","","","","","",""
"","","","","","survey","2","1193683","0.0-2.0","9572","survey","{""sex"":""女"",""age"":24,""hands"":""右"",""color_blindness"":""都不是""}","","","","","","","","","","","","","","","","","","","","","","","","","","","","","","","","","","","","","","","","","","","","","","","",""
"","","","","","survey-text","3","1208917","0.0-3.0","14157","color_test","{""Q0"":""BE""}","","","","","","","","","","","","","","","","","","","","","","","","","","","","","","","","","","","","","","","","","","","","","","","",""
"","","","","","html-keyboard-response","4","1215199","0.0-4.0","5265","instruction_beginning"," ","
      <div style=""text-align: left; color: white"">
        <h3 style=""text-align: center; font-size: 30px; margin: 0;"">欢迎参与本实验</h3>
          <p>为充分保障您的权利，请确保您已经知晓并同意《参与实验同意书》以及《数据公开知情同意书》，</p>
          <p>如果您未见过上述内容，请咨询实验员 ，</p>
          <p>如果您选择继续实验，则表示您已经清楚两份知情同意书的内容并同意 。</p>
          <p>在整个实验中，您需要完成两项任务，具体的任务要求会在后面说明 ，</p>
          <p>请按空格键进入实验</p >
      </div>","","","","","","","","","","","","","","","","","","","","","","","","","","","","","","","","","","","","","","","","","","","","","","",""
"","","","","","html-keyboard-response","5","1252427","0.0-5.0-1.0-0.0-0.0","36223","instruction_match"," ","
        <div style=""text-align: left; color: white; padding: 10px""> 
          <h3 style=""text-align: center; font-size: 30px; margin: 10px"">任务一：匹配判断</h3>
          <p>接下来，屏幕上会呈现一些运动的圆点，其中一半为 <span style=""color: hsl(0, 50%, 50%)"">红色</span> ，一半为 <span style=""color: hsl(225, 50%, 50%)"">蓝色</span> 。</p>
          <p>同时散点图的下方会出现 ""自己"" 或 ""生人"" 的文字标签。</p >
          <p><span style=""font-weight: bold"">大约0.2秒后,</span>  一部分点会随机变为另一种颜色（例如从红色变为蓝色），变化后某种颜色的数量会超过另一种。</p >
          <p>如果整体颜色为 <span style=""color: hsl(0, 50%, 50%)"">红色</span> 代表 <span style=""color: hsl(0, 50%, 50%)"">你自己</span> ，整体颜色为 <span style=""color: hsl(225, 50%, 50%)"">蓝色</span> 代表 <span style=""color: hsl(225, 50%, 50%)"">生人（即陌生人）</span>。</p >
          <p>您需要在3秒内判断 <span style=""font-weight: bold"">散点图的整体颜色与文字是否匹配</span> 。</p >
          <ul>
            <li><span style=""color: hsl(135, 50%, 50%)"">匹配</span>，请按键盘 <span style=""color: hsl(135, 50%, 50%)"">""F"" 键</span>；</li>
            <li><span style=""color: red"">不匹配</span>，请按键盘 <span style=""color: red"">""J"" 键</span> </li>
          </ul>
          <p>按下空格键后将呈现示例</p>
        </div>","","","","","","","","","","","","","","","","","","","","","","","","","","","","","","","","","","","","","","","","","","","","","","",""
"","","","","","rdk","6","1256976","0.0-5.0-1.0-0.0-1.0","3528","example"," ","","true","["" ""]","["" ""]","300000","true","4","[80,20,80,20]","1","0","0","0","5","1","-1","3","400","400","hsl(225, 50%, 50%)","hsl(0, 50%, 50%)","[""hsl(0, 50%, 50%)"",""hsl(225, 50%, 50%)"",""hsl(225, 50%, 50%)"",""hsl(0, 50%, 50%)""]","10","10","circle","black","3","1","2","16.745283018867923","[3,17,17,16,16,17,16,16,17,17,17,16,18,16,17,17,17,17,17,17,17,17,16,17,17,17,16,17,18,15,16,17,17,16,17,17,17,17,17,17,17,17,17,16,17,16,17,17,17,17,17,17,17,17,17,17,17,17,17,17,17,17,17,17,16,17,17,17,17,17,17,17,17,17,17,17,17,17,16,17,17,17,17,16,17,17,17,17,17,17,16,18,16,17,17,16,17,17,17,17,17,16,17,17,17,17,17,17,17,17,16,17,17,16,17,17,16,17,17,17,17,17,17,17,16,17,17,17,17,17,17,17,16,17,17,17,17,17,17,17,16,17,17,17,17,17,17,17,17,17,16,17,16,18,16,17,17,17,17,16,17,16,17,17,17,16,17,17,17,17,16,18,16,16,17,17,17,17,17,16,17,17,17,17,16,16,17,17,17,17,17,16,17,17,17,16,17,17,17,17,16,17,17,16,17,17,16,17,17,16,17,17]","212","[300,300,900,900]","[280,280,280,280]","false","20","20","black","1","false","1","1","1200","660","","","","",""
"","","","","","html-keyboard-response","7","1263627","0.0-5.0-1.0-0.0-2.0-0.0-0.0-0.0","6134","instruction_match_practice"," ","
        <div style=""text-align: left; color: white; padding: 10px"">  
          <h3 style=""text-align: center; font-size: 30px; margin: 10px;"">练习阶段</h3>
          <p>整体颜色为 <span style=""color: hsl(0, 50%, 50%)"">红色</span> 代表 <span style=""color: hsl(0, 50%, 50%)"">你自己</span> ，为 <span style=""color: hsl(225, 50%, 50%)"">蓝色</span> 代表 <span style=""color: hsl(225, 50%, 50%)"">生人（即陌生人）</span>。</p >
          <p>您需要在3秒内判断 <span style=""font-weight: bold"">散点图的整体颜色与文字是否匹配</span>，<span style=""color: hsl(135, 50%, 50%);"">匹配</span> 按 <span style=""color: hsl(135, 50%, 50%);"">""F"" 键</span>；<span style=""color: red;"">不匹配</span> 按 <span style=""color: red;"">""J"" 键</span> </p >
          <p>正确率达到 70% 及以上才能进入下一个阶段</p >
          <p>请把左手食指放在 ""F"" 键上，右手食指放在 ""J"" 键上</p >
          <p>请按下空格键开始练习</p >
        </div>","","","","","","","","","","","","","","","","","","","","","","","","","","","","","","","","","","","","","","","","","","","","","","",""
"","","","","","html-keyboard-response","8","1265140","0.0-5.0-1.0-0.0-2.0-0.0-0.0-1.0-0.0","null","fixation","null","<p style='font-size: 48px; color: white'>+</p >","","","","","","","","","","","","","","","","","","","","","","","","","","","","","","","","","","","","","","","","","","","","","","",""
"","","","","","rdk","9","1268251","0.0-5.0-1.0-0.0-2.0-0.0-0.0-1.0-1.0","2092","match_RDK","f","","true","[""f"",""j""]","[""f""]","3000","true","2","[80,20]","1","0","0","0","5","1","-1","3","500","500","hsl(225, 50%, 50%)","hsl(0, 50%, 50%)","[""hsl(0, 50%, 50%)"",""hsl(225, 50%, 50%)""]","10","8","circle","black","3","2","2","16.776","[9,17,17,17,17,17,17,17,17,17,16,17,17,17,16,17,17,17,17,16,17,17,17,17,17,16,17,17,17,17,17,17,17,17,17,17,17,17,17,17,17,17,17,16,17,17,17,17,17,17,17,16,17,17,17,17,17,17,17,16,17,17,17,17,17,17,16,17,16,16,17,17,17,17,17,16,17,16,17,17,16,17,17,17,17,17,16,17,17,17,17,17,16,17,17,17,17,17,16,17,17,16,17,17,17,17,17,16,17,17,17,17,17,17,16,17,17,17,17,16,17,17,17,17,17]","125","600","250","false","20","20","black","1","false","1","1","1200","660","response","f","yes","self",""
"","","","","","html-keyboard-response","10","1269273","0.0-5.0-1.0-0.0-2.0-0.0-0.0-1.0-2.0","null","","null","<p style='font-size: 60px; color: green'>正确!</p>","","","","","","","","","","","","","","","","","","","","","","","","","","","","","","","","","","","","","","","","","","","","","","",""
"","","","","","html-keyboard-response","11","1270790","0.0-5.0-1.0-0.0-2.0-0.0-0.0-1.0-0.1","null","fixation","null","<p style='font-size: 48px; color: white'>+</p >","","","","","","","","","","","","","","","","","","","","","","","","","","","","","","","","","","","","","","","","","","","","","","",""
"","","","","","rdk","12","1273003","0.0-5.0-1.0-0.0-2.0-0.0-0.0-1.0-1.1","1196","match_RDK","j","","false","[""f"",""j""]","[""f""]","3000","true","2","[80,20]","1","0","0","0","5","1","-1","3","500","500","hsl(225, 50%, 50%)","hsl(0, 50%, 50%)","[""hsl(225, 50%, 50%)"",""hsl(0, 50%, 50%)""]","10","8","circle","black","3","2","2","16.760563380281692","[11,17,17,17,17,17,17,17,16,17,17,17,17,17,17,17,16,17,17,16,17,17,17,17,17,16,17,17,17,17,17,17,17,17,16,17,17,17,17,17,17,16,17,17,17,17,17,17,17,17,17,17,17,17,17,17,17,16,17,16,17,17,16,17,16,17,17,17,17,17,16]","71","600","250","false","20","20","black","1","false","1","1","1200","660","response","f","yes","other",""
"","","","","","html-keyboard-response","13","1274022","0.0-5.0-1.0-0.0-2.0-0.0-0.0-1.0-2.1","null","","null","<p style='font-size: 60px; color: red'>错误!</p>","","","","","","","","","","","","","","","","","","","","","","","","","","","","","","","","","","","","","","","","","","","","","","",""
"","","","","","html-keyboard-response","14","1275539","0.0-5.0-1.0-0.0-2.0-0.0-0.0-1.0-0.2","null","fixation","null","<p style='font-size: 48px; color: white'>+</p >","","","","","","","","","","","","","","","","","","","","","","","","","","","","","","","","","","","","","","","","","","","","","","",""
"","","","","","rdk","15","1278651","0.0-5.0-1.0-0.0-2.0-0.0-0.0-1.0-1.2","2109","match_RDK","j","","true","[""f"",""j""]","[""j""]","3000","true","2","[20,80]","1","0","0","0","5","1","-1","3","500","500","hsl(225, 50%, 50%)","hsl(0, 50%, 50%)","[""hsl(0, 50%, 50%)"",""hsl(225, 50%, 50%)""]","10","8","circle","black","3","2","2","16.793650793650794","[10,17,17,17,17,17,17,16,17,17,17,17,17,17,17,17,17,17,17,17,17,17,17,17,16,17,17,17,17,17,17,16,17,17,17,16,17,17,17,17,17,17,16,17,17,17,16,17,17,17,17,17,17,16,17,17,17,17,16,17,17,17,17,16,17,17,17,17,17,17,17,16,17,17,17,17,17,17,17,17,17,17,17,17,17,17,16,17,17,17,17,17,17,17,17,17,16,17,17,17,17,16,17,16,17,17,17,16,17,17,17,17,17,17,16,17,16,17,16,17,17,17,17,16,17,17]","126","600","250","false","20","20","black","1","false","1","1","1200","660","response","j","no","self",""
"","","","","","html-keyboard-response","16","1279658","0.0-5.0-1.0-0.0-2.0-0.0-0.0-1.0-2.2","null","","null","<p style='font-size: 60px; color: green'>正确!</p>","","","","","","","","","","","","","","","","","","","","","","","","","","","","","","","","","","","","","","","","","","","","","","",""
"","","","","","html-keyboard-response","17","1281175","0.0-5.0-1.0-0.0-2.0-0.0-0.0-1.0-0.3","null","fixation","null","<p style='font-size: 48px; color: white'>+</p >","","","","","","","","","","","","","","","","","","","","","","","","","","","","","","","","","","","","","","","","","","","","","","",""
"","","","","","rdk","18","1284827","0.0-5.0-1.0-0.0-2.0-0.0-0.0-1.0-1.3","2644","match_RDK","j","","true","[""f"",""j""]","[""j""]","3000","true","2","[80,20]","1","0","0","0","5","1","-1","3","500","500","hsl(225, 50%, 50%)","hsl(0, 50%, 50%)","[""hsl(0, 50%, 50%)"",""hsl(225, 50%, 50%)""]","10","8","circle","black","3","2","2","16.742138364779873","[3,17,17,16,17,17,16,17,17,16,17,16,17,17,17,17,16,17,16,17,17,17,17,16,17,16,17,17,17,17,17,17,17,17,17,17,17,17,17,17,16,17,16,17,17,17,17,17,17,17,17,17,17,17,17,17,17,17,17,17,17,17,17,16,17,17,17,17,17,17,17,17,17,17,17,17,17,17,17,17,17,16,17,17,17,17,17,17,16,17,17,17,16,17,17,17,16,17,17,17,17,17,17,17,17,17,16,17,16,17,17,17,16,17,17,17,17,16,17,17,17,17,16,17,17,17,17,17,17,16,17,17,17,17,17,16,16,18,16,17,18,17,16,17,17,16,17,16,17,16,17,17,17,17,17,17,16,17,17]","159","600","250","false","20","20","black","1","false","1","1","1200","660","response","j","no","other",""
"","","","","","html-keyboard-response","19","1285856","0.0-5.0-1.0-0.0-2.0-0.0-0.0-1.0-2.3","null","","null","<p style='font-size: 60px; color: green'>正确!</p>","","","","","","","","","","","","","","","","","","","","","","","","","","","","","","","","","","","","","","","","","","","","","","",""
"","","","","","html-keyboard-response","20","1287373","0.0-5.0-1.0-0.0-2.0-0.0-0.0-1.0-0.4","null","fixation","null","<p style='font-size: 48px; color: white'>+</p >","","","","","","","","","","","","","","","","","","","","","","","","","","","","","","","","","","","","","","","","","","","","","","",""
"","","","","","rdk","21","1289754","0.0-5.0-1.0-0.0-2.0-0.0-0.0-1.0-1.4","1378","match_RDK","f","","true","[""f"",""j""]","[""f""]","3000","true","2","[80,20]","1","0","0","0","5","1","-1","3","500","500","hsl(225, 50%, 50%)","hsl(0, 50%, 50%)","[""hsl(0, 50%, 50%)"",""hsl(225, 50%, 50%)""]","10","8","circle","black","3","2","2","16.80722891566265","[10,17,17,17,17,17,17,17,17,17,17,17,17,17,17,17,17,17,16,17,17,17,16,16,17,17,17,17,17,17,16,17,17,17,16,17,16,17,17,17,17,17,17,17,17,16,17,17,17,17,17,17,17,17,17,17,17,17,17,16,17,17,17,17,16,17,17,17,17,17,17,17,17,17,17,17,17,17,17,17,17,17,17]","83","600","250","false","20","20","black","1","false","1","1","1200","660","response","f","yes","self",""
"","","","","","html-keyboard-response","22","1290772","0.0-5.0-1.0-0.0-2.0-0.0-0.0-1.0-2.4","null","","null","<p style='font-size: 60px; color: green'>正确!</p>","","","","","","","","","","","","","","","","","","","","","","","","","","","","","","","","","","","","","","","","","","","","","","",""
"","","","","","html-keyboard-response","23","1292294","0.0-5.0-1.0-0.0-2.0-0.0-0.0-1.0-0.5","null","fixation","null","<p style='font-size: 48px; color: white'>+</p >","","","","","","","","","","","","","","","","","","","","","","","","","","","","","","","","","","","","","","","","","","","","","","",""
"","","","","","rdk","24","1294763","0.0-5.0-1.0-0.0-2.0-0.0-0.0-1.0-1.5","1451","match_RDK","f","","false","[""f"",""j""]","[""j""]","3000","true","2","[80,20]","1","0","0","0","5","1","-1","3","500","500","hsl(225, 50%, 50%)","hsl(0, 50%, 50%)","[""hsl(0, 50%, 50%)"",""hsl(225, 50%, 50%)""]","10","8","circle","black","3","2","2","16.7816091954023","[7,17,17,17,17,17,17,17,16,17,17,17,17,17,17,17,17,16,17,17,17,17,17,17,17,17,17,17,17,17,17,17,16,17,17,17,17,17,17,17,17,17,17,17,17,17,17,17,16,17,17,17,17,16,17,17,16,17,17,17,17,17,17,17,17,17,17,17,17,16,17,17,17,16,17,17,16,17,17,17,17,17,17,17,17,17,17]","87","600","250","false","20","20","black","1","false","1","1","1200","660","response","j","no","other",""
"","","","","","html-keyboard-response","25","1295789","0.0-5.0-1.0-0.0-2.0-0.0-0.0-1.0-2.5","null","","null","<p style='font-size: 60px; color: red'>错误!</p>","","","","","","","","","","","","","","","","","","","","","","","","","","","","","","","","","","","","","","","","","","","","","","",""
"","","","","","html-keyboard-response","26","1297294","0.0-5.0-1.0-0.0-2.0-0.0-0.0-1.0-0.6","null","fixation","null","<p style='font-size: 48px; color: white'>+</p >","","","","","","","","","","","","","","","","","","","","","","","","","","","","","","","","","","","","","","","","","","","","","","",""
"","","","","","rdk","27","1301320","0.0-5.0-1.0-0.0-2.0-0.0-0.0-1.0-1.6","-1","match_RDK","","","false","[""f"",""j""]","[""f""]","3000","true","2","[80,20]","1","0","0","0","5","1","-1","3","500","500","hsl(225, 50%, 50%)","hsl(0, 50%, 50%)","[""hsl(225, 50%, 50%)"",""hsl(0, 50%, 50%)""]","10","8","circle","black","3","2","2","16.855555555555554","[12,17,17,16,17,17,17,17,17,17,17,16,17,17,17,16,17,17,17,17,16,17,17,16,17,17,16,17,17,16,17,17,17,17,17,17,16,17,17,17,17,17,17,17,17,16,17,17,17,16,17,17,17,17,17,17,17,17,17,17,17,17,17,17,17,17,17,17,17,17,17,17,17,17,17,17,17,17,17,17,17,17,17,17,17,16,17,17,17,17,17,17,17,17,17,17,17,16,17,17,17,17,17,17,17,17,17,17,17,17,17,17,17,17,17,17,17,16,17,17,17,17,17,17,17,16,17,17,17,17,17,16,17,17,16,17,16,17,17,17,17,17,17,17,17,17,16,17,17,17,17,17,17,17,17,17,17,17,17,17,17,17,17,17,16,17,17,17,17,17,17,17,17,16,17,17,18,16,16,17]","180","600","250","false","20","20","black","1","false","1","1","1200","660","response","f","yes","other",""
"","","","","","html-keyboard-response","28","1302340","0.0-5.0-1.0-0.0-2.0-0.0-0.0-1.0-2.6","null","","null","<p style='font-size: 60px; color: yellow'>太慢!</p>","","","","","","","","","","","","","","","","","","","","","","","","","","","","","","","","","","","","","","","","","","","","","","",""
"","","","","","html-keyboard-response","29","1303841","0.0-5.0-1.0-0.0-2.0-0.0-0.0-1.0-0.7","null","fixation","null","<p style='font-size: 48px; color: white'>+</p >","","","","","","","","","","","","","","","","","","","","","","","","","","","","","","","","","","","","","","","","","","","","","","",""
"","","","","","rdk","30","1307035","0.0-5.0-1.0-0.0-2.0-0.0-0.0-1.0-1.7","2191","match_RDK","j","","true","[""f"",""j""]","[""j""]","3000","true","2","[20,80]","1","0","0","0","5","1","-1","3","500","500","hsl(225, 50%, 50%)","hsl(0, 50%, 50%)","[""hsl(0, 50%, 50%)"",""hsl(225, 50%, 50%)""]","10","8","circle","black","3","2","2","17.1640625","[73,2,17,17,16,16,17,17,17,17,17,17,17,17,17,17,17,16,17,17,17,16,17,17,17,17,17,17,17,17,17,18,16,16,17,17,17,16,17,17,17,16,17,16,17,17,17,17,17,17,17,17,17,17,17,17,16,17,17,17,17,16,17,17,17,16,17,17,17,17,16,17,17,17,17,17,17,17,17,16,17,17,17,17,17,17,17,17,17,17,17,17,17,17,16,17,17,17,16,17,18,16,17,17,17,17,17,16,17,16,18,16,17,16,17,17,17,17,17,17,17,17,16,18,16,16,17,17]","128","600","250","false","20","20","black","1","false","1","1","1200","660","response","j","no","self",""
"","","","","","html-keyboard-response","31","1308056","0.0-5.0-1.0-0.0-2.0-0.0-0.0-1.0-2.7","null","","null","<p style='font-size: 60px; color: green'>正确!</p>","","","","","","","","","","","","","","","","","","","","","","","","","","","","","","","","","","","","","","","","","","","","","","",""
"","","","","","html-keyboard-response","32","1309573","0.0-5.0-1.0-0.0-2.0-0.0-0.0-1.0-0.8","null","fixation","null","<p style='font-size: 48px; color: white'>+</p >","","","","","","","","","","","","","","","","","","","","","","","","","","","","","","","","","","","","","","","","","","","","","","",""
"","","","","","rdk","33","1312139","0.0-5.0-1.0-0.0-2.0-0.0-0.0-1.0-1.8","1563","match_RDK","j","","true","[""f"",""j""]","[""j""]","3000","true","2","[80,20]","1","0","0","0","5","1","-1","3","500","500","hsl(225, 50%, 50%)","hsl(0, 50%, 50%)","[""hsl(0, 50%, 50%)"",""hsl(225, 50%, 50%)""]","10","8","circle","black","3","2","2","16.819148936170212","[9,17,17,17,17,17,17,17,17,17,16,17,16,17,17,17,17,17,17,17,17,16,16,17,17,17,17,17,17,17,17,17,17,17,17,17,17,17,17,17,17,17,17,17,17,17,17,17,16,16,17,17,17,17,17,17,17,17,17,17,17,17,17,17,17,17,17,17,17,16,17,17,17,17,17,17,17,17,17,17,17,17,17,17,16,17,17,17,16,17,17,17,17,17]","94","600","250","false","20","20","black","1","false","1","1","1200","660","response","j","no","other",""
"","","","","","html-keyboard-response","34","1313160","0.0-5.0-1.0-0.0-2.0-0.0-0.0-1.0-2.8","null","","null","<p style='font-size: 60px; color: green'>正确!</p>","","","","","","","","","","","","","","","","","","","","","","","","","","","","","","","","","","","","","","","","","","","","","","",""
"","","","","","html-keyboard-response","35","1314677","0.0-5.0-1.0-0.0-2.0-0.0-0.0-1.0-0.9","null","fixation","null","<p style='font-size: 48px; color: white'>+</p >","","","","","","","","","","","","","","","","","","","","","","","","","","","","","","","","","","","","","","","","","","","","","","",""
"","","","","","rdk","36","1317503","0.0-5.0-1.0-0.0-2.0-0.0-0.0-1.0-1.9","1823","match_RDK","f","","true","[""f"",""j""]","[""f""]","3000","true","2","[80,20]","1","0","0","0","5","1","-1","3","500","500","hsl(225, 50%, 50%)","hsl(0, 50%, 50%)","[""hsl(225, 50%, 50%)"",""hsl(0, 50%, 50%)""]","10","8","circle","black","3","2","2","16.834862385321102","[9,17,17,17,17,17,17,17,17,16,17,17,17,17,17,16,17,17,17,17,17,17,16,17,17,17,17,17,17,17,17,17,17,17,17,17,17,17,17,16,17,17,17,17,17,17,17,17,17,17,17,17,17,17,17,17,17,17,17,17,17,17,17,17,17,17,17,17,17,17,17,17,17,17,17,17,17,17,17,17,17,17,17,17,17,17,16,17,16,17,17,17,17,17,17,17,17,17,16,17,17,17,16,17,17,16,17,17,16]","109","600","250","false","20","20","black","1","false","1","1","1200","660","response","f","yes","other",""
"","","","","","html-keyboard-response","37","1318526","0.0-5.0-1.0-0.0-2.0-0.0-0.0-1.0-2.9","null","","null","<p style='font-size: 60px; color: green'>正确!</p>","","","","","","","","","","","","","","","","","","","","","","","","","","","","","","","","","","","","","","","","","","","","","","",""
"","","","","","html-keyboard-response","38","1320044","0.0-5.0-1.0-0.0-2.0-0.0-0.0-1.0-0.10","null","fixation","null","<p style='font-size: 48px; color: white'>+</p >","","","","","","","","","","","","","","","","","","","","","","","","","","","","","","","","","","","","","","","","","","","","","","",""
"","","","","","rdk","39","1322238","0.0-5.0-1.0-0.0-2.0-0.0-0.0-1.0-1.10","1193","match_RDK","j","","true","[""f"",""j""]","[""j""]","3000","true","2","[20,80]","1","0","0","0","5","1","-1","3","500","500","hsl(225, 50%, 50%)","hsl(0, 50%, 50%)","[""hsl(0, 50%, 50%)"",""hsl(225, 50%, 50%)""]","10","8","circle","black","3","2","2","16.788732394366196","[12,17,17,17,17,17,16,17,17,17,17,17,17,17,17,17,17,17,17,16,17,16,17,17,17,17,17,17,17,17,16,17,17,16,17,17,17,16,17,17,17,17,17,17,17,17,17,17,17,17,17,17,17,17,17,17,17,16,17,17,16,17,17,17,16,17,17,17,16,17,17]","71","600","250","false","20","20","black","1","false","1","1","1200","660","response","j","no","self",""
"","","","","","html-keyboard-response","40","1323259","0.0-5.0-1.0-0.0-2.0-0.0-0.0-1.0-2.10","null","","null","<p style='font-size: 60px; color: green'>正确!</p>","","","","","","","","","","","","","","","","","","","","","","","","","","","","","","","","","","","","","","","","","","","","","","",""
"","","","","","html-keyboard-response","41","1324776","0.0-5.0-1.0-0.0-2.0-0.0-0.0-1.0-0.11","null","fixation","null","<p style='font-size: 48px; color: white'>+</p >","","","","","","","","","","","","","","","","","","","","","","","","","","","","","","","","","","","","","","","","","","","","","","",""
"","","","","","rdk","42","1326797","0.0-5.0-1.0-0.0-2.0-0.0-0.0-1.0-1.11","1012","match_RDK","f","","true","[""f"",""j""]","[""f""]","3000","true","2","[80,20]","1","0","0","0","5","1","-1","3","500","500","hsl(225, 50%, 50%)","hsl(0, 50%, 50%)","[""hsl(0, 50%, 50%)"",""hsl(225, 50%, 50%)""]","10","8","circle","black","3","2","2","16.62295081967213","[3,17,17,17,18,17,17,17,16,17,17,17,16,17,17,16,17,17,17,17,17,17,17,16,17,17,17,17,17,17,17,17,17,17,17,17,16,17,17,17,17,17,17,16,17,17,17,17,16,17,17,17,16,17,16,17,17,17,17,17,16]","61","600","250","false","20","20","black","1","false","1","1","1200","660","response","f","yes","self",""
"","","","","","html-keyboard-response","43","1327827","0.0-5.0-1.0-0.0-2.0-0.0-0.0-1.0-2.11","null","","null","<p style='font-size: 60px; color: green'>正确!</p>","","","","","","","","","","","","","","","","","","","","","","","","","","","","","","","","","","","","","","","","","","","","","","",""
"","","","","","html-keyboard-response","44","1329344","0.0-5.0-1.0-0.0-2.0-0.0-0.0-1.0-0.12","null","fixation","null","<p style='font-size: 48px; color: white'>+</p >","","","","","","","","","","","","","","","","","","","","","","","","","","","","","","","","","","","","","","","","","","","","","","",""
"","","","","","rdk","45","1331918","0.0-5.0-1.0-0.0-2.0-0.0-0.0-1.0-1.12","1557","match_RDK","f","","false","[""f"",""j""]","[""j""]","3000","true","2","[80,20]","1","0","0","0","5","1","-1","3","500","500","hsl(225, 50%, 50%)","hsl(0, 50%, 50%)","[""hsl(0, 50%, 50%)"",""hsl(225, 50%, 50%)""]","10","8","circle","black","3","2","2","16.827956989247312","[11,17,17,17,17,17,17,17,17,17,17,17,17,17,17,17,17,17,17,17,17,17,17,16,17,16,17,17,17,16,17,17,17,17,17,16,17,17,17,17,17,17,17,17,17,16,17,17,17,17,17,16,17,17,17,17,17,17,17,17,17,17,17,17,17,16,17,17,17,17,17,16,17,17,17,17,17,17,17,17,17,17,17,16,17,16,17,17,17,17,17,17,17]","93","600","250","false","20","20","black","1","false","1","1","1200","660","response","j","no","other",""
"","","","","","html-keyboard-response","46","1332943","0.0-5.0-1.0-0.0-2.0-0.0-0.0-1.0-2.12","null","","null","<p style='font-size: 60px; color: red'>错误!</p>","","","","","","","","","","","","","","","","","","","","","","","","","","","","","","","","","","","","","","","","","","","","","","",""
"","","","","","html-keyboard-response","47","1334459","0.0-5.0-1.0-0.0-2.0-0.0-0.0-1.0-0.13","null","fixation","null","<p style='font-size: 48px; color: white'>+</p >","","","","","","","","","","","","","","","","","","","","","","","","","","","","","","","","","","","","","","","","","","","","","","",""
"","","","","","rdk","48","1337325","0.0-5.0-1.0-0.0-2.0-0.0-0.0-1.0-1.13","1864","match_RDK","f","","true","[""f"",""j""]","[""f""]","3000","true","2","[80,20]","1","0","0","0","5","1","-1","3","500","500","hsl(225, 50%, 50%)","hsl(0, 50%, 50%)","[""hsl(0, 50%, 50%)"",""hsl(225, 50%, 50%)""]","10","8","circle","black","3","2","2","16.821428571428573","[11,17,17,17,17,16,17,17,17,17,16,17,17,17,17,18,17,16,17,17,17,16,17,17,17,17,17,17,17,16,17,17,18,16,17,17,17,17,17,16,17,17,17,17,17,17,17,17,16,17,17,16,17,17,17,17,16,17,17,17,17,17,17,17,17,17,17,17,17,17,17,17,17,17,17,17,17,16,17,17,17,17,17,17,17,17,17,17,17,16,17,17,16,17,17,17,17,16,17,17,17,17,17,16,17,17,16,17,17,17,17,17]","112","600","250","false","20","20","black","1","false","1","1","1200","660","response","f","yes","self",""
"","","","","","html-keyboard-response","49","1338343","0.0-5.0-1.0-0.0-2.0-0.0-0.0-1.0-2.13","null","","null","<p style='font-size: 60px; color: green'>正确!</p>","","","","","","","","","","","","","","","","","","","","","","","","","","","","","","","","","","","","","","","","","","","","","","",""
"","","","","","html-keyboard-response","50","1339853","0.0-5.0-1.0-0.0-2.0-0.0-0.0-1.0-0.14","null","fixation","null","<p style='font-size: 48px; color: white'>+</p >","","","","","","","","","","","","","","","","","","","","","","","","","","","","","","","","","","","","","","","","","","","","","","",""
"","","","","","rdk","51","1342013","0.0-5.0-1.0-0.0-2.0-0.0-0.0-1.0-1.14","1153","match_RDK","j","","true","[""f"",""j""]","[""j""]","3000","true","2","[20,80]","1","0","0","0","5","1","-1","3","500","500","hsl(225, 50%, 50%)","hsl(0, 50%, 50%)","[""hsl(0, 50%, 50%)"",""hsl(225, 50%, 50%)""]","10","8","circle","black","3","2","2","16.89855072463768","[12,17,17,17,17,17,17,17,17,17,18,16,17,17,17,17,17,17,17,17,17,17,17,17,17,17,17,17,17,16,17,17,17,17,17,17,17,17,17,17,17,17,17,17,17,17,17,17,17,17,17,17,17,17,17,17,17,17,17,17,17,17,17,17,17,17,17,16,17]","69","600","250","false","20","20","black","1","false","1","1","1200","660","response","j","no","self",""
"","","","","","html-keyboard-response","52","1343043","0.0-5.0-1.0-0.0-2.0-0.0-0.0-1.0-2.14","null","","null","<p style='font-size: 60px; color: green'>正确!</p>","","","","","","","","","","","","","","","","","","","","","","","","","","","","","","","","","","","","","","","","","","","","","","",""
"","","","","","html-keyboard-response","53","1344561","0.0-5.0-1.0-0.0-2.0-0.0-0.0-1.0-0.15","null","fixation","null","<p style='font-size: 48px; color: white'>+</p >","","","","","","","","","","","","","","","","","","","","","","","","","","","","","","","","","","","","","","","","","","","","","","",""
"","","","","","rdk","54","1347054","0.0-5.0-1.0-0.0-2.0-0.0-0.0-1.0-1.15","1476","match_RDK","f","","true","[""f"",""j""]","[""f""]","3000","true","2","[80,20]","1","0","0","0","5","1","-1","3","500","500","hsl(225, 50%, 50%)","hsl(0, 50%, 50%)","[""hsl(225, 50%, 50%)"",""hsl(0, 50%, 50%)""]","10","8","circle","black","3","2","2","16.863636363636363","[12,17,17,17,17,17,17,17,16,17,17,17,17,17,17,17,17,17,17,17,17,17,17,17,17,17,17,17,17,17,17,17,17,17,17,17,17,17,17,17,16,17,16,17,17,16,17,16,17,17,17,17,17,16,17,17,17,17,17,17,17,17,17,17,17,17,17,17,17,17,16,17,17,17,17,17,17,17,17,17,17,17,17,17,17,17,17,17]","88","600","250","false","20","20","black","1","false","1","1","1200","660","response","f","yes","other",""
"","","","","","html-keyboard-response","55","1348061","0.0-5.0-1.0-0.0-2.0-0.0-0.0-1.0-2.15","null","","null","<p style='font-size: 60px; color: green'>正确!</p>","","","","","","","","","","","","","","","","","","","","","","","","","","","","","","","","","","","","","","","","","","","","","","",""
"","","","","","html-keyboard-response","56","1349578","0.0-5.0-1.0-0.0-2.0-0.0-0.0-1.0-0.16","null","fixation","null","<p style='font-size: 48px; color: white'>+</p >","","","","","","","","","","","","","","","","","","","","","","","","","","","","","","","","","","","","","","","","","","","","","","",""
"","","","","","rdk","57","1351933","0.0-5.0-1.0-0.0-2.0-0.0-0.0-1.0-1.16","1340","match_RDK","f","","true","[""f"",""j""]","[""f""]","3000","true","2","[80,20]","1","0","0","0","5","1","-1","3","500","500","hsl(225, 50%, 50%)","hsl(0, 50%, 50%)","[""hsl(0, 50%, 50%)"",""hsl(225, 50%, 50%)""]","10","8","circle","black","3","2","2","16.85","[13,17,17,17,17,17,16,17,17,17,17,17,16,17,17,17,17,17,17,17,17,17,17,17,17,17,17,17,17,17,17,17,17,16,17,17,17,17,17,16,17,16,17,17,17,17,17,17,17,17,17,17,17,17,17,17,17,17,17,16,17,17,17,16,17,17,17,17,17,17,17,17,17,17,17,17,16,17,17,17]","80","600","250","false","20","20","black","1","false","1","1","1200","660","response","f","yes","self",""
"","","","","","html-keyboard-response","58","1352944","0.0-5.0-1.0-0.0-2.0-0.0-0.0-1.0-2.16","null","","null","<p style='font-size: 60px; color: green'>正确!</p>","","","","","","","","","","","","","","","","","","","","","","","","","","","","","","","","","","","","","","","","","","","","","","",""
"","","","","","html-keyboard-response","59","1354461","0.0-5.0-1.0-0.0-2.0-0.0-0.0-1.0-0.17","null","fixation","null","<p style='font-size: 48px; color: white'>+</p >","","","","","","","","","","","","","","","","","","","","","","","","","","","","","","","","","","","","","","","","","","","","","","",""
"","","","","","rdk","60","1356991","0.0-5.0-1.0-0.0-2.0-0.0-0.0-1.0-1.17","1513","match_RDK","j","","true","[""f"",""j""]","[""j""]","3000","true","2","[20,80]","1","0","0","0","5","1","-1","3","500","500","hsl(225, 50%, 50%)","hsl(0, 50%, 50%)","[""hsl(0, 50%, 50%)"",""hsl(225, 50%, 50%)""]","10","8","circle","black","3","2","2","16.855555555555554","[12,17,17,17,17,17,17,17,17,17,17,17,17,17,17,17,17,17,17,17,17,17,17,17,17,17,17,17,17,17,17,17,17,17,16,17,17,17,17,17,16,17,17,17,16,17,16,17,17,17,17,17,17,17,17,17,17,17,17,17,17,17,17,17,17,17,17,17,16,17,17,17,17,17,17,17,17,16,17,17,17,17,17,17,17,16,17,17,16,17]","90","600","250","false","20","20","black","1","false","1","1","1200","660","response","j","no","self",""
"","","","","","html-keyboard-response","61","1358010","0.0-5.0-1.0-0.0-2.0-0.0-0.0-1.0-2.17","null","","null","<p style='font-size: 60px; color: green'>正确!</p>","","","","","","","","","","","","","","","","","","","","","","","","","","","","","","","","","","","","","","","","","","","","","","",""
"","","","","","html-keyboard-response","62","1359525","0.0-5.0-1.0-0.0-2.0-0.0-0.0-1.0-0.18","null","fixation","null","<p style='font-size: 48px; color: white'>+</p >","","","","","","","","","","","","","","","","","","","","","","","","","","","","","","","","","","","","","","","","","","","","","","",""
"","","","","","rdk","63","1362398","0.0-5.0-1.0-0.0-2.0-0.0-0.0-1.0-1.18","1869","match_RDK","j","","true","[""f"",""j""]","[""j""]","3000","true","2","[80,20]","1","0","0","0","5","1","-1","3","500","500","hsl(225, 50%, 50%)","hsl(0, 50%, 50%)","[""hsl(0, 50%, 50%)"",""hsl(225, 50%, 50%)""]","10","8","circle","black","3","2","2","18.067307692307693","[11,17,17,17,17,17,17,17,17,17,17,17,17,16,17,17,17,17,16,16,17,17,17,17,17,17,17,17,17,17,17,17,17,17,16,17,17,17,17,16,18,16,17,17,17,17,17,17,17,17,16,17,16,17,17,17,17,17,17,17,17,17,17,17,17,17,16,17,17,17,17,17,16,17,17,17,17,17,17,16,17,17,16,17,17,17,17,17,17,16,17,17,16,17,16,17,16,159,8,17,17,17,17,16]","104","600","250","false","20","20","black","1","false","1","1","1200","660","response","j","no","other",""
"","","","","","html-keyboard-response","64","1363426","0.0-5.0-1.0-0.0-2.0-0.0-0.0-1.0-2.18","null","","null","<p style='font-size: 60px; color: green'>正确!</p>","","","","","","","","","","","","","","","","","","","","","","","","","","","","","","","","","","","","","","","","","","","","","","",""
"","","","","","html-keyboard-response","65","1364944","0.0-5.0-1.0-0.0-2.0-0.0-0.0-1.0-0.19","null","fixation","null","<p style='font-size: 48px; color: white'>+</p >","","","","","","","","","","","","","","","","","","","","","","","","","","","","","","","","","","","","","","","","","","","","","","",""
"","","","","","rdk","66","1366991","0.0-5.0-1.0-0.0-2.0-0.0-0.0-1.0-1.19","1031","match_RDK","f","","true","[""f"",""j""]","[""f""]","3000","true","2","[80,20]","1","0","0","0","5","1","-1","3","500","500","hsl(225, 50%, 50%)","hsl(0, 50%, 50%)","[""hsl(225, 50%, 50%)"",""hsl(0, 50%, 50%)""]","10","8","circle","black","3","2","2","16.83606557377049","[14,17,17,17,17,17,16,17,17,17,17,17,17,17,17,17,17,17,17,16,17,17,17,17,17,17,17,17,17,16,17,17,17,16,17,17,17,17,16,17,17,17,17,17,17,17,17,17,17,16,17,17,17,17,16,17,17,17,17,17,17]","61","600","250","false","20","20","black","1","false","1","1","1200","660","response","f","yes","other",""
"","","","","","html-keyboard-response","67","1368010","0.0-5.0-1.0-0.0-2.0-0.0-0.0-1.0-2.19","null","","null","<p style='font-size: 60px; color: green'>正确!</p>","","","","","","","","","","","","","","","","","","","","","","","","","","","","","","","","","","","","","","","","","","","","","","",""
"","","","","","html-keyboard-response","68","1369526","0.0-5.0-1.0-0.0-2.0-0.0-0.0-1.0-0.20","null","fixation","null","<p style='font-size: 48px; color: white'>+</p >","","","","","","","","","","","","","","","","","","","","","","","","","","","","","","","","","","","","","","","","","","","","","","",""
"","","","","","rdk","69","1371727","0.0-5.0-1.0-0.0-2.0-0.0-0.0-1.0-1.20","1199","match_RDK","j","","true","[""f"",""j""]","[""j""]","3000","true","2","[20,80]","1","0","0","0","5","1","-1","3","500","500","hsl(225, 50%, 50%)","hsl(0, 50%, 50%)","[""hsl(0, 50%, 50%)"",""hsl(225, 50%, 50%)""]","10","8","circle","black","3","2","2","16.916666666666668","[12,17,17,17,17,17,17,17,17,17,17,17,17,17,17,17,17,17,17,17,17,17,17,17,17,16,17,17,17,17,17,17,17,17,17,17,17,17,17,17,17,17,17,17,17,17,17,17,17,17,17,17,17,17,17,17,17,17,17,17,17,17,17,17,17,17,17,17,17,17,17,17]","72","600","250","false","20","20","black","1","false","1","1","1200","660","response","j","no","self",""
"","","","","","html-keyboard-response","70","1372743","0.0-5.0-1.0-0.0-2.0-0.0-0.0-1.0-2.20","null","","null","<p style='font-size: 60px; color: green'>正确!</p>","","","","","","","","","","","","","","","","","","","","","","","","","","","","","","","","","","","","","","","","","","","","","","",""
"","","","","","html-keyboard-response","71","1374261","0.0-5.0-1.0-0.0-2.0-0.0-0.0-1.0-0.21","null","fixation","null","<p style='font-size: 48px; color: white'>+</p >","","","","","","","","","","","","","","","","","","","","","","","","","","","","","","","","","","","","","","","","","","","","","","",""
"","","","","","rdk","72","1376495","0.0-5.0-1.0-0.0-2.0-0.0-0.0-1.0-1.21","1217","match_RDK","f","","false","[""f"",""j""]","[""j""]","3000","true","2","[80,20]","1","0","0","0","5","1","-1","3","500","500","hsl(225, 50%, 50%)","hsl(0, 50%, 50%)","[""hsl(0, 50%, 50%)"",""hsl(225, 50%, 50%)""]","10","8","circle","black","3","2","2","16.904109589041095","[12,17,17,17,17,17,17,17,17,17,17,17,17,17,17,17,17,17,17,17,17,17,17,17,17,17,16,17,17,17,17,17,17,17,17,17,16,17,17,17,17,17,17,17,17,17,17,17,17,17,17,17,17,17,17,17,17,17,17,17,17,17,17,17,17,17,17,17,17,17,17,17,17]","73","600","250","false","20","20","black","1","false","1","1","1200","660","response","j","no","other",""
"","","","","","html-keyboard-response","73","1377510","0.0-5.0-1.0-0.0-2.0-0.0-0.0-1.0-2.21","null","","null","<p style='font-size: 60px; color: red'>错误!</p>","","","","","","","","","","","","","","","","","","","","","","","","","","","","","","","","","","","","","","","","","","","","","","",""
"","","","","","html-keyboard-response","74","1379027","0.0-5.0-1.0-0.0-2.0-0.0-0.0-1.0-0.22","null","fixation","null","<p style='font-size: 48px; color: white'>+</p >","","","","","","","","","","","","","","","","","","","","","","","","","","","","","","","","","","","","","","","","","","","","","","",""
"","","","","","rdk","75","1381247","0.0-5.0-1.0-0.0-2.0-0.0-0.0-1.0-1.22","1202","match_RDK","f","","true","[""f"",""j""]","[""f""]","3000","true","2","[80,20]","1","0","0","0","5","1","-1","3","500","500","hsl(225, 50%, 50%)","hsl(0, 50%, 50%)","[""hsl(225, 50%, 50%)"",""hsl(0, 50%, 50%)""]","10","8","circle","black","3","2","2","16.86111111111111","[10,17,17,17,17,17,17,17,17,17,17,17,17,17,17,17,17,17,17,17,17,17,17,17,17,17,17,17,17,17,17,17,17,17,17,17,17,17,17,17,17,17,17,16,17,17,16,17,17,17,17,17,17,17,17,17,17,17,17,17,17,16,17,17,17,17,17,17,17,17,17,17]","72","600","250","false","20","20","black","1","false","1","1","1200","660","response","f","yes","other",""
"","","","","","html-keyboard-response","76","1382276","0.0-5.0-1.0-0.0-2.0-0.0-0.0-1.0-2.22","null","","null","<p style='font-size: 60px; color: green'>正确!</p>","","","","","","","","","","","","","","","","","","","","","","","","","","","","","","","","","","","","","","","","","","","","","","",""
"","","","","","html-keyboard-response","77","1383792","0.0-5.0-1.0-0.0-2.0-0.0-0.0-1.0-0.23","null","fixation","null","<p style='font-size: 48px; color: white'>+</p >","","","","","","","","","","","","","","","","","","","","","","","","","","","","","","","","","","","","","","","","","","","","","","",""
"","","","","","rdk","78","1385726","0.0-5.0-1.0-0.0-2.0-0.0-0.0-1.0-1.23","931","match_RDK","f","","true","[""f"",""j""]","[""f""]","3000","true","2","[80,20]","1","0","0","0","5","1","-1","3","500","500","hsl(225, 50%, 50%)","hsl(0, 50%, 50%)","[""hsl(0, 50%, 50%)"",""hsl(225, 50%, 50%)""]","10","8","circle","black","3","2","2","16.678571428571427","[10,17,17,16,17,17,17,17,17,17,16,17,17,16,17,17,17,17,17,17,16,17,16,17,17,17,17,17,17,17,16,17,17,16,17,17,17,16,17,17,17,17,17,16,17,17,17,17,16,17,16,17,17,17,17,17]","56","600","250","false","20","20","black","1","false","1","1","1200","660","response","f","yes","self",""
"","","","","","html-keyboard-response","79","1386743","0.0-5.0-1.0-0.0-2.0-0.0-0.0-1.0-2.23","null","","null","<p style='font-size: 60px; color: green'>正确!</p>","","","","","","","","","","","","","","","","","","","","","","","","","","","","","","","","","","","","","","","","","","","","","","",""
"","","","","","html-keyboard-response","80","1394110","0.0-5.0-1.0-0.0-2.0-0.0-0.0-3.0-0.0","6348","instruction_practiceEnd"," ","
    <div style=""text-align: center; color: white; padding: 30px; font-size: 30px"">
      <p>恭喜您完成练习，请按空格键进入正式任务。</p >
      <p> 正式任务仅在 每组 测试结束后提供反馈</p>
    </div>
    ","","","","","","","","","","","","","","","","","","","","","","","","","","","","","","","","","","","","","","","","","","","","","","",""
"","","","","","html-keyboard-response","81","1396606","0.0-5.0-1.0-0.0-3.0-0.0-0.0-0.0","1479","instruction_match_formal"," ","
    <div style=""text-align: center; color: white; padding: 35px; font-size: 35px"">
      <p>请按下空格键开始【正式任务】</p >
    </div>
    ","","","","","","","","","","","","","","","","","","","","","","","","","","","","","","","","","","","","","","","","","","","","","","",""
"","","","","","html-keyboard-response","82","1398112","0.0-5.0-1.0-0.0-3.0-0.0-0.0-1.0-0.0","null","fixation","null","<p style='font-size: 48px; color: white'>+</p >","","","","","","","","","","","","","","","","","","","","","","","","","","","","","","","","","","","","","","","","","","","","","","",""
"","","","","","rdk","83","1400541","0.0-5.0-1.0-0.0-3.0-0.0-0.0-1.0-1.0","1414","match_RDK","j","","true","[""f"",""j""]","[""j""]","3000","true","2","[80,20]","1","0","0","0","5","1","-1","3","500","500","hsl(225, 50%, 50%)","hsl(0, 50%, 50%)","[""hsl(0, 50%, 50%)"",""hsl(225, 50%, 50%)""]","10","8","circle","black","3","2","2","16.8","[13,16,17,17,17,17,17,17,17,17,17,17,16,17,16,17,17,17,17,17,17,17,16,17,17,17,17,17,17,17,16,17,17,17,17,17,17,17,17,16,17,16,17,17,17,17,16,17,17,17,17,17,17,18,16,17,17,16,17,18,16,17,16,17,17,17,16,17,17,17,17,17,17,17,17,17,17,16,17,17,17,16,17,17,17]","85","600","250","false","20","20","black","1","false","1","1","1200","660","response","j","no","other",""
"","","","","","html-keyboard-response","84","1401560","0.0-5.0-1.0-0.0-3.0-0.0-0.0-1.0-0.1","null","fixation","null","<p style='font-size: 48px; color: white'>+</p >","","","","","","","","","","","","","","","","","","","","","","","","","","","","","","","","","","","","","","","","","","","","","","",""
"","","","","","rdk","85","1403694","0.0-5.0-1.0-0.0-3.0-0.0-0.0-1.0-1.1","1133","match_RDK","f","","true","[""f"",""j""]","[""f""]","3000","true","2","[80,20]","1","0","0","0","5","1","-1","3","500","500","hsl(225, 50%, 50%)","hsl(0, 50%, 50%)","[""hsl(225, 50%, 50%)"",""hsl(0, 50%, 50%)""]","10","8","circle","black","3","2","2","16.676470588235293","[11,17,17,17,17,17,17,16,17,16,17,17,17,17,17,17,17,17,17,17,16,17,17,17,17,16,17,17,17,16,17,16,17,16,17,17,16,17,16,17,17,17,17,17,17,16,17,17,17,16,17,17,17,16,17,17,16,17,16,17,17,17,16,17,17,16,17,17]","68","600","250","false","20","20","black","1","false","1","1","1200","660","response","f","yes","other",""
"","","","","","html-keyboard-response","86","1404709","0.0-5.0-1.0-0.0-3.0-0.0-0.0-1.0-0.2","null","fixation","null","<p style='font-size: 48px; color: white'>+</p >","","","","","","","","","","","","","","","","","","","","","","","","","","","","","","","","","","","","","","","","","","","","","","",""
"","","","","","rdk","87","1406829","0.0-5.0-1.0-0.0-3.0-0.0-0.0-1.0-1.2","1118","match_RDK","j","","true","[""f"",""j""]","[""j""]","3000","true","2","[20,80]","1","0","0","0","5","1","-1","3","500","500","hsl(225, 50%, 50%)","hsl(0, 50%, 50%)","[""hsl(0, 50%, 50%)"",""hsl(225, 50%, 50%)""]","10","8","circle","black","3","2","2","16.776119402985074","[12,17,17,17,17,16,17,17,16,17,17,17,17,17,16,17,17,17,17,17,17,17,17,17,17,17,17,17,17,16,17,17,16,17,17,17,17,17,17,17,17,16,17,17,17,17,17,17,17,17,17,16,17,17,17,17,17,17,17,17,16,17,16,17,17,16,17]","67","600","250","false","20","20","black","1","false","1","1","1200","660","response","j","no","self",""
"","","","","","html-keyboard-response","88","1407859","0.0-5.0-1.0-0.0-3.0-0.0-0.0-1.0-0.3","null","fixation","null","<p style='font-size: 48px; color: white'>+</p >","","","","","","","","","","","","","","","","","","","","","","","","","","","","","","","","","","","","","","","","","","","","","","",""
"","","","","","rdk","89","1409965","0.0-5.0-1.0-0.0-3.0-0.0-0.0-1.0-1.3","1103","match_RDK","f","","true","[""f"",""j""]","[""f""]","3000","true","2","[80,20]","1","0","0","0","5","1","-1","3","500","500","hsl(225, 50%, 50%)","hsl(0, 50%, 50%)","[""hsl(0, 50%, 50%)"",""hsl(225, 50%, 50%)""]","10","8","circle","black","3","2","2","16.848484848484848","[11,17,17,17,17,16,17,17,17,17,17,17,17,17,16,17,17,17,17,17,17,17,17,17,17,17,17,16,17,17,17,17,17,17,17,17,17,17,17,17,17,17,17,17,17,17,17,17,17,17,17,17,17,17,17,17,17,17,17,17,16,17,17,17,17,17]","66","600","250","false","20","20","black","1","false","1","1","1200","660","response","f","yes","self",""
"","","","","","html-keyboard-response","90","1410993","0.0-5.0-1.0-0.0-3.0-0.0-0.0-1.0-0.4","null","fixation","null","<p style='font-size: 48px; color: white'>+</p >","","","","","","","","","","","","","","","","","","","","","","","","","","","","","","","","","","","","","","","","","","","","","","",""
"","","","","","rdk","91","1412960","0.0-5.0-1.0-0.0-3.0-0.0-0.0-1.0-1.4","954","match_RDK","f","","true","[""f"",""j""]","[""f""]","3000","true","2","[80,20]","1","0","0","0","5","1","-1","3","500","500","hsl(225, 50%, 50%)","hsl(0, 50%, 50%)","[""hsl(0, 50%, 50%)"",""hsl(225, 50%, 50%)""]","10","8","circle","black","3","2","2","16.5","[2,16,17,16,17,17,16,17,16,18,16,17,17,17,17,17,17,16,16,18,16,17,17,17,16,17,17,17,18,16,17,17,16,17,16,18,16,17,16,17,17,17,16,17,17,17,16,18,16,17,17,16,17,17,16,17,17,17]","58","600","250","false","20","20","black","1","false","1","1","1200","660","response","f","yes","self",""
"","","","","","html-keyboard-response","92","1413976","0.0-5.0-1.0-0.0-3.0-0.0-0.0-1.0-0.5","null","fixation","null","<p style='font-size: 48px; color: white'>+</p >","","","","","","","","","","","","","","","","","","","","","","","","","","","","","","","","","","","","","","","","","","","","","","",""
"","","","","","rdk","93","1416143","0.0-5.0-1.0-0.0-3.0-0.0-0.0-1.0-1.5","1158","match_RDK","j","","true","[""f"",""j""]","[""j""]","3000","true","2","[80,20]","1","0","0","0","5","1","-1","3","500","500","hsl(225, 50%, 50%)","hsl(0, 50%, 50%)","[""hsl(0, 50%, 50%)"",""hsl(225, 50%, 50%)""]","10","8","circle","black","3","2","2","16.62857142857143","[4,17,17,17,17,17,17,16,17,17,17,17,17,17,17,17,17,17,17,17,17,17,17,16,17,16,17,17,17,16,17,17,16,17,17,17,17,16,17,17,16,17,16,17,17,16,17,17,16,17,17,16,17,17,17,17,16,17,17,17,17,17,17,17,17,16,17,17,17,17]","70","600","250","false","20","20","black","1","false","1","1","1200","660","response","j","no","other",""
"","","","","","html-keyboard-response","94","1417160","0.0-5.0-1.0-0.0-3.0-0.0-0.0-1.0-0.6","null","fixation","null","<p style='font-size: 48px; color: white'>+</p >","","","","","","","","","","","","","","","","","","","","","","","","","","","","","","","","","","","","","","","","","","","","","","",""
"","","","","","rdk","95","1419245","0.0-5.0-1.0-0.0-3.0-0.0-0.0-1.0-1.6","1068","match_RDK","j","","true","[""f"",""j""]","[""j""]","3000","true","2","[20,80]","1","0","0","0","5","1","-1","3","500","500","hsl(225, 50%, 50%)","hsl(0, 50%, 50%)","[""hsl(0, 50%, 50%)"",""hsl(225, 50%, 50%)""]","10","8","circle","black","3","2","2","16.8125","[11,17,17,17,17,17,17,17,17,17,17,17,17,17,16,17,17,17,17,17,17,17,17,17,17,17,17,17,16,17,17,17,17,17,16,17,17,17,17,17,17,17,17,17,17,17,17,17,17,17,17,17,17,16,17,17,17,17,17,17,16,17,16,17]","64","600","250","false","20","20","black","1","false","1","1","1200","660","response","j","no","self",""
"","","","","","html-keyboard-response","96","1420259","0.0-5.0-1.0-0.0-3.0-0.0-0.0-1.0-0.7","null","fixation","null","<p style='font-size: 48px; color: white'>+</p >","","","","","","","","","","","","","","","","","","","","","","","","","","","","","","","","","","","","","","","","","","","","","","",""
"","","","","","rdk","97","1422381","0.0-5.0-1.0-0.0-3.0-0.0-0.0-1.0-1.7","1110","match_RDK","f","","true","[""f"",""j""]","[""f""]","3000","true","2","[80,20]","1","0","0","0","5","1","-1","3","500","500","hsl(225, 50%, 50%)","hsl(0, 50%, 50%)","[""hsl(225, 50%, 50%)"",""hsl(0, 50%, 50%)""]","10","8","circle","black","3","2","2","16.597014925373134","[7,10,17,17,17,16,17,17,17,17,17,17,17,17,17,17,17,17,17,17,17,17,17,16,17,17,17,17,17,16,17,17,17,17,17,17,17,17,17,17,17,17,17,16,17,17,17,16,17,16,17,18,17,17,17,16,17,16,16,17,17,17,17,16,17,17,16]","67","600","250","false","20","20","black","1","false","1","1","1200","660","response","f","yes","other",""
"","","","","","html-keyboard-response","98","1423410","0.0-5.0-1.0-0.0-3.0-0.0-0.0-1.0-0.8","null","fixation","null","<p style='font-size: 48px; color: white'>+</p >","","","","","","","","","","","","","","","","","","","","","","","","","","","","","","","","","","","","","","","","","","","","","","",""
"","","","","","rdk","99","1425454","0.0-5.0-1.0-0.0-3.0-0.0-0.0-1.0-1.8","1042","match_RDK","j","","true","[""f"",""j""]","[""j""]","3000","true","2","[80,20]","1","0","0","0","5","1","-1","3","500","500","hsl(225, 50%, 50%)","hsl(0, 50%, 50%)","[""hsl(0, 50%, 50%)"",""hsl(225, 50%, 50%)""]","10","8","circle","black","3","2","2","16.661290322580644","[10,17,18,16,17,17,17,17,17,17,16,16,17,16,17,17,17,17,16,17,16,16,17,17,17,17,17,17,17,17,17,17,17,17,16,17,17,16,17,15,17,17,16,17,18,16,17,16,17,17,17,17,17,17,17,16,17,17,17,16,17,17]","62","600","250","false","20","20","black","1","false","1","1","1200","660","response","j","no","other",""
"","","","","","html-keyboard-response","100","1426476","0.0-5.0-1.0-0.0-3.0-0.0-0.0-1.0-0.9","null","fixation","null","<p style='font-size: 48px; color: white'>+</p >","","","","","","","","","","","","","","","","","","","","","","","","","","","","","","","","","","","","","","","","","","","","","","",""
"","","","","","rdk","101","1428527","0.0-5.0-1.0-0.0-3.0-0.0-0.0-1.0-1.9","1049","match_RDK","f","","true","[""f"",""j""]","[""f""]","3000","true","2","[80,20]","1","0","0","0","5","1","-1","3","500","500","hsl(225, 50%, 50%)","hsl(0, 50%, 50%)","[""hsl(225, 50%, 50%)"",""hsl(0, 50%, 50%)""]","10","8","circle","black","3","2","2","16.857142857142858","[12,17,17,17,17,17,16,17,17,17,17,17,17,17,17,17,17,16,17,17,17,17,17,17,17,17,17,17,17,17,17,17,17,17,17,17,17,17,17,17,17,17,17,16,17,17,17,17,17,17,17,17,16,17,17,17,17,17,17,17,17,17,17]","63","600","250","false","20","20","black","1","false","1","1","1200","660","response","f","yes","other",""
"","","","","","html-keyboard-response","102","1429543","0.0-5.0-1.0-0.0-3.0-0.0-0.0-1.0-0.10","null","fixation","null","<p style='font-size: 48px; color: white'>+</p >","","","","","","","","","","","","","","","","","","","","","","","","","","","","","","","","","","","","","","","","","","","","","","",""
"","","","","","rdk","103","1431407","0.0-5.0-1.0-0.0-3.0-0.0-0.0-1.0-1.10","858","match_RDK","f","","true","[""f"",""j""]","[""f""]","3000","true","2","[80,20]","1","0","0","0","5","1","-1","3","500","500","hsl(225, 50%, 50%)","hsl(0, 50%, 50%)","[""hsl(0, 50%, 50%)"",""hsl(225, 50%, 50%)""]","10","8","circle","black","3","2","2","16.647058823529413","[8,17,17,17,17,17,17,17,16,17,17,17,16,16,17,16,17,17,18,16,17,17,17,17,17,17,17,16,17,17,17,17,16,16,17,17,17,17,17,17,17,17,17,17,17,17,16,17,17,16,17]","51","600","250","false","20","20","black","1","false","1","1","1200","660","response","f","yes","self",""
"","","","","","html-keyboard-response","104","1432426","0.0-5.0-1.0-0.0-3.0-0.0-0.0-1.0-0.11","null","fixation","null","<p style='font-size: 48px; color: white'>+</p >","","","","","","","","","","","","","","","","","","","","","","","","","","","","","","","","","","","","","","","","","","","","","","",""
"","","","","","rdk","105","1434398","0.0-5.0-1.0-0.0-3.0-0.0-0.0-1.0-1.11","954","match_RDK","j","","true","[""f"",""j""]","[""j""]","3000","true","2","[20,80]","1","0","0","0","5","1","-1","3","500","500","hsl(225, 50%, 50%)","hsl(0, 50%, 50%)","[""hsl(0, 50%, 50%)"",""hsl(225, 50%, 50%)""]","10","8","circle","black","3","2","2","16.859649122807017","[11,17,17,17,17,17,17,17,17,17,17,17,17,17,16,17,17,17,17,17,17,17,17,17,17,17,17,17,17,17,17,17,17,17,16,17,17,17,17,17,17,17,17,17,17,17,17,17,17,17,17,17,17,17,17,17,17]","57","600","250","false","20","20","black","1","false","1","1","1200","660","response","j","no","self",""
"","","","","","html-keyboard-response","106","1435426","0.0-5.0-1.0-0.0-3.0-0.0-0.0-1.0-0.12","null","fixation","null","<p style='font-size: 48px; color: white'>+</p >","","","","","","","","","","","","","","","","","","","","","","","","","","","","","","","","","","","","","","","","","","","","","","",""
"","","","","","rdk","107","1437598","0.0-5.0-1.0-0.0-3.0-0.0-0.0-1.0-1.12","1154","match_RDK","f","","true","[""f"",""j""]","[""f""]","3000","true","2","[80,20]","1","0","0","0","5","1","-1","3","500","500","hsl(225, 50%, 50%)","hsl(0, 50%, 50%)","[""hsl(225, 50%, 50%)"",""hsl(0, 50%, 50%)""]","10","8","circle","black","3","2","2","16.89855072463768","[12,17,17,17,17,17,17,16,17,17,17,17,17,17,17,17,17,17,17,17,17,16,17,17,17,17,17,17,17,17,17,17,17,17,17,17,17,17,17,17,17,17,17,17,17,17,17,17,17,17,17,17,17,17,17,17,17,17,17,17,17,17,17,17,17,17,17,17,17]","69","600","250","false","20","20","black","1","false","1","1","1200","660","response","f","yes","other",""
"","","","","","html-keyboard-response","108","1438626","0.0-5.0-1.0-0.0-3.0-0.0-0.0-1.0-0.13","null","fixation","null","<p style='font-size: 48px; color: white'>+</p >","","","","","","","","","","","","","","","","","","","","","","","","","","","","","","","","","","","","","","","","","","","","","","",""
"","","","","","rdk","109","1440462","0.0-5.0-1.0-0.0-3.0-0.0-0.0-1.0-1.13","833","match_RDK","f","","true","[""f"",""j""]","[""f""]","3000","true","2","[80,20]","1","0","0","0","5","1","-1","3","500","500","hsl(225, 50%, 50%)","hsl(0, 50%, 50%)","[""hsl(0, 50%, 50%)"",""hsl(225, 50%, 50%)""]","10","8","circle","black","3","2","2","16.82","[10,17,17,17,17,17,17,17,17,17,16,17,17,17,17,17,17,17,17,17,17,17,17,17,17,17,17,16,17,17,17,17,17,17,17,17,17,17,17,17,17,17,17,17,17,17,17,17,17,17]","50","600","250","false","20","20","black","1","false","1","1","1200","660","response","f","yes","self",""
"","","","","","html-keyboard-response","110","1441493","0.0-5.0-1.0-0.0-3.0-0.0-0.0-1.0-0.14","null","fixation","null","<p style='font-size: 48px; color: white'>+</p >","","","","","","","","","","","","","","","","","","","","","","","","","","","","","","","","","","","","","","","","","","","","","","",""
"","","","","","rdk","111","1443950","0.0-5.0-1.0-0.0-3.0-0.0-0.0-1.0-1.14","1455","match_RDK","j","","true","[""f"",""j""]","[""j""]","3000","true","2","[20,80]","1","0","0","0","5","1","-1","3","500","500","hsl(225, 50%, 50%)","hsl(0, 50%, 50%)","[""hsl(0, 50%, 50%)"",""hsl(225, 50%, 50%)""]","10","8","circle","black","3","2","2","16.850574712643677","[10,17,17,17,17,17,17,17,17,17,17,16,17,16,17,17,17,17,17,17,17,17,17,17,17,17,17,17,17,17,17,17,17,17,17,17,17,17,17,17,17,17,17,16,17,17,17,17,17,17,17,17,17,17,17,17,17,17,17,17,17,17,17,17,17,17,17,16,17,16,17,17,17,17,17,17,17,17,17,16,17,17,17,17,17,17,17]","87","600","250","false","20","20","black","1","false","1","1","1200","660","response","j","no","self",""
"","","","","","html-keyboard-response","112","1444976","0.0-5.0-1.0-0.0-3.0-0.0-0.0-1.0-0.15","null","fixation","null","<p style='font-size: 48px; color: white'>+</p >","","","","","","","","","","","","","","","","","","","","","","","","","","","","","","","","","","","","","","","","","","","","","","",""
"","","","","","rdk","113","1447598","0.0-5.0-1.0-0.0-3.0-0.0-0.0-1.0-1.15","1619","match_RDK","j","","true","[""f"",""j""]","[""j""]","3000","true","2","[80,20]","1","0","0","0","5","1","-1","3","500","500","hsl(225, 50%, 50%)","hsl(0, 50%, 50%)","[""hsl(0, 50%, 50%)"",""hsl(225, 50%, 50%)""]","10","8","circle","black","3","2","2","16.824742268041238","[9,17,17,17,17,18,16,17,17,18,16,17,17,17,17,17,17,17,17,17,17,17,17,17,17,17,17,17,17,17,16,17,16,17,17,17,17,16,17,18,16,17,17,17,17,17,17,17,17,17,17,16,17,17,17,17,17,17,17,17,17,17,17,17,17,17,16,17,16,17,16,17,17,17,17,17,17,17,17,17,17,16,17,17,17,16,17,17,17,17,17,17,17,17,17,17,17]","97","600","250","false","20","20","black","1","false","1","1","1200","660","response","j","no","other",""
"","","","","","html-keyboard-response","114","1448626","0.0-5.0-1.0-0.0-3.0-0.0-0.0-1.0-0.16","null","fixation","null","<p style='font-size: 48px; color: white'>+</p >","","","","","","","","","","","","","","","","","","","","","","","","","","","","","","","","","","","","","","","","","","","","","","",""
"","","","","","rdk","115","1451102","0.0-5.0-1.0-0.0-3.0-0.0-0.0-1.0-1.16","1473","match_RDK","j","","true","[""f"",""j""]","[""j""]","3000","true","2","[80,20]","1","0","0","0","5","1","-1","3","500","500","hsl(225, 50%, 50%)","hsl(0, 50%, 50%)","[""hsl(0, 50%, 50%)"",""hsl(225, 50%, 50%)""]","10","8","circle","black","3","2","2","16.738636363636363","[10,17,17,16,18,17,17,17,17,17,17,17,17,17,16,16,17,17,17,17,17,17,16,17,17,17,17,17,17,16,17,16,17,17,16,17,17,17,17,17,16,17,16,17,17,17,17,17,17,17,17,17,17,17,17,15,17,17,17,17,17,16,16,17,17,16,17,17,17,17,17,17,16,17,17,17,17,17,17,17,17,17,16,17,17,16,17,17]","88","600","250","false","20","20","black","1","false","1","1","1200","660","response","j","no","other",""
"","","","","","html-keyboard-response","116","1452127","0.0-5.0-1.0-0.0-3.0-0.0-0.0-1.0-0.17","null","fixation","null","<p style='font-size: 48px; color: white'>+</p >","","","","","","","","","","","","","","","","","","","","","","","","","","","","","","","","","","","","","","","","","","","","","","",""
"","","","","","rdk","117","1454176","0.0-5.0-1.0-0.0-3.0-0.0-0.0-1.0-1.17","1047","match_RDK","j","","true","[""f"",""j""]","[""j""]","3000","true","2","[20,80]","1","0","0","0","5","1","-1","3","500","500","hsl(225, 50%, 50%)","hsl(0, 50%, 50%)","[""hsl(0, 50%, 50%)"",""hsl(225, 50%, 50%)""]","10","8","circle","black","3","2","2","16.825396825396826","[10,17,17,17,17,17,17,17,16,17,17,17,17,17,17,17,16,17,17,17,16,17,17,17,17,17,17,17,17,17,17,17,17,17,16,17,17,17,17,17,17,17,17,17,17,17,17,17,17,17,17,17,17,17,17,17,17,17,17,17,17,17,17]","63","600","250","false","20","20","black","1","false","1","1","1200","660","response","j","no","self",""
"","","","","","html-keyboard-response","118","1455192","0.0-5.0-1.0-0.0-3.0-0.0-0.0-1.0-0.18","null","fixation","null","<p style='font-size: 48px; color: white'>+</p >","","","","","","","","","","","","","","","","","","","","","","","","","","","","","","","","","","","","","","","","","","","","","","",""
"","","","","","rdk","119","1457150","0.0-5.0-1.0-0.0-3.0-0.0-0.0-1.0-1.18","952","match_RDK","f","","true","[""f"",""j""]","[""f""]","3000","true","2","[80,20]","1","0","0","0","5","1","-1","3","500","500","hsl(225, 50%, 50%)","hsl(0, 50%, 50%)","[""hsl(0, 50%, 50%)"",""hsl(225, 50%, 50%)""]","10","8","circle","black","3","2","2","16.68421052631579","[8,16,17,17,17,17,17,17,17,16,17,16,17,17,17,16,17,17,17,17,17,17,17,17,17,17,17,17,17,17,16,17,16,17,17,17,17,17,16,17,17,17,17,16,17,17,17,17,17,17,17,17,17,17,17,17,16]","57","600","250","false","20","20","black","1","false","1","1","1200","660","response","f","yes","self",""
"","","","","","html-keyboard-response","120","1458176","0.0-5.0-1.0-0.0-3.0-0.0-0.0-1.0-0.19","null","fixation","null","<p style='font-size: 48px; color: white'>+</p >","","","","","","","","","","","","","","","","","","","","","","","","","","","","","","","","","","","","","","","","","","","","","","",""
"","","","","","rdk","121","1460415","0.0-5.0-1.0-0.0-3.0-0.0-0.0-1.0-1.19","1236","match_RDK","f","","true","[""f"",""j""]","[""f""]","3000","true","2","[80,20]","1","0","0","0","5","1","-1","3","500","500","hsl(225, 50%, 50%)","hsl(0, 50%, 50%)","[""hsl(225, 50%, 50%)"",""hsl(0, 50%, 50%)""]","10","8","circle","black","3","2","2","16.864864864864863","[10,17,17,17,17,17,17,17,17,17,17,17,17,17,17,17,17,17,17,17,17,17,17,17,17,17,17,17,17,17,17,17,16,17,17,17,17,18,16,17,17,17,17,17,17,17,17,17,17,17,17,17,17,17,17,17,17,17,16,17,17,17,17,17,17,17,17,17,17,17,17,17,16,17]","74","600","250","false","20","20","black","1","false","1","1","1200","660","response","f","yes","other",""
"","","","","","html-keyboard-response","122","1461428","0.0-5.0-1.0-0.0-3.0-0.0-0.0-1.0-0.20","null","fixation","null","<p style='font-size: 48px; color: white'>+</p >","","","","","","","","","","","","","","","","","","","","","","","","","","","","","","","","","","","","","","","","","","","","","","",""
"","","","","","rdk","123","1463854","0.0-5.0-1.0-0.0-3.0-0.0-0.0-1.0-1.20","1411","match_RDK","f","","true","[""f"",""j""]","[""f""]","3000","true","2","[80,20]","1","0","0","0","5","1","-1","3","500","500","hsl(225, 50%, 50%)","hsl(0, 50%, 50%)","[""hsl(225, 50%, 50%)"",""hsl(0, 50%, 50%)""]","10","8","circle","black","3","2","2","16.86904761904762","[12,17,17,17,17,17,17,17,17,17,17,17,17,17,17,17,17,17,17,17,17,17,16,16,17,17,17,17,17,16,16,17,17,17,17,17,17,17,17,17,17,17,17,17,17,17,17,17,17,17,17,17,17,17,17,17,17,17,17,17,17,17,17,16,17,16,17,17,17,17,17,17,17,17,17,17,17,17,17,17,17,17,17,17]","84","600","250","false","20","20","black","1","false","1","1","1200","660","response","f","yes","other",""
"","","","","","html-keyboard-response","124","1464877","0.0-5.0-1.0-0.0-3.0-0.0-0.0-1.0-0.21","null","fixation","null","<p style='font-size: 48px; color: white'>+</p >","","","","","","","","","","","","","","","","","","","","","","","","","","","","","","","","","","","","","","","","","","","","","","",""
"","","","","","rdk","125","1466960","0.0-5.0-1.0-0.0-3.0-0.0-0.0-1.0-1.21","1066","match_RDK","j","","true","[""f"",""j""]","[""j""]","3000","true","2","[80,20]","1","0","0","0","5","1","-1","3","500","500","hsl(225, 50%, 50%)","hsl(0, 50%, 50%)","[""hsl(0, 50%, 50%)"",""hsl(225, 50%, 50%)""]","10","8","circle","black","3","2","2","16.90625","[12,17,17,17,17,17,17,17,17,17,17,17,17,17,17,17,17,17,17,17,17,17,17,17,17,17,17,17,17,17,17,17,17,17,17,17,17,17,17,17,17,17,17,17,17,17,17,17,17,17,17,17,16,17,16,17,17,17,17,17,17,17,17,18]","64","600","250","false","20","20","black","1","false","1","1","1200","660","response","j","no","other",""
"","","","","","html-keyboard-response","126","1467976","0.0-5.0-1.0-0.0-3.0-0.0-0.0-1.0-0.22","null","fixation","null","<p style='font-size: 48px; color: white'>+</p >","","","","","","","","","","","","","","","","","","","","","","","","","","","","","","","","","","","","","","","","","","","","","","",""
"","","","","","rdk","127","1470413","0.0-5.0-1.0-0.0-3.0-0.0-0.0-1.0-1.22","1434","match_RDK","j","","true","[""f"",""j""]","[""j""]","3000","true","2","[20,80]","1","0","0","0","5","1","-1","3","500","500","hsl(225, 50%, 50%)","hsl(0, 50%, 50%)","[""hsl(0, 50%, 50%)"",""hsl(225, 50%, 50%)""]","10","8","circle","black","3","2","2","16.837209302325583","[10,16,17,17,17,17,17,17,17,17,17,17,17,17,16,16,17,17,17,17,17,17,16,17,17,17,17,17,17,17,17,17,17,17,17,17,17,17,17,17,17,17,17,17,17,17,17,17,17,17,17,17,17,17,17,17,17,16,17,17,17,17,17,17,17,17,17,17,17,17,16,17,17,16,17,17,17,17,17,17,17,17,17,17,17,17]","86","600","250","false","20","20","black","1","false","1","1","1200","660","response","j","no","self",""
"","","","","","html-keyboard-response","128","1471443","0.0-5.0-1.0-0.0-3.0-0.0-0.0-1.0-0.23","null","fixation","null","<p style='font-size: 48px; color: white'>+</p >","","","","","","","","","","","","","","","","","","","","","","","","","","","","","","","","","","","","","","","","","","","","","","",""
"","","","","","rdk","129","1473758","0.0-5.0-1.0-0.0-3.0-0.0-0.0-1.0-1.23","1306","match_RDK","f","","true","[""f"",""j""]","[""f""]","3000","true","2","[80,20]","1","0","0","0","5","1","-1","3","500","500","hsl(225, 50%, 50%)","hsl(0, 50%, 50%)","[""hsl(0, 50%, 50%)"",""hsl(225, 50%, 50%)""]","10","8","circle","black","3","2","2","16.72151898734177","[9,10,17,17,16,17,17,17,17,17,17,17,17,17,17,16,17,17,17,17,17,16,17,17,17,17,17,17,17,17,17,17,17,17,16,17,17,17,16,17,17,17,17,17,17,17,17,17,17,17,17,17,17,17,17,17,17,17,17,17,17,17,17,17,17,17,17,17,17,16,17,17,17,17,17,18,16,17,16]","79","600","250","false","20","20","black","1","false","1","1","1200","660","response","f","yes","self",""
"","","","","","html-keyboard-response","130","1474777","0.0-5.0-1.0-0.0-3.0-0.0-0.0-1.0-0.24","null","fixation","null","<p style='font-size: 48px; color: white'>+</p >","","","","","","","","","","","","","","","","","","","","","","","","","","","","","","","","","","","","","","","","","","","","","","",""
"","","","","","rdk","131","1476815","0.0-5.0-1.0-0.0-3.0-0.0-0.0-1.0-1.24","1021","match_RDK","f","","true","[""f"",""j""]","[""f""]","3000","true","2","[80,20]","1","0","0","0","5","1","-1","3","500","500","hsl(225, 50%, 50%)","hsl(0, 50%, 50%)","[""hsl(0, 50%, 50%)"",""hsl(225, 50%, 50%)""]","10","8","circle","black","3","2","2","16.81967213114754","[11,17,17,17,17,16,18,16,17,17,17,17,17,17,17,16,17,17,17,17,17,17,17,17,17,17,17,17,17,17,17,17,17,17,17,17,17,17,17,16,17,17,17,16,17,17,17,17,17,17,17,17,17,17,17,16,17,17,17,17,17]","61","600","250","false","20","20","black","1","false","1","1","1200","660","response","f","yes","self",""
"","","","","","html-keyboard-response","132","1477843","0.0-5.0-1.0-0.0-3.0-0.0-0.0-1.0-0.25","null","fixation","null","<p style='font-size: 48px; color: white'>+</p >","","","","","","","","","","","","","","","","","","","","","","","","","","","","","","","","","","","","","","","","","","","","","","",""
"","","","","","rdk","133","1479918","0.0-5.0-1.0-0.0-3.0-0.0-0.0-1.0-1.25","1072","match_RDK","j","","true","[""f"",""j""]","[""j""]","3000","true","2","[20,80]","1","0","0","0","5","1","-1","3","500","500","hsl(225, 50%, 50%)","hsl(0, 50%, 50%)","[""hsl(0, 50%, 50%)"",""hsl(225, 50%, 50%)""]","10","8","circle","black","3","2","2","16.828125","[11,17,17,17,17,17,16,17,17,17,17,17,17,17,16,17,17,17,17,17,17,17,16,17,16,17,17,17,17,17,17,17,17,17,17,17,17,17,17,17,17,17,17,17,17,17,17,17,17,17,17,17,17,17,17,17,17,17,17,17,17,17,17,16]","64","600","250","false","20","20","black","1","false","1","1","1200","660","response","j","no","self",""
"","","","","","html-keyboard-response","134","1480944","0.0-5.0-1.0-0.0-3.0-0.0-0.0-1.0-0.26","null","fixation","null","<p style='font-size: 48px; color: white'>+</p >","","","","","","","","","","","","","","","","","","","","","","","","","","","","","","","","","","","","","","","","","","","","","","",""
"","","","","","rdk","135","1483150","0.0-5.0-1.0-0.0-3.0-0.0-0.0-1.0-1.26","1189","match_RDK","f","","true","[""f"",""j""]","[""f""]","3000","true","2","[80,20]","1","0","0","0","5","1","-1","3","500","500","hsl(225, 50%, 50%)","hsl(0, 50%, 50%)","[""hsl(225, 50%, 50%)"",""hsl(0, 50%, 50%)""]","10","8","circle","black","3","2","2","16.859154929577464","[12,17,17,17,17,17,17,16,16,17,17,17,17,17,17,17,17,17,17,17,17,17,17,17,17,17,17,17,17,16,17,17,17,17,17,17,17,17,17,17,16,17,17,17,17,17,17,17,17,17,17,17,17,17,17,17,17,17,17,17,17,17,17,17,17,17,16,17,17,17,17]","71","600","250","false","20","20","black","1","false","1","1","1200","660","response","f","yes","other",""
"","","","","","html-keyboard-response","136","1484176","0.0-5.0-1.0-0.0-3.0-0.0-0.0-1.0-0.27","null","fixation","null","<p style='font-size: 48px; color: white'>+</p >","","","","","","","","","","","","","","","","","","","","","","","","","","","","","","","","","","","","","","","","","","","","","","",""
"","","","","","rdk","137","1486542","0.0-5.0-1.0-0.0-3.0-0.0-0.0-1.0-1.27","1364","match_RDK","j","","true","[""f"",""j""]","[""j""]","3000","true","2","[80,20]","1","0","0","0","5","1","-1","3","500","500","hsl(225, 50%, 50%)","hsl(0, 50%, 50%)","[""hsl(0, 50%, 50%)"",""hsl(225, 50%, 50%)""]","10","8","circle","black","3","2","2","16.914634146341463","[11,17,17,17,17,17,17,17,17,16,17,17,17,17,17,17,17,17,17,17,17,17,17,17,17,17,17,17,17,17,17,17,17,17,17,17,17,17,17,17,17,17,17,17,17,17,17,17,17,17,17,17,17,17,17,17,17,17,17,17,17,17,17,17,17,17,17,17,17,17,17,17,17,17,17,17,17,17,17,17,17,17]","82","600","250","false","20","20","black","1","false","1","1","1200","660","response","j","no","other",""
"","","","","","html-keyboard-response","138","1487560","0.0-5.0-1.0-0.0-3.0-0.0-0.0-1.0-0.28","null","fixation","null","<p style='font-size: 48px; color: white'>+</p >","","","","","","","","","","","","","","","","","","","","","","","","","","","","","","","","","","","","","","","","","","","","","","",""
"","","","","","rdk","139","1489663","0.0-5.0-1.0-0.0-3.0-0.0-0.0-1.0-1.28","1101","match_RDK","f","","true","[""f"",""j""]","[""f""]","3000","true","2","[80,20]","1","0","0","0","5","1","-1","3","500","500","hsl(225, 50%, 50%)","hsl(0, 50%, 50%)","[""hsl(0, 50%, 50%)"",""hsl(225, 50%, 50%)""]","10","8","circle","black","3","2","2","16.833333333333332","[11,17,17,17,17,17,17,17,17,17,17,16,17,17,17,17,17,17,17,17,17,17,17,17,17,17,17,17,17,17,17,17,17,16,17,17,17,17,17,16,16,17,17,17,17,17,17,17,17,17,17,17,17,17,17,17,17,17,17,17,17,17,17,16,17,17]","66","600","250","false","20","20","black","1","false","1","1","1200","660","response","f","yes","self",""
"","","","","","html-keyboard-response","140","1490693","0.0-5.0-1.0-0.0-3.0-0.0-0.0-1.0-0.29","null","fixation","null","<p style='font-size: 48px; color: white'>+</p >","","","","","","","","","","","","","","","","","","","","","","","","","","","","","","","","","","","","","","","","","","","","","","",""
"","","","","","rdk","141","1492960","0.0-5.0-1.0-0.0-3.0-0.0-0.0-1.0-1.29","1264","match_RDK","f","","true","[""f"",""j""]","[""f""]","3000","true","2","[80,20]","1","0","0","0","5","1","-1","3","500","500","hsl(225, 50%, 50%)","hsl(0, 50%, 50%)","[""hsl(225, 50%, 50%)"",""hsl(0, 50%, 50%)""]","10","8","circle","black","3","2","2","16.82894736842105","[10,17,17,17,17,17,17,17,17,17,16,17,17,17,17,17,17,17,17,17,17,17,17,17,16,17,16,16,17,17,17,17,17,17,17,17,17,16,17,17,17,16,17,17,17,17,17,17,17,17,17,17,17,17,17,17,17,17,17,17,17,17,17,17,17,17,17,17,16,17,17,17,17,17,17,18]","76","600","250","false","20","20","black","1","false","1","1","1200","660","response","f","yes","other",""
"","","","","","html-keyboard-response","142","1493976","0.0-5.0-1.0-0.0-3.0-0.0-0.0-1.0-0.30","null","fixation","null","<p style='font-size: 48px; color: white'>+</p >","","","","","","","","","","","","","","","","","","","","","","","","","","","","","","","","","","","","","","","","","","","","","","",""
"","","","","","rdk","143","1496127","0.0-5.0-1.0-0.0-3.0-0.0-0.0-1.0-1.30","1147","match_RDK","j","","true","[""f"",""j""]","[""j""]","3000","true","2","[80,20]","1","0","0","0","5","1","-1","3","500","500","hsl(225, 50%, 50%)","hsl(0, 50%, 50%)","[""hsl(0, 50%, 50%)"",""hsl(225, 50%, 50%)""]","10","8","circle","black","3","2","2","16.695652173913043","[10,17,17,17,16,18,16,16,16,17,17,17,16,18,17,17,17,17,16,17,17,16,17,17,17,17,17,16,17,17,16,17,17,16,17,17,16,17,16,17,17,17,17,17,17,17,17,16,17,17,17,17,17,17,17,17,17,16,17,17,17,17,16,17,17,17,16,17,17]","69","600","250","false","20","20","black","1","false","1","1","1200","660","response","j","no","other",""
"","","","","","html-keyboard-response","144","1497143","0.0-5.0-1.0-0.0-3.0-0.0-0.0-1.0-0.31","null","fixation","null","<p style='font-size: 48px; color: white'>+</p >","","","","","","","","","","","","","","","","","","","","","","","","","","","","","","","","","","","","","","","","","","","","","","",""
"","","","","","rdk","145","1499360","0.0-5.0-1.0-0.0-3.0-0.0-0.0-1.0-1.31","1214","match_RDK","j","","true","[""f"",""j""]","[""j""]","3000","true","2","[20,80]","1","0","0","0","5","1","-1","3","500","500","hsl(225, 50%, 50%)","hsl(0, 50%, 50%)","[""hsl(0, 50%, 50%)"",""hsl(225, 50%, 50%)""]","10","8","circle","black","3","2","2","16.753424657534246","[9,18,16,17,17,17,18,17,17,17,17,17,17,17,17,17,16,17,17,17,17,17,17,16,18,16,17,17,17,17,16,17,17,17,16,17,15,17,16,17,17,16,17,17,16,16,17,17,17,17,17,17,17,17,17,17,17,17,17,16,17,17,17,17,16,17,17,17,17,17,17,17,18]","73","600","250","false","20","20","black","1","false","1","1","1200","660","response","j","no","self",""
"","","","","","html-keyboard-response","146","1500376","0.0-5.0-1.0-0.0-3.0-0.0-0.0-1.0-0.32","null","fixation","null","<p style='font-size: 48px; color: white'>+</p >","","","","","","","","","","","","","","","","","","","","","","","","","","","","","","","","","","","","","","","","","","","","","","",""
"","","","","","rdk","147","1502782","0.0-5.0-1.0-0.0-3.0-0.0-0.0-1.0-1.32","1403","match_RDK","j","","true","[""f"",""j""]","[""j""]","3000","true","2","[20,80]","1","0","0","0","5","1","-1","3","500","500","hsl(225, 50%, 50%)","hsl(0, 50%, 50%)","[""hsl(0, 50%, 50%)"",""hsl(225, 50%, 50%)""]","10","8","circle","black","3","2","2","16.833333333333332","[10,17,17,17,17,17,17,17,16,17,17,17,17,17,17,17,17,17,17,17,17,17,17,17,17,16,17,17,17,16,16,17,17,17,17,17,17,17,17,17,17,17,17,17,17,17,17,16,17,17,17,17,17,17,17,17,17,17,17,17,17,17,17,16,17,17,17,17,17,17,17,17,17,17,17,17,17,16,17,17,17,17,17,17]","84","600","250","false","20","20","black","1","false","1","1","1200","660","response","j","no","self",""
"","","","","","html-keyboard-response","148","1503810","0.0-5.0-1.0-0.0-3.0-0.0-0.0-1.0-0.33","null","fixation","null","<p style='font-size: 48px; color: white'>+</p >","","","","","","","","","","","","","","","","","","","","","","","","","","","","","","","","","","","","","","","","","","","","","","",""
"","","","","","rdk","149","1506031","0.0-5.0-1.0-0.0-3.0-0.0-0.0-1.0-1.33","1218","match_RDK","f","","true","[""f"",""j""]","[""f""]","3000","true","2","[80,20]","1","0","0","0","5","1","-1","3","500","500","hsl(225, 50%, 50%)","hsl(0, 50%, 50%)","[""hsl(225, 50%, 50%)"",""hsl(0, 50%, 50%)""]","10","8","circle","black","3","2","2","16.78082191780822","[10,18,17,16,16,17,17,17,17,17,16,17,17,16,17,17,17,17,16,17,17,17,17,17,17,17,17,17,17,17,17,17,17,17,17,17,17,17,17,17,17,17,17,17,17,17,17,16,17,17,16,17,17,17,17,16,17,17,17,16,17,17,16,17,17,17,17,17,17,17,17,17,17]","73","600","250","false","20","20","black","1","false","1","1","1200","660","response","f","yes","other",""
"","","","","","html-keyboard-response","150","1507060","0.0-5.0-1.0-0.0-3.0-0.0-0.0-1.0-0.34","null","fixation","null","<p style='font-size: 48px; color: white'>+</p >","","","","","","","","","","","","","","","","","","","","","","","","","","","","","","","","","","","","","","","","","","","","","","",""
"","","","","","rdk","151","1509086","0.0-5.0-1.0-0.0-3.0-0.0-0.0-1.0-1.34","1009","match_RDK","j","","true","[""f"",""j""]","[""j""]","3000","true","2","[80,20]","1","0","0","0","5","1","-1","3","500","500","hsl(225, 50%, 50%)","hsl(0, 50%, 50%)","[""hsl(0, 50%, 50%)"",""hsl(225, 50%, 50%)""]","10","8","circle","black","3","2","2","16.833333333333332","[12,17,17,17,17,17,17,17,17,17,16,17,17,17,17,17,17,17,17,17,17,17,17,17,17,17,17,17,16,17,17,17,17,17,17,16,17,17,17,17,16,17,17,17,17,17,17,17,17,17,17,17,17,17,17,17,16,17,17,17]","60","600","250","false","20","20","black","1","false","1","1","1200","660","response","j","no","other",""
"","","","","","html-keyboard-response","152","1510110","0.0-5.0-1.0-0.0-3.0-0.0-0.0-1.0-0.35","null","fixation","null","<p style='font-size: 48px; color: white'>+</p >","","","","","","","","","","","","","","","","","","","","","","","","","","","","","","","","","","","","","","","","","","","","","","",""
"","","","","","rdk","153","1512143","0.0-5.0-1.0-0.0-3.0-0.0-0.0-1.0-1.35","1030","match_RDK","f","","true","[""f"",""j""]","[""f""]","3000","true","2","[80,20]","1","0","0","0","5","1","-1","3","500","500","hsl(225, 50%, 50%)","hsl(0, 50%, 50%)","[""hsl(0, 50%, 50%)"",""hsl(225, 50%, 50%)""]","10","8","circle","black","3","2","2","16.725806451612904","[10,16,17,17,17,17,17,16,17,16,17,17,17,17,17,17,17,17,17,16,17,16,17,17,17,17,17,16,17,17,17,17,17,17,17,17,17,17,17,17,17,17,17,17,16,17,17,17,17,17,17,17,17,17,17,17,16,17,16,17,16,17]","62","600","250","false","20","20","black","1","false","1","1","1200","660","response","f","yes","self",""
"","","","","","html-keyboard-response","154","1513160","0.0-5.0-1.0-0.0-3.0-0.0-0.0-1.0-0.36","null","fixation","null","<p style='font-size: 48px; color: white'>+</p >","","","","","","","","","","","","","","","","","","","","","","","","","","","","","","","","","","","","","","","","","","","","","","",""
"","","","","","rdk","155","1515151","0.0-5.0-1.0-0.0-3.0-0.0-0.0-1.0-1.36","988","match_RDK","f","","true","[""f"",""j""]","[""f""]","3000","true","2","[80,20]","1","0","0","0","5","1","-1","3","500","500","hsl(225, 50%, 50%)","hsl(0, 50%, 50%)","[""hsl(0, 50%, 50%)"",""hsl(225, 50%, 50%)""]","10","8","circle","black","3","2","2","16.847457627118644","[10,17,17,17,17,17,17,17,17,17,17,17,17,17,17,17,17,17,17,17,17,17,17,17,17,17,17,17,17,17,17,17,17,17,17,17,17,17,17,17,17,17,17,17,17,17,17,17,16,17,17,17,17,17,16,17,17,17,17]","59","600","250","false","20","20","black","1","false","1","1","1200","660","response","f","yes","self",""
"","","","","","html-keyboard-response","156","1516162","0.0-5.0-1.0-0.0-3.0-0.0-0.0-1.0-0.37","null","fixation","null","<p style='font-size: 48px; color: white'>+</p >","","","","","","","","","","","","","","","","","","","","","","","","","","","","","","","","","","","","","","","","","","","","","","",""
"","","","","","rdk","157","1518271","0.0-5.0-1.0-0.0-3.0-0.0-0.0-1.0-1.37","1092","match_RDK","f","","true","[""f"",""j""]","[""f""]","3000","true","2","[80,20]","1","0","0","0","5","1","-1","3","500","500","hsl(225, 50%, 50%)","hsl(0, 50%, 50%)","[""hsl(225, 50%, 50%)"",""hsl(0, 50%, 50%)""]","10","8","circle","black","3","2","2","16.8","[11,17,17,17,17,17,17,16,17,17,17,17,17,17,17,17,17,17,17,17,17,17,17,17,17,17,17,17,17,16,17,16,17,17,17,16,17,17,17,16,17,17,17,17,17,17,17,17,17,17,17,17,17,17,17,17,16,17,17,17,17,16,17,17,17]","65","600","250","false","20","20","black","1","false","1","1","1200","660","response","f","yes","other",""
"","","","","","html-keyboard-response","158","1519278","0.0-5.0-1.0-0.0-3.0-0.0-0.0-1.0-0.38","null","fixation","null","<p style='font-size: 48px; color: white'>+</p >","","","","","","","","","","","","","","","","","","","","","","","","","","","","","","","","","","","","","","","","","","","","","","",""
"","","","","","rdk","159","1521247","0.0-5.0-1.0-0.0-3.0-0.0-0.0-1.0-1.38","951","match_RDK","j","","true","[""f"",""j""]","[""j""]","3000","true","2","[20,80]","1","0","0","0","5","1","-1","3","500","500","hsl(225, 50%, 50%)","hsl(0, 50%, 50%)","[""hsl(0, 50%, 50%)"",""hsl(225, 50%, 50%)""]","10","8","circle","black","3","2","2","16.789473684210527","[10,17,17,17,17,16,17,17,17,16,17,17,17,17,17,16,17,17,17,17,17,17,17,17,17,17,17,17,17,17,17,17,17,17,17,17,17,17,17,17,16,17,17,17,17,17,17,17,16,17,17,17,17,17,17,17,17]","57","600","250","false","20","20","black","1","false","1","1","1200","660","response","j","no","self",""
"","","","","","html-keyboard-response","160","1522277","0.0-5.0-1.0-0.0-3.0-0.0-0.0-1.0-0.39","null","fixation","null","<p style='font-size: 48px; color: white'>+</p >","","","","","","","","","","","","","","","","","","","","","","","","","","","","","","","","","","","","","","","","","","","","","","",""
"","","","","","rdk","161","1524318","0.0-5.0-1.0-0.0-3.0-0.0-0.0-1.0-1.39","1034","match_RDK","f","","false","[""f"",""j""]","[""j""]","3000","true","2","[80,20]","1","0","0","0","5","1","-1","3","500","500","hsl(225, 50%, 50%)","hsl(0, 50%, 50%)","[""hsl(0, 50%, 50%)"",""hsl(225, 50%, 50%)""]","10","8","circle","black","3","2","2","16.677419354838708","[7,15,17,17,16,18,16,17,17,17,16,16,18,16,17,17,17,17,17,17,17,17,17,17,17,17,17,17,17,17,17,17,17,16,16,18,16,17,17,17,17,17,17,17,17,17,17,17,17,16,17,17,17,17,16,16,17,17,17,17,17,17]","62","600","250","false","20","20","black","1","false","1","1","1200","660","response","j","no","other",""
"","","","","","html-keyboard-response","162","1527844","0.0-5.0-1.0-0.0-3.0-0.0-0.0-2.0","null","","null","<p style='font-size: 35px; color: white'>这组测试中，您正确回答了： 98% 的试次。平均反应时为：1151毫秒。</p>","","","","","","","","","","","","","","","","","","","","","","","","","","","","","","","","","","","","","","","","","","","","","","",""
"","","","","","html-keyboard-response","163","1532030","0.0-5.0-1.0-0.0-3.0-0.0-0.0-3.0","3170","instruction_rest"," ","
    <div style=""text-align: center; color: white; padding: 35px; font-size: 35px"">
      <p>请休息一下，若准备好可按空格键继续</p >
    </div>
    ","","","","","","","","","","","","","","","","","","","","","","","","","","","","","","","","","","","","","","","","","","","","","","",""
"","","","","","html-keyboard-response","164","1533559","0.0-5.0-1.0-0.0-3.0-0.0-0.0-4.0-0.0","null","fixation","null","<p style='font-size: 48px; color: white'>+</p >","","","","","","","","","","","","","","","","","","","","","","","","","","","","","","","","","","","","","","","","","","","","","","",""
"","","","","","rdk","165","1535582","0.0-5.0-1.0-0.0-3.0-0.0-0.0-4.0-1.0","1016","match_RDK","f","","true","[""f"",""j""]","[""f""]","3000","true","2","[80,20]","1","0","0","0","5","1","-1","3","500","500","hsl(225, 50%, 50%)","hsl(0, 50%, 50%)","[""hsl(0, 50%, 50%)"",""hsl(225, 50%, 50%)""]","10","8","circle","black","3","2","2","16.688524590163933","[7,16,17,17,16,18,16,17,16,17,17,17,17,17,17,17,17,17,17,17,17,17,17,17,17,17,17,17,17,17,17,16,17,16,17,17,17,17,17,16,17,17,17,17,17,16,17,17,17,17,17,17,17,16,17,17,17,17,16,17,17]","61","600","250","false","20","20","black","1","false","1","1","1200","660","response","f","yes","self",""
"","","","","","html-keyboard-response","166","1536610","0.0-5.0-1.0-0.0-3.0-0.0-0.0-4.0-0.1","null","fixation","null","<p style='font-size: 48px; color: white'>+</p >","","","","","","","","","","","","","","","","","","","","","","","","","","","","","","","","","","","","","","","","","","","","","","",""
"","","","","","rdk","167","1538782","0.0-5.0-1.0-0.0-3.0-0.0-0.0-4.0-1.1","1169","match_RDK","f","","true","[""f"",""j""]","[""f""]","3000","true","2","[80,20]","1","0","0","0","5","1","-1","3","500","500","hsl(225, 50%, 50%)","hsl(0, 50%, 50%)","[""hsl(225, 50%, 50%)"",""hsl(0, 50%, 50%)""]","10","8","circle","black","3","2","2","16.785714285714285","[10,17,17,17,17,17,17,16,17,16,17,17,17,16,17,17,17,17,17,17,17,17,17,17,17,17,17,17,17,17,16,17,17,17,17,17,16,17,17,17,17,17,17,17,16,17,17,17,17,17,17,17,17,17,17,17,17,17,17,17,17,17,17,17,17,17,17,17,16,16]","70","600","250","false","20","20","black","1","false","1","1","1200","660","response","f","yes","other",""
"","","","","","html-keyboard-response","168","1539810","0.0-5.0-1.0-0.0-3.0-0.0-0.0-4.0-0.2","null","fixation","null","<p style='font-size: 48px; color: white'>+</p >","","","","","","","","","","","","","","","","","","","","","","","","","","","","","","","","","","","","","","","","","","","","","","",""
"","","","","","rdk","169","1542223","0.0-5.0-1.0-0.0-3.0-0.0-0.0-4.0-1.2","1410","match_RDK","j","","true","[""f"",""j""]","[""j""]","3000","true","2","[80,20]","1","0","0","0","5","1","-1","3","500","500","hsl(225, 50%, 50%)","hsl(0, 50%, 50%)","[""hsl(0, 50%, 50%)"",""hsl(225, 50%, 50%)""]","10","8","circle","black","3","2","2","16.797619047619047","[10,17,17,17,17,17,17,16,17,17,17,16,17,17,17,17,17,17,17,17,17,17,17,17,17,17,17,17,17,17,17,17,17,17,16,17,17,17,17,17,17,16,17,17,17,17,17,17,17,17,17,17,17,17,16,17,17,17,17,17,17,16,17,17,17,16,17,17,17,17,17,16,17,17,17,17,17,17,17,17,17,16,17,16]","84","600","250","false","20","20","black","1","false","1","1","1200","660","response","j","no","other",""
"","","","","","html-keyboard-response","170","1543244","0.0-5.0-1.0-0.0-3.0-0.0-0.0-4.0-0.3","null","fixation","null","<p style='font-size: 48px; color: white'>+</p >","","","","","","","","","","","","","","","","","","","","","","","","","","","","","","","","","","","","","","","","","","","","","","",""
"","","","","","rdk","171","1545278","0.0-5.0-1.0-0.0-3.0-0.0-0.0-4.0-1.3","1030","match_RDK","j","","true","[""f"",""j""]","[""j""]","3000","true","2","[20,80]","1","0","0","0","5","1","-1","3","500","500","hsl(225, 50%, 50%)","hsl(0, 50%, 50%)","[""hsl(0, 50%, 50%)"",""hsl(225, 50%, 50%)""]","10","8","circle","black","3","2","2","16.758064516129032","[9,17,17,17,17,17,17,17,17,17,17,17,17,17,17,17,16,17,17,17,17,17,17,17,17,17,17,17,17,17,17,16,17,17,17,17,17,17,17,17,17,16,17,17,17,17,17,16,17,16,17,17,16,17,17,17,17,17,17,16,17,17]","62","600","250","false","20","20","black","1","false","1","1","1200","660","response","j","no","self",""
"","","","","","html-keyboard-response","172","1546295","0.0-5.0-1.0-0.0-3.0-0.0-0.0-4.0-0.4","null","fixation","null","<p style='font-size: 48px; color: white'>+</p >","","","","","","","","","","","","","","","","","","","","","","","","","","","","","","","","","","","","","","","","","","","","","","",""
"","","","","","rdk","173","1548382","0.0-5.0-1.0-0.0-3.0-0.0-0.0-4.0-1.4","1071","match_RDK","j","","true","[""f"",""j""]","[""j""]","3000","true","2","[80,20]","1","0","0","0","5","1","-1","3","500","500","hsl(225, 50%, 50%)","hsl(0, 50%, 50%)","[""hsl(0, 50%, 50%)"",""hsl(225, 50%, 50%)""]","10","8","circle","black","3","2","2","16.78125","[11,17,17,17,17,17,17,17,17,17,16,17,17,17,17,17,17,17,17,16,17,17,17,17,17,17,17,16,17,17,17,17,16,17,17,17,17,17,17,17,17,16,16,17,16,17,16,17,17,17,17,17,17,17,17,17,17,17,17,17,17,17,17,17]","64","600","250","false","20","20","black","1","false","1","1","1200","660","response","j","no","other",""
"","","","","","html-keyboard-response","174","1549411","0.0-5.0-1.0-0.0-3.0-0.0-0.0-4.0-0.5","null","fixation","null","<p style='font-size: 48px; color: white'>+</p >","","","","","","","","","","","","","","","","","","","","","","","","","","","","","","","","","","","","","","","","","","","","","","",""
"","","","","","rdk","175","1551743","0.0-5.0-1.0-0.0-3.0-0.0-0.0-4.0-1.5","1314","match_RDK","f","","true","[""f"",""j""]","[""f""]","3000","true","2","[80,20]","1","0","0","0","5","1","-1","3","500","500","hsl(225, 50%, 50%)","hsl(0, 50%, 50%)","[""hsl(225, 50%, 50%)"",""hsl(0, 50%, 50%)""]","10","8","circle","black","3","2","2","16.772151898734176","[11,16,17,17,17,17,17,16,17,17,17,17,17,17,16,17,17,17,16,17,17,16,17,17,17,17,17,17,17,17,17,17,17,17,17,17,17,16,17,17,17,17,16,17,17,17,17,17,17,17,16,17,16,17,17,17,17,17,17,16,17,17,17,17,17,17,17,17,17,17,17,17,17,17,17,16,17,16,17]","79","600","250","false","20","20","black","1","false","1","1","1200","660","response","f","yes","other",""
"","","","","","html-keyboard-response","176","1552760","0.0-5.0-1.0-0.0-3.0-0.0-0.0-4.0-0.6","null","fixation","null","<p style='font-size: 48px; color: white'>+</p >","","","","","","","","","","","","","","","","","","","","","","","","","","","","","","","","","","","","","","","","","","","","","","",""
"","","","","","rdk","177","1554961","0.0-5.0-1.0-0.0-3.0-0.0-0.0-4.0-1.6","1198","match_RDK","j","","true","[""f"",""j""]","[""j""]","3000","true","2","[20,80]","1","0","0","0","5","1","-1","3","500","500","hsl(225, 50%, 50%)","hsl(0, 50%, 50%)","[""hsl(0, 50%, 50%)"",""hsl(225, 50%, 50%)""]","10","8","circle","black","3","2","2","16.916666666666668","[11,17,17,17,17,17,17,17,17,17,17,16,17,17,17,17,17,17,17,17,17,17,17,17,17,17,17,17,17,17,17,17,17,17,17,17,17,17,17,17,17,17,17,17,17,17,17,17,17,17,17,17,17,17,17,17,17,17,17,17,17,17,17,17,17,17,17,17,17,17,17,18]","72","600","250","false","20","20","black","1","false","1","1","1200","660","response","j","no","self",""
"","","","","","html-keyboard-response","178","1555976","0.0-5.0-1.0-0.0-3.0-0.0-0.0-4.0-0.7","null","fixation","null","<p style='font-size: 48px; color: white'>+</p >","","","","","","","","","","","","","","","","","","","","","","","","","","","","","","","","","","","","","","","","","","","","","","",""
"","","","","","rdk","179","1557791","0.0-5.0-1.0-0.0-3.0-0.0-0.0-4.0-1.7","811","match_RDK","f","","true","[""f"",""j""]","[""f""]","3000","true","2","[80,20]","1","0","0","0","5","1","-1","3","500","500","hsl(225, 50%, 50%)","hsl(0, 50%, 50%)","[""hsl(0, 50%, 50%)"",""hsl(225, 50%, 50%)""]","10","8","circle","black","3","2","2","16.708333333333332","[8,18,17,17,17,17,17,17,17,17,16,17,17,16,17,17,17,17,17,17,17,17,17,17,17,17,17,17,17,17,17,16,17,17,17,17,17,17,17,17,16,17,16,17,16,17,17,17]","48","600","250","false","20","20","black","1","false","1","1","1200","660","response","f","yes","self",""
"","","","","","html-keyboard-response","180","1558810","0.0-5.0-1.0-0.0-3.0-0.0-0.0-4.0-0.8","null","fixation","null","<p style='font-size: 48px; color: white'>+</p >","","","","","","","","","","","","","","","","","","","","","","","","","","","","","","","","","","","","","","","","","","","","","","",""
"","","","","","rdk","181","1560815","0.0-5.0-1.0-0.0-3.0-0.0-0.0-4.0-1.8","1002","match_RDK","j","","true","[""f"",""j""]","[""j""]","3000","true","2","[80,20]","1","0","0","0","5","1","-1","3","500","500","hsl(225, 50%, 50%)","hsl(0, 50%, 50%)","[""hsl(0, 50%, 50%)"",""hsl(225, 50%, 50%)""]","10","8","circle","black","3","2","2","16.75","[10,17,17,17,17,17,16,17,17,16,17,17,17,17,17,17,17,17,17,17,17,17,17,17,16,17,17,17,17,17,17,17,17,17,17,17,16,17,17,17,17,17,17,17,17,17,17,17,17,16,17,16,17,17,16,17,17,17,16,17]","60","600","250","false","20","20","black","1","false","1","1","1200","660","response","j","no","other",""
"","","","","","html-keyboard-response","182","1561844","0.0-5.0-1.0-0.0-3.0-0.0-0.0-4.0-0.9","null","fixation","null","<p style='font-size: 48px; color: white'>+</p >","","","","","","","","","","","","","","","","","","","","","","","","","","","","","","","","","","","","","","","","","","","","","","",""
"","","","","","rdk","183","1563743","0.0-5.0-1.0-0.0-3.0-0.0-0.0-4.0-1.9","881","match_RDK","j","","true","[""f"",""j""]","[""j""]","3000","true","2","[20,80]","1","0","0","0","5","1","-1","3","500","500","hsl(225, 50%, 50%)","hsl(0, 50%, 50%)","[""hsl(0, 50%, 50%)"",""hsl(225, 50%, 50%)""]","10","8","circle","black","3","2","2","16.77358490566038","[11,17,17,17,17,17,17,17,17,17,17,17,16,17,17,17,17,16,17,17,16,17,17,17,17,17,17,17,17,17,17,17,17,17,17,17,17,17,17,17,17,17,17,16,16,17,17,17,17,17,17,16,17]","53","600","250","false","20","20","black","1","false","1","1","1200","660","response","j","no","self",""
"","","","","","html-keyboard-response","184","1564760","0.0-5.0-1.0-0.0-3.0-0.0-0.0-4.0-0.10","null","fixation","null","<p style='font-size: 48px; color: white'>+</p >","","","","","","","","","","","","","","","","","","","","","","","","","","","","","","","","","","","","","","","","","","","","","","",""
"","","","","","rdk","185","1566894","0.0-5.0-1.0-0.0-3.0-0.0-0.0-4.0-1.10","1132","match_RDK","f","","true","[""f"",""j""]","[""f""]","3000","true","2","[80,20]","1","0","0","0","5","1","-1","3","500","500","hsl(225, 50%, 50%)","hsl(0, 50%, 50%)","[""hsl(0, 50%, 50%)"",""hsl(225, 50%, 50%)""]","10","8","circle","black","3","2","2","16.83823529411765","[11,17,17,17,17,17,17,17,17,17,17,17,17,17,16,17,17,17,17,17,17,17,17,17,17,17,17,17,17,17,17,17,16,17,17,17,16,17,17,17,17,17,17,17,17,17,16,17,17,17,17,17,16,17,18,16,17,17,17,17,17,17,17,17,17,17,17,17]","68","600","250","false","20","20","black","1","false","1","1","1200","660","response","f","yes","self",""
"","","","","","html-keyboard-response","186","1567910","0.0-5.0-1.0-0.0-3.0-0.0-0.0-4.0-0.11","null","fixation","null","<p style='font-size: 48px; color: white'>+</p >","","","","","","","","","","","","","","","","","","","","","","","","","","","","","","","","","","","","","","","","","","","","","","",""
"","","","","","rdk","187","1569870","0.0-5.0-1.0-0.0-3.0-0.0-0.0-4.0-1.11","955","match_RDK","f","","true","[""f"",""j""]","[""f""]","3000","true","2","[80,20]","1","0","0","0","5","1","-1","3","500","500","hsl(225, 50%, 50%)","hsl(0, 50%, 50%)","[""hsl(225, 50%, 50%)"",""hsl(0, 50%, 50%)""]","10","8","circle","black","3","2","2","16.68421052631579","[9,17,17,16,17,17,17,17,17,17,17,17,16,17,16,17,17,17,17,16,17,17,17,17,17,17,17,17,17,17,17,16,17,17,16,17,17,16,17,17,17,16,17,16,17,17,17,17,17,16,17,17,17,17,17,17,17]","57","600","250","false","20","20","black","1","false","1","1","1200","660","response","f","yes","other",""
"","","","","","html-keyboard-response","188","1570893","0.0-5.0-1.0-0.0-3.0-0.0-0.0-4.0-0.12","null","fixation","null","<p style='font-size: 48px; color: white'>+</p >","","","","","","","","","","","","","","","","","","","","","","","","","","","","","","","","","","","","","","","","","","","","","","",""
"","","","","","rdk","189","1572670","0.0-5.0-1.0-0.0-3.0-0.0-0.0-4.0-1.12","775","match_RDK","j","","true","[""f"",""j""]","[""j""]","3000","true","2","[80,20]","1","0","0","0","5","1","-1","3","500","500","hsl(225, 50%, 50%)","hsl(0, 50%, 50%)","[""hsl(0, 50%, 50%)"",""hsl(225, 50%, 50%)""]","10","8","circle","black","3","2","2","16.73913043478261","[11,16,17,17,17,17,17,17,17,17,17,16,17,17,17,17,17,16,17,17,17,17,17,17,17,17,17,17,17,17,17,17,17,17,16,17,17,17,16,17,17,17,17,17,16,17]","46","600","250","false","20","20","black","1","false","1","1","1200","660","response","j","no","other",""
"","","","","","html-keyboard-response","190","1573693","0.0-5.0-1.0-0.0-3.0-0.0-0.0-4.0-0.13","null","fixation","null","<p style='font-size: 48px; color: white'>+</p >","","","","","","","","","","","","","","","","","","","","","","","","","","","","","","","","","","","","","","","","","","","","","","",""
"","","","","","rdk","191","1575663","0.0-5.0-1.0-0.0-3.0-0.0-0.0-4.0-1.13","966","match_RDK","f","","true","[""f"",""j""]","[""f""]","3000","true","2","[80,20]","1","0","0","0","5","1","-1","3","500","500","hsl(225, 50%, 50%)","hsl(0, 50%, 50%)","[""hsl(225, 50%, 50%)"",""hsl(0, 50%, 50%)""]","10","8","circle","black","3","2","2","16.82758620689655","[9,17,17,17,17,17,17,17,17,17,17,17,17,17,17,17,17,17,17,17,17,17,17,17,17,17,17,17,17,17,17,16,16,17,17,17,17,17,17,17,17,17,17,17,17,17,17,17,17,17,17,17,17,17,17,17,17,17]","58","600","250","false","20","20","black","1","false","1","1","1200","660","response","f","yes","other",""
"","","","","","html-keyboard-response","192","1576693","0.0-5.0-1.0-0.0-3.0-0.0-0.0-4.0-0.14","null","fixation","null","<p style='font-size: 48px; color: white'>+</p >","","","","","","","","","","","","","","","","","","","","","","","","","","","","","","","","","","","","","","","","","","","","","","",""
"","","","","","rdk","193","1578511","0.0-5.0-1.0-0.0-3.0-0.0-0.0-4.0-1.14","813","match_RDK","j","","true","[""f"",""j""]","[""j""]","3000","true","2","[20,80]","1","0","0","0","5","1","-1","3","500","500","hsl(225, 50%, 50%)","hsl(0, 50%, 50%)","[""hsl(0, 50%, 50%)"",""hsl(225, 50%, 50%)""]","10","8","circle","black","3","2","2","16.73469387755102","[8,17,17,17,17,16,17,17,17,17,17,17,17,17,17,16,17,17,17,17,17,17,17,17,17,17,17,17,17,17,17,16,17,17,17,17,17,17,17,16,17,17,17,17,17,17,17,17,17]","49","600","250","false","20","20","black","1","false","1","1","1200","660","response","j","no","self",""
"","","","","","html-keyboard-response","194","1579527","0.0-5.0-1.0-0.0-3.0-0.0-0.0-4.0-0.15","null","fixation","null","<p style='font-size: 48px; color: white'>+</p >","","","","","","","","","","","","","","","","","","","","","","","","","","","","","","","","","","","","","","","","","","","","","","",""
"","","","","","rdk","195","1581360","0.0-5.0-1.0-0.0-3.0-0.0-0.0-4.0-1.15","828","match_RDK","f","","true","[""f"",""j""]","[""f""]","3000","true","2","[80,20]","1","0","0","0","5","1","-1","3","500","500","hsl(225, 50%, 50%)","hsl(0, 50%, 50%)","[""hsl(0, 50%, 50%)"",""hsl(225, 50%, 50%)""]","10","8","circle","black","3","2","2","16.74","[7,17,17,16,17,17,17,17,17,17,17,17,17,17,17,17,16,17,16,17,17,16,17,17,17,17,17,18,16,17,17,17,17,17,17,17,17,17,16,17,17,18,16,17,17,17,18,17,17,18]","50","600","250","false","20","20","black","1","false","1","1","1200","660","response","f","yes","self",""
"","","","","","html-keyboard-response","196","1582376","0.0-5.0-1.0-0.0-3.0-0.0-0.0-4.0-0.16","null","fixation","null","<p style='font-size: 48px; color: white'>+</p >","","","","","","","","","","","","","","","","","","","","","","","","","","","","","","","","","","","","","","","","","","","","","","",""
"","","","","","rdk","197","1584239","0.0-5.0-1.0-0.0-3.0-0.0-0.0-4.0-1.16","847","match_RDK","f","","true","[""f"",""j""]","[""f""]","3000","true","2","[80,20]","1","0","0","0","5","1","-1","3","500","500","hsl(225, 50%, 50%)","hsl(0, 50%, 50%)","[""hsl(0, 50%, 50%)"",""hsl(225, 50%, 50%)""]","10","8","circle","black","3","2","2","16.84","[14,17,17,17,17,17,17,17,17,17,17,17,17,16,17,17,17,17,17,17,17,17,17,17,17,17,17,17,17,16,17,17,17,16,17,17,17,17,17,17,17,16,17,17,17,16,17,17,17,17]","50","600","250","false","20","20","black","1","false","1","1","1200","660","response","f","yes","self",""
"","","","","","html-keyboard-response","198","1585260","0.0-5.0-1.0-0.0-3.0-0.0-0.0-4.0-0.17","null","fixation","null","<p style='font-size: 48px; color: white'>+</p >","","","","","","","","","","","","","","","","","","","","","","","","","","","","","","","","","","","","","","","","","","","","","","",""
"","","","","","rdk","199","1587150","0.0-5.0-1.0-0.0-3.0-0.0-0.0-4.0-1.17","884","match_RDK","f","","true","[""f"",""j""]","[""f""]","3000","true","2","[80,20]","1","0","0","0","5","1","-1","3","500","500","hsl(225, 50%, 50%)","hsl(0, 50%, 50%)","[""hsl(225, 50%, 50%)"",""hsl(0, 50%, 50%)""]","10","8","circle","black","3","2","2","16.566037735849058","[7,16,17,17,17,17,17,17,17,17,17,16,17,17,17,17,16,17,17,16,17,17,16,17,16,17,17,17,16,17,17,17,17,17,17,17,16,17,16,16,17,17,17,16,17,17,17,16,17,17,17,16,17]","53","600","250","false","20","20","black","1","false","1","1","1200","660","response","f","yes","other",""
"","","","","","html-keyboard-response","200","1588161","0.0-5.0-1.0-0.0-3.0-0.0-0.0-4.0-0.18","null","fixation","null","<p style='font-size: 48px; color: white'>+</p >","","","","","","","","","","","","","","","","","","","","","","","","","","","","","","","","","","","","","","","","","","","","","","",""
"","","","","","rdk","201","1590238","0.0-5.0-1.0-0.0-3.0-0.0-0.0-4.0-1.18","1061","match_RDK","j","","true","[""f"",""j""]","[""j""]","3000","true","2","[20,80]","1","0","0","0","5","1","-1","3","500","500","hsl(225, 50%, 50%)","hsl(0, 50%, 50%)","[""hsl(0, 50%, 50%)"",""hsl(225, 50%, 50%)""]","10","8","circle","black","3","2","2","16.873015873015873","[12,17,17,17,17,17,17,17,17,17,17,17,17,17,17,17,17,17,17,17,17,17,17,17,17,17,16,17,17,17,17,17,17,17,17,17,17,17,17,17,16,17,17,17,17,17,17,17,17,17,17,17,17,17,17,17,16,17,17,17,17,17,17]","63","600","250","false","20","20","black","1","false","1","1","1200","660","response","j","no","self",""
"","","","","","html-keyboard-response","202","1591245","0.0-5.0-1.0-0.0-3.0-0.0-0.0-4.0-0.19","null","fixation","null","<p style='font-size: 48px; color: white'>+</p >","","","","","","","","","","","","","","","","","","","","","","","","","","","","","","","","","","","","","","","","","","","","","","",""
"","","","","","rdk","203","1593197","0.0-5.0-1.0-0.0-3.0-0.0-0.0-4.0-1.19","944","match_RDK","j","","true","[""f"",""j""]","[""j""]","3000","true","2","[80,20]","1","0","0","0","5","1","-1","3","500","500","hsl(225, 50%, 50%)","hsl(0, 50%, 50%)","[""hsl(0, 50%, 50%)"",""hsl(225, 50%, 50%)""]","10","8","circle","black","3","2","2","16.666666666666668","[4,16,17,17,17,17,18,16,17,17,17,17,17,17,17,16,17,17,17,17,17,17,17,17,17,17,17,17,17,17,17,17,17,17,17,16,17,17,17,16,18,16,17,16,17,16,17,17,17,17,17,17,17,17,17,17,17]","57","600","250","false","20","20","black","1","false","1","1","1200","660","response","j","no","other",""
"","","","","","html-keyboard-response","204","1594227","0.0-5.0-1.0-0.0-3.0-0.0-0.0-4.0-0.20","null","fixation","null","<p style='font-size: 48px; color: white'>+</p >","","","","","","","","","","","","","","","","","","","","","","","","","","","","","","","","","","","","","","","","","","","","","","",""
"","","","","","rdk","205","1596335","0.0-5.0-1.0-0.0-3.0-0.0-0.0-4.0-1.20","1091","match_RDK","j","","true","[""f"",""j""]","[""j""]","3000","true","2","[20,80]","1","0","0","0","5","1","-1","3","500","500","hsl(225, 50%, 50%)","hsl(0, 50%, 50%)","[""hsl(0, 50%, 50%)"",""hsl(225, 50%, 50%)""]","10","8","circle","black","3","2","2","16.784615384615385","[11,17,17,17,17,17,17,16,17,17,16,17,17,17,17,17,17,16,17,17,17,16,17,16,17,17,17,17,17,17,17,17,17,17,17,17,17,17,17,17,17,17,17,17,17,17,17,17,16,17,17,17,16,17,17,17,17,17,17,17,17,17,17,17,16]","65","600","250","false","20","20","black","1","false","1","1","1200","660","response","j","no","self",""
"","","","","","html-keyboard-response","206","1597360","0.0-5.0-1.0-0.0-3.0-0.0-0.0-4.0-0.21","null","fixation","null","<p style='font-size: 48px; color: white'>+</p >","","","","","","","","","","","","","","","","","","","","","","","","","","","","","","","","","","","","","","","","","","","","","","",""
