"success","timeout","failed_images","failed_audio","failed_video","trial_type","trial_index","time_elapsed","internal_node_id","rt","part","response","stimulus","correct","choices","correct_choice","trial_duration","response_ends_trial","number_of_apertures","number_of_dots","number_of_sets","coherent_direction","coherence","opposite_coherence","dot_radius","dot_side_length","dot_life","move_distance","aperture_width","aperture_height","dot_color_beforeOne","dot_color_beforeTwo","dot_color_after","dot_color_delay","move_delay","dot_shape","background_color","RDK_type","aperture_type","reinsert_type","frame_rate","frame_rate_array","number_of_frames","aperture_center_x","aperture_center_y","fixation_cross","fixation_cross_width","fixation_cross_height","fixation_cross_color","fixation_cross_thickness","border","border_thickness","border_color","canvas_width","canvas_height","task","correct_responce","match","association","difficulty"
"true","false","[]","[]","[]","preload","0","6","0.0-0.0","","","","","","","","","","","","","","","","","","","","","","","","","","","","","","","","","","","","","","","","","","","","","","","","","","",""
"true","","","","","fullscreen","1","1097518","0.0-1.0","1095505","fullScreen","","","","","","","","","","","","","","","","","","","","","","","","","","","","","","","","","","","","","","","","","","","","","","","","",""
"","","","","","survey","2","1109227","0.0-2.0","10658","survey","{""sex"":""女"",""age"":23,""hands"":""右"",""color_blindness"":""都不是""}","","","","","","","","","","","","","","","","","","","","","","","","","","","","","","","","","","","","","","","","","","","","","","","",""
"","","","","","survey-text","3","1119393","0.0-3.0","9154","color_test","{""Q0"":""BE""}","","","","","","","","","","","","","","","","","","","","","","","","","","","","","","","","","","","","","","","","","","","","","","","",""
"","","","","","html-keyboard-response","4","1128857","0.0-4.0","8455","instruction_beginning"," ","
      <div style=""text-align: left; color: white"">
        <h3 style=""text-align: center; font-size: 30px; margin: 0;"">欢迎参与本实验</h3>
          <p>为充分保障您的权利，请确保您已经知晓并同意《参与实验同意书》以及《数据公开知情同意书》，</p>
          <p>如果您未见过上述内容，请咨询实验员 ，</p>
          <p>如果您选择继续实验，则表示您已经清楚两份知情同意书的内容并同意 。</p>
          <p>在整个实验中，您需要完成两项任务，具体的任务要求会在后面说明 ，</p>
          <p>请按空格键进入实验</p >
      </div>","","","","","","","","","","","","","","","","","","","","","","","","","","","","","","","","","","","","","","","","","","","","","","",""
"","","","","","html-keyboard-response","5","1152425","0.0-5.0-0.0-0.0-0.0","22565","instruction_match"," ","
      <div style=""text-align: left; color: white; padding: 10px""> 
        <h3 style=""text-align: center; font-size: 30px; margin: 10px"">任务一：匹配判断</h3>
        <p>接下来，屏幕上会呈现一些运动的圆点，</p>
        <p>如果图中大部分点向 <span style=""font-weight: bold"">右</span> 运动代表 <span style=""font-weight: bold"">你自己</span> ，向 <span style=""font-weight: bold"">左</span> 运动代表 <span style=""font-weight: bold"">生人（即陌生人）</span>，</p >
        <p>同时散点图的下方会出现 ""自己"" 或 ""生人"" 的文字标签。</p >
        <p>您需要在3秒内判断 <span style=""font-weight: bold"">散点图的运动方向与文字是否匹配</span> ：</p >
        <ul>
          <li><span style=""color: hsl(135, 50%, 50%)"">匹配</span>，请按键盘 <span style=""color: hsl(135, 50%, 50%)"">""F"" 键</span></li>
          <li><span style=""color: red"">不匹配</span>，请按键盘 <span style=""color: red"">""J"" 键</span> </li>
        </ul>
        <p>按下空格键后将呈现示例</p >
      </div>","","","","","","","","","","","","","","","","","","","","","","","","","","","","","","","","","","","","","","","","","","","","","","",""
"","","","","","rdk","6","1158825","0.0-5.0-0.0-0.0-1.0","5380","example"," ","","true","["" ""]","["" ""]","3000000","true","2","100","1","[0,180]","0.6","0","5","1","-1","3","400","400","hsl(225, 50%, 50%)","hsl(0, 50%, 50%)","white","3000000","8","circle","black","3","1","2","16.81733746130031","[10,16,17,17,17,17,17,17,16,17,17,17,17,17,17,17,16,17,17,17,17,17,17,17,16,17,17,17,17,17,17,17,17,17,17,17,17,17,17,17,17,17,17,17,17,17,17,17,15,17,17,17,17,17,18,17,17,17,17,16,17,16,17,16,17,17,17,17,16,17,17,17,15,17,17,17,17,17,17,17,17,16,17,17,17,16,17,17,17,17,17,17,17,17,17,17,17,17,17,18,17,17,17,17,17,17,17,17,17,16,16,17,17,17,17,17,17,16,17,17,17,17,17,17,17,17,17,16,16,16,17,17,17,17,17,17,17,17,17,17,17,17,16,16,17,17,17,17,17,18,17,17,16,17,16,17,17,16,16,17,16,17,17,17,16,17,17,17,17,16,17,17,17,16,17,17,17,17,17,17,17,17,17,17,17,16,17,17,16,17,17,17,16,17,17,17,17,17,17,17,17,17,16,16,17,17,17,17,16,17,17,18,17,16,17,16,16,17,17,17,18,17,17,17,16,16,17,17,17,17,17,17,16,17,17,17,17,17,17,17,16,17,17,17,17,17,16,17,17,16,17,16,16,17,17,17,17,17,17,17,17,17,17,17,16,17,17,17,17,17,17,18,16,17,16,16,17,17,17,18,17,17,17,17,16,17,17,17,17,17,16,17,17,16,17,17,16,17,17,17,17,17,17,17,16,17,15,17,17,17,17,17,17,17,17,17,17,17,17,17,16,17,17]","323","[300,900]","[280,280]","false","20","20","black","1","false","1","1","1200","660","","","","",""
"","","","","","html-keyboard-response","7","1166425","0.0-5.0-0.0-0.0-2.0-1.0-0.0-0.0","7096","instruction_match_practice"," ","
      <div style=""text-align: left; color: white; padding: 10px"">  
        <h3 style=""text-align: center; font-size: 30px; margin: 10px;"">练习阶段</h3>
        <p>大部分点向 <span style=""font-weight: bold"">右</span> 运动代表 <span style=""font-weight: bold"">你自己</span> ，向 <span style=""font-weight: bold"">左</span> 运动代表 <span style=""font-weight: bold"">生人（即陌生人）</span>，</p >
        <p>您需要在3秒内判断 <span style=""font-weight: bold"">散点图的运动方向与文字是否匹配</span>，<span style=""color: hsl(135, 50%, 50%);"">匹配</span> 按 <span style=""color: hsl(135, 50%, 50%);"">""F"" 键</span>；<span style=""color: red;"">不匹配</span> 按 <span style=""color: red;"">""J"" 键</span></p >
        <p>正确率达到 70% 及以上才能进入下一个阶段 </p >
        <p>请把左手食指放在 ""F"" 键上，右手食指放在 ""J"" 键上</p >
        <p>请按下空格键开始练习</p >
      </div>","","","","","","","","","","","","","","","","","","","","","","","","","","","","","","","","","","","","","","","","","","","","","","",""
"","","","","","html-keyboard-response","8","1167942","0.0-5.0-0.0-0.0-2.0-1.0-0.0-1.0-0.0","null","fixation","null","<p style='font-size: 48px; color: white'>+</p >","","","","","","","","","","","","","","","","","","","","","","","","","","","","","","","","","","","","","","","","","","","","","","",""
"","","","","","rdk","9","1171957","0.0-5.0-0.0-0.0-2.0-1.0-0.0-1.0-1.0","-1","match_RDK","","","false","[""f"",""j""]","[""f""]","3000","true","1","100","1","0","0.6","0","5","1","-1","3","500","500","hsl(225, 50%, 50%)","hsl(0, 50%, 50%)","white","3000","12","circle","black","3","2","2","16.727777777777778","[6,17,17,17,18,17,17,16,17,17,17,17,17,16,16,17,17,17,17,17,17,16,17,17,17,17,17,17,17,17,16,17,17,16,17,16,17,17,16,17,17,16,17,17,17,16,17,16,17,16,17,17,17,16,17,16,17,17,17,17,16,17,17,17,17,16,17,17,16,17,17,16,17,17,16,17,17,17,17,17,17,17,17,17,17,17,16,17,17,17,17,17,17,16,16,17,17,17,16,17,17,17,16,17,17,16,17,17,17,17,17,17,17,17,17,17,18,16,16,16,18,16,17,17,17,16,17,17,17,17,17,16,17,17,17,17,17,17,17,17,17,16,17,17,17,17,16,16,17,17,17,17,17,18,17,16,17,16,17,17,17,16,17,17,17,16,17,17,16,17,16,17,17,16,17,17,17,17,16,17]","180","600","250","false","20","20","black","1","false","1","1","1200","660","response","f","yes","self",""
"","","","","","html-keyboard-response","10","1172976","0.0-5.0-0.0-0.0-2.0-1.0-0.0-1.0-2.0","null","","null","<p style='font-size: 60px; color: yellow'>太慢!</p>","","","","","","","","","","","","","","","","","","","","","","","","","","","","","","","","","","","","","","","","","","","","","","",""
"","","","","","html-keyboard-response","11","1174497","0.0-5.0-0.0-0.0-2.0-1.0-0.0-1.0-0.1","null","fixation","null","<p style='font-size: 48px; color: white'>+</p >","","","","","","","","","","","","","","","","","","","","","","","","","","","","","","","","","","","","","","","","","","","","","","",""
"","","","","","rdk","12","1176521","0.0-5.0-0.0-0.0-2.0-1.0-0.0-1.0-1.1","1009","match_RDK","j","","false","[""f"",""j""]","[""f""]","3000","true","1","100","1","180","0.6","0","5","1","-1","3","500","500","hsl(225, 50%, 50%)","hsl(0, 50%, 50%)","white","3000","12","circle","black","3","2","2","16.85","[10,17,17,17,17,17,17,17,16,17,16,17,17,17,17,17,17,17,17,17,17,17,17,17,17,17,17,17,17,17,17,17,17,17,17,17,17,17,17,17,17,17,17,17,17,17,17,17,17,17,17,17,17,17,17,17,17,17,17,17]","60","600","250","false","20","20","black","1","false","1","1","1200","660","response","f","yes","other",""
"","","","","","html-keyboard-response","13","1177542","0.0-5.0-0.0-0.0-2.0-1.0-0.0-1.0-2.1","null","","null","<p style='font-size: 60px; color: red'>错误!</p>","","","","","","","","","","","","","","","","","","","","","","","","","","","","","","","","","","","","","","","","","","","","","","",""
"","","","","","html-keyboard-response","14","1179058","0.0-5.0-0.0-0.0-2.0-1.0-0.0-1.0-0.2","null","fixation","null","<p style='font-size: 48px; color: white'>+</p >","","","","","","","","","","","","","","","","","","","","","","","","","","","","","","","","","","","","","","","","","","","","","","",""
"","","","","","rdk","15","1180985","0.0-5.0-0.0-0.0-2.0-1.0-0.0-1.0-1.2","921","match_RDK","j","","true","[""f"",""j""]","[""j""]","3000","true","1","100","1","180","0.6","0","5","1","-1","3","500","500","hsl(225, 50%, 50%)","hsl(0, 50%, 50%)","white","3000","12","circle","black","3","2","2","16.818181818181817","[9,17,17,17,17,17,17,17,17,17,17,17,17,17,17,17,17,16,17,17,17,17,17,17,17,17,17,17,17,17,17,17,17,17,17,16,17,17,17,17,17,17,17,17,17,17,17,17,17,17,17,17,17,17,17]","55","600","250","false","20","20","black","1","false","1","1","1200","660","response","j","no","self",""
"","","","","","html-keyboard-response","16","1182009","0.0-5.0-0.0-0.0-2.0-1.0-0.0-1.0-2.2","null","","null","<p style='font-size: 60px; color: green'>正确!</p>","","","","","","","","","","","","","","","","","","","","","","","","","","","","","","","","","","","","","","","","","","","","","","",""
"","","","","","html-keyboard-response","17","1183526","0.0-5.0-0.0-0.0-2.0-1.0-0.0-1.0-0.3","null","fixation","null","<p style='font-size: 48px; color: white'>+</p >","","","","","","","","","","","","","","","","","","","","","","","","","","","","","","","","","","","","","","","","","","","","","","",""
"","","","","","rdk","18","1185385","0.0-5.0-0.0-0.0-2.0-1.0-0.0-1.0-1.3","852","match_RDK","f","","false","[""f"",""j""]","[""j""]","3000","true","1","100","1","0","0.6","0","5","1","-1","3","500","500","hsl(225, 50%, 50%)","hsl(0, 50%, 50%)","white","3000","12","circle","black","3","2","2","16.529411764705884","[6,16,17,17,17,17,17,17,17,17,17,16,17,17,17,16,16,17,17,16,17,17,17,17,17,16,17,16,17,17,16,17,16,17,17,17,17,17,16,17,17,16,16,17,17,17,17,17,17,17,16]","51","600","250","false","20","20","black","1","false","1","1","1200","660","response","j","no","other",""
"","","","","","html-keyboard-response","19","1186409","0.0-5.0-0.0-0.0-2.0-1.0-0.0-1.0-2.3","null","","null","<p style='font-size: 60px; color: red'>错误!</p>","","","","","","","","","","","","","","","","","","","","","","","","","","","","","","","","","","","","","","","","","","","","","","",""
"","","","","","html-keyboard-response","20","1187926","0.0-5.0-0.0-0.0-2.0-1.0-0.0-1.0-0.4","null","fixation","null","<p style='font-size: 48px; color: white'>+</p >","","","","","","","","","","","","","","","","","","","","","","","","","","","","","","","","","","","","","","","","","","","","","","",""
"","","","","","rdk","21","1189721","0.0-5.0-0.0-0.0-2.0-1.0-0.0-1.0-1.4","792","match_RDK","j","","true","[""f"",""j""]","[""j""]","3000","true","1","100","1","180","0.6","0","5","1","-1","3","500","500","hsl(225, 50%, 50%)","hsl(0, 50%, 50%)","white","3000","12","circle","black","3","2","2","16.78723404255319","[10,17,17,17,17,17,17,17,17,16,17,17,17,17,17,17,17,17,17,17,17,17,16,17,17,17,17,17,16,17,17,17,17,17,17,17,17,17,17,17,17,17,17,17,17,17,17]","47","600","250","false","20","20","black","1","false","1","1","1200","660","response","j","no","self",""
"","","","","","html-keyboard-response","22","1190741","0.0-5.0-0.0-0.0-2.0-1.0-0.0-1.0-2.4","null","","null","<p style='font-size: 60px; color: green'>正确!</p>","","","","","","","","","","","","","","","","","","","","","","","","","","","","","","","","","","","","","","","","","","","","","","",""
"","","","","","html-keyboard-response","23","1192244","0.0-5.0-0.0-0.0-2.0-1.0-0.0-1.0-0.5","null","fixation","null","<p style='font-size: 48px; color: white'>+</p >","","","","","","","","","","","","","","","","","","","","","","","","","","","","","","","","","","","","","","","","","","","","","","",""
"","","","","","rdk","24","1194073","0.0-5.0-0.0-0.0-2.0-1.0-0.0-1.0-1.5","812","match_RDK","f","","true","[""f"",""j""]","[""f""]","3000","true","1","100","1","0","0.6","0","5","1","-1","3","500","500","hsl(225, 50%, 50%)","hsl(0, 50%, 50%)","white","3000","12","circle","black","3","2","2","16.791666666666668","[10,17,17,17,17,17,17,16,17,17,17,17,17,17,17,17,17,17,17,17,17,17,17,17,17,16,17,17,16,17,17,17,17,17,17,17,17,17,17,17,17,17,17,17,17,17,17,17]","48","600","250","false","20","20","black","1","false","1","1","1200","660","response","f","yes","self",""
"","","","","","html-keyboard-response","25","1195092","0.0-5.0-0.0-0.0-2.0-1.0-0.0-1.0-2.5","null","","null","<p style='font-size: 60px; color: green'>正确!</p>","","","","","","","","","","","","","","","","","","","","","","","","","","","","","","","","","","","","","","","","","","","","","","",""
"","","","","","html-keyboard-response","26","1196610","0.0-5.0-0.0-0.0-2.0-1.0-0.0-1.0-0.6","null","fixation","null","<p style='font-size: 48px; color: white'>+</p >","","","","","","","","","","","","","","","","","","","","","","","","","","","","","","","","","","","","","","","","","","","","","","",""
"","","","","","rdk","27","1198937","0.0-5.0-0.0-0.0-2.0-1.0-0.0-1.0-1.6","1310","match_RDK","j","","false","[""f"",""j""]","[""f""]","3000","true","1","100","1","180","0.6","0","5","1","-1","3","500","500","hsl(225, 50%, 50%)","hsl(0, 50%, 50%)","white","3000","12","circle","black","3","2","2","16.871794871794872","[11,17,17,17,17,17,17,17,17,17,17,17,17,17,17,17,16,17,17,17,17,17,17,17,17,17,17,17,17,17,17,17,17,17,17,17,16,17,17,17,17,17,16,17,17,17,17,17,17,17,17,17,17,17,17,17,17,17,17,17,17,16,17,17,17,17,17,17,17,17,17,17,17,17,17,17,17,17]","78","600","250","false","20","20","black","1","false","1","1","1200","660","response","f","yes","other",""
"","","","","","html-keyboard-response","28","1199959","0.0-5.0-0.0-0.0-2.0-1.0-0.0-1.0-2.6","null","","null","<p style='font-size: 60px; color: red'>错误!</p>","","","","","","","","","","","","","","","","","","","","","","","","","","","","","","","","","","","","","","","","","","","","","","",""
"","","","","","html-keyboard-response","29","1201475","0.0-5.0-0.0-0.0-2.0-1.0-0.0-1.0-0.7","null","fixation","null","<p style='font-size: 48px; color: white'>+</p >","","","","","","","","","","","","","","","","","","","","","","","","","","","","","","","","","","","","","","","","","","","","","","",""
"","","","","","rdk","30","1203672","0.0-5.0-0.0-0.0-2.0-1.0-0.0-1.0-1.7","1194","match_RDK","f","","false","[""f"",""j""]","[""j""]","3000","true","1","100","1","0","0.6","0","5","1","-1","3","500","500","hsl(225, 50%, 50%)","hsl(0, 50%, 50%)","white","3000","12","circle","black","3","2","2","16.704225352112676","[9,17,16,17,17,17,17,18,16,17,17,17,17,17,17,17,16,17,17,16,18,17,16,17,17,17,17,16,17,17,16,17,17,17,16,17,17,17,17,17,16,17,17,17,16,17,16,17,16,17,17,16,18,17,16,17,17,17,17,17,17,17,17,17,17,17,17,17,16,16,17]","71","600","250","false","20","20","black","1","false","1","1","1200","660","response","j","no","other",""
"","","","","","html-keyboard-response","31","1204692","0.0-5.0-0.0-0.0-2.0-1.0-0.0-1.0-2.7","null","","null","<p style='font-size: 60px; color: red'>错误!</p>","","","","","","","","","","","","","","","","","","","","","","","","","","","","","","","","","","","","","","","","","","","","","","",""
"","","","","","html-keyboard-response","32","1206209","0.0-5.0-0.0-0.0-2.0-1.0-0.0-1.0-0.8","null","fixation","null","<p style='font-size: 48px; color: white'>+</p >","","","","","","","","","","","","","","","","","","","","","","","","","","","","","","","","","","","","","","","","","","","","","","",""
"","","","","","rdk","33","1208968","0.0-5.0-0.0-0.0-2.0-1.0-0.0-1.0-1.8","1741","match_RDK","j","","true","[""f"",""j""]","[""j""]","3000","true","1","100","1","180","0.6","0","5","1","-1","3","500","500","hsl(225, 50%, 50%)","hsl(0, 50%, 50%)","white","3000","12","circle","black","3","2","2","16.846153846153847","[11,17,17,17,17,17,17,17,17,16,17,17,17,17,17,17,17,17,16,17,17,17,17,17,17,17,17,17,17,17,17,17,17,17,17,17,17,17,17,17,17,17,17,17,17,16,17,17,17,17,17,17,17,17,17,17,17,17,17,16,17,17,17,17,17,17,17,16,17,17,17,17,17,17,17,17,17,17,17,17,17,17,17,17,16,16,17,17,17,18,17,17,16,16,17,17,17,17,17,17,16,16,17,17]","104","600","250","false","20","20","black","1","false","1","1","1200","660","response","j","no","self",""
"","","","","","html-keyboard-response","34","1209992","0.0-5.0-0.0-0.0-2.0-1.0-0.0-1.0-2.8","null","","null","<p style='font-size: 60px; color: green'>正确!</p>","","","","","","","","","","","","","","","","","","","","","","","","","","","","","","","","","","","","","","","","","","","","","","",""
"","","","","","html-keyboard-response","35","1211510","0.0-5.0-0.0-0.0-2.0-1.0-0.0-1.0-0.9","null","fixation","null","<p style='font-size: 48px; color: white'>+</p >","","","","","","","","","","","","","","","","","","","","","","","","","","","","","","","","","","","","","","","","","","","","","","",""
"","","","","","rdk","36","1213845","0.0-5.0-0.0-0.0-2.0-1.0-0.0-1.0-1.9","1334","match_RDK","f","","false","[""f"",""j""]","[""j""]","3000","true","1","100","1","0","0.6","0","5","1","-1","3","500","500","hsl(225, 50%, 50%)","hsl(0, 50%, 50%)","white","3000","12","circle","black","3","2","2","16.70886075949367","[11,17,17,17,16,16,17,17,16,17,17,17,17,18,14,17,17,17,17,17,17,17,17,17,16,17,16,17,17,17,16,17,17,16,17,17,17,16,17,17,17,16,17,17,17,17,17,17,16,17,17,17,17,17,17,16,17,17,17,17,16,17,17,17,17,16,17,16,17,17,16,17,17,21,19,13,15,17,17]","79","600","250","false","20","20","black","1","false","1","1","1200","660","response","j","no","other",""
"","","","","","html-keyboard-response","37","1214860","0.0-5.0-0.0-0.0-2.0-1.0-0.0-1.0-2.9","null","","null","<p style='font-size: 60px; color: red'>错误!</p>","","","","","","","","","","","","","","","","","","","","","","","","","","","","","","","","","","","","","","","","","","","","","","",""
"","","","","","html-keyboard-response","38","1216377","0.0-5.0-0.0-0.0-2.0-1.0-0.0-1.0-0.10","null","fixation","null","<p style='font-size: 48px; color: white'>+</p >","","","","","","","","","","","","","","","","","","","","","","","","","","","","","","","","","","","","","","","","","","","","","","",""
"","","","","","rdk","39","1219289","0.0-5.0-0.0-0.0-2.0-1.0-0.0-1.0-1.10","1907","match_RDK","j","","false","[""f"",""j""]","[""f""]","3000","true","1","100","1","180","0.6","0","5","1","-1","3","500","500","hsl(225, 50%, 50%)","hsl(0, 50%, 50%)","white","3000","12","circle","black","3","2","2","16.649122807017545","[7,17,17,16,17,17,17,16,17,17,16,17,16,17,17,17,16,17,17,17,16,16,16,16,17,17,17,17,17,17,17,17,16,17,17,17,17,17,17,16,17,16,17,16,17,17,17,16,17,17,17,17,16,17,17,17,16,17,16,17,17,16,17,17,17,17,17,17,17,17,17,16,17,16,17,17,16,17,17,16,17,17,17,17,16,16,18,17,16,17,17,17,17,17,17,16,17,17,16,17,17,17,16,17,17,16,17,16,17,17,16,17,17,17]","114","600","250","false","20","20","black","1","false","1","1","1200","660","response","f","yes","other",""
"","","","","","html-keyboard-response","40","1220308","0.0-5.0-0.0-0.0-2.0-1.0-0.0-1.0-2.10","null","","null","<p style='font-size: 60px; color: red'>错误!</p>","","","","","","","","","","","","","","","","","","","","","","","","","","","","","","","","","","","","","","","","","","","","","","",""
"","","","","","html-keyboard-response","41","1221811","0.0-5.0-0.0-0.0-2.0-1.0-0.0-1.0-0.11","null","fixation","null","<p style='font-size: 48px; color: white'>+</p >","","","","","","","","","","","","","","","","","","","","","","","","","","","","","","","","","","","","","","","","","","","","","","",""
"","","","","","rdk","42","1223864","0.0-5.0-0.0-0.0-2.0-1.0-0.0-1.0-1.11","1037","match_RDK","f","","true","[""f"",""j""]","[""f""]","3000","true","1","100","1","0","0.6","0","5","1","-1","3","500","500","hsl(225, 50%, 50%)","hsl(0, 50%, 50%)","white","3000","12","circle","black","3","2","2","16.693548387096776","[11,17,17,17,18,17,17,16,17,16,17,17,17,17,17,18,16,17,17,17,16,16,16,17,17,17,17,18,16,17,16,17,16,18,16,17,17,17,16,17,17,16,17,17,16,17,17,17,17,17,17,17,16,17,17,17,17,16,16,17,16,17]","62","600","250","false","20","20","black","1","false","1","1","1200","660","response","f","yes","self",""
"","","","","","html-keyboard-response","43","1224892","0.0-5.0-0.0-0.0-2.0-1.0-0.0-1.0-2.11","null","","null","<p style='font-size: 60px; color: green'>正确!</p>","","","","","","","","","","","","","","","","","","","","","","","","","","","","","","","","","","","","","","","","","","","","","","",""
"","","","","","html-keyboard-response","44","1226409","0.0-5.0-0.0-0.0-2.0-1.0-0.0-1.0-0.12","null","fixation","null","<p style='font-size: 48px; color: white'>+</p >","","","","","","","","","","","","","","","","","","","","","","","","","","","","","","","","","","","","","","","","","","","","","","",""
"","","","","","rdk","45","1228937","0.0-5.0-0.0-0.0-2.0-1.0-0.0-1.0-1.12","1525","match_RDK","f","","true","[""f"",""j""]","[""f""]","3000","true","1","100","1","180","0.6","0","5","1","-1","3","500","500","hsl(225, 50%, 50%)","hsl(0, 50%, 50%)","white","3000","12","circle","black","3","2","2","16.86813186813187","[10,17,17,17,17,17,16,17,17,17,17,17,17,17,17,17,17,17,17,17,17,17,17,17,17,17,17,17,17,17,17,17,17,17,17,17,17,17,17,17,17,17,17,17,17,17,17,17,17,17,17,17,17,17,17,16,17,17,17,17,17,17,17,17,17,17,17,17,17,17,17,16,17,17,16,17,17,17,17,17,17,16,17,17,17,17,17,17,17,17,17]","91","600","250","false","20","20","black","1","false","1","1","1200","660","response","f","yes","other",""
"","","","","","html-keyboard-response","46","1229959","0.0-5.0-0.0-0.0-2.0-1.0-0.0-1.0-2.12","null","","null","<p style='font-size: 60px; color: green'>正确!</p>","","","","","","","","","","","","","","","","","","","","","","","","","","","","","","","","","","","","","","","","","","","","","","",""
"","","","","","html-keyboard-response","47","1231476","0.0-5.0-0.0-0.0-2.0-1.0-0.0-1.0-0.13","null","fixation","null","<p style='font-size: 48px; color: white'>+</p >","","","","","","","","","","","","","","","","","","","","","","","","","","","","","","","","","","","","","","","","","","","","","","",""
"","","","","","rdk","48","1233817","0.0-5.0-0.0-0.0-2.0-1.0-0.0-1.0-1.13","1338","match_RDK","j","","false","[""f"",""j""]","[""f""]","3000","true","1","100","1","0","0.6","0","5","1","-1","3","500","500","hsl(225, 50%, 50%)","hsl(0, 50%, 50%)","white","3000","12","circle","black","3","2","2","16.8375","[10,17,17,17,17,17,17,17,17,17,17,16,17,17,17,17,17,16,17,17,17,17,17,17,17,17,17,17,17,17,17,16,17,17,17,17,16,17,17,17,17,17,17,17,16,17,17,17,17,17,17,17,17,17,17,17,17,17,17,17,17,17,17,17,17,17,17,17,16,17,17,17,17,17,17,17,17,17,17,17]","80","600","250","false","20","20","black","1","false","1","1","1200","660","response","f","yes","self",""
"","","","","","html-keyboard-response","49","1234843","0.0-5.0-0.0-0.0-2.0-1.0-0.0-1.0-2.13","null","","null","<p style='font-size: 60px; color: red'>错误!</p>","","","","","","","","","","","","","","","","","","","","","","","","","","","","","","","","","","","","","","","","","","","","","","",""
"","","","","","html-keyboard-response","50","1236359","0.0-5.0-0.0-0.0-2.0-1.0-0.0-1.0-0.14","null","fixation","null","<p style='font-size: 48px; color: white'>+</p >","","","","","","","","","","","","","","","","","","","","","","","","","","","","","","","","","","","","","","","","","","","","","","",""
"","","","","","rdk","51","1238665","0.0-5.0-0.0-0.0-2.0-1.0-0.0-1.0-1.14","1287","match_RDK","j","","true","[""f"",""j""]","[""j""]","3000","true","1","100","1","180","0.6","0","5","1","-1","3","500","500","hsl(225, 50%, 50%)","hsl(0, 50%, 50%)","white","3000","12","circle","black","3","2","2","16.896103896103895","[10,17,17,17,17,17,17,17,17,17,17,17,17,17,17,17,17,17,17,17,17,17,17,17,17,17,17,17,17,17,17,17,17,17,17,17,17,17,17,17,17,17,17,17,17,17,17,17,16,17,17,17,17,17,17,17,17,17,17,17,17,17,17,17,17,17,17,17,17,17,17,17,17,17,17,17,17]","77","600","250","false","20","20","black","1","false","1","1","1200","660","response","j","no","self",""
"","","","","","html-keyboard-response","52","1239677","0.0-5.0-0.0-0.0-2.0-1.0-0.0-1.0-2.14","null","","null","<p style='font-size: 60px; color: green'>正确!</p>","","","","","","","","","","","","","","","","","","","","","","","","","","","","","","","","","","","","","","","","","","","","","","",""
"","","","","","html-keyboard-response","53","1241193","0.0-5.0-0.0-0.0-2.0-1.0-0.0-1.0-0.15","null","fixation","null","<p style='font-size: 48px; color: white'>+</p >","","","","","","","","","","","","","","","","","","","","","","","","","","","","","","","","","","","","","","","","","","","","","","",""
"","","","","","rdk","54","1243369","0.0-5.0-0.0-0.0-2.0-1.0-0.0-1.0-1.15","1158","match_RDK","f","","false","[""f"",""j""]","[""j""]","3000","true","1","100","1","0","0.6","0","5","1","-1","3","500","500","hsl(225, 50%, 50%)","hsl(0, 50%, 50%)","white","3000","12","circle","black","3","2","2","16.695652173913043","[11,17,17,17,17,17,17,17,17,17,17,17,16,17,18,16,18,16,17,17,16,17,17,17,17,17,16,17,17,16,17,17,17,17,16,16,17,17,17,17,17,17,16,17,17,16,17,17,16,17,16,17,17,17,16,16,17,17,17,16,17,16,16,17,17,17,17,17,17]","69","600","250","false","20","20","black","1","false","1","1","1200","660","response","j","no","other",""
"","","","","","html-keyboard-response","55","1244392","0.0-5.0-0.0-0.0-2.0-1.0-0.0-1.0-2.15","null","","null","<p style='font-size: 60px; color: red'>错误!</p>","","","","","","","","","","","","","","","","","","","","","","","","","","","","","","","","","","","","","","","","","","","","","","",""
"","","","","","html-keyboard-response","56","1245909","0.0-5.0-0.0-0.0-2.0-1.0-0.0-1.0-0.16","null","fixation","null","<p style='font-size: 48px; color: white'>+</p >","","","","","","","","","","","","","","","","","","","","","","","","","","","","","","","","","","","","","","","","","","","","","","",""
"","","","","","rdk","57","1248569","0.0-5.0-0.0-0.0-2.0-1.0-0.0-1.0-1.16","1657","match_RDK","j","","false","[""f"",""j""]","[""f""]","3000","true","1","100","1","0","0.6","0","5","1","-1","3","500","500","hsl(225, 50%, 50%)","hsl(0, 50%, 50%)","white","3000","12","circle","black","3","2","2","16.636363636363637","[10,17,17,16,17,17,17,16,17,17,16,16,17,17,17,18,17,17,16,17,16,17,17,16,17,16,16,17,16,17,17,17,17,17,17,17,16,17,17,16,17,17,17,16,17,17,17,16,17,17,16,17,17,16,18,16,17,17,17,17,17,16,18,16,16,17,16,17,16,17,16,17,17,16,17,17,16,16,17,16,17,17,17,16,16,17,17,16,17,17,17,17,16,17,17,17,16,17,17]","99","600","250","false","20","20","black","1","false","1","1","1200","660","response","f","yes","self",""
"","","","","","html-keyboard-response","58","1249592","0.0-5.0-0.0-0.0-2.0-1.0-0.0-1.0-2.16","null","","null","<p style='font-size: 60px; color: red'>错误!</p>","","","","","","","","","","","","","","","","","","","","","","","","","","","","","","","","","","","","","","","","","","","","","","",""
"","","","","","html-keyboard-response","59","1251109","0.0-5.0-0.0-0.0-2.0-1.0-0.0-1.0-0.17","null","fixation","null","<p style='font-size: 48px; color: white'>+</p >","","","","","","","","","","","","","","","","","","","","","","","","","","","","","","","","","","","","","","","","","","","","","","",""
"","","","","","rdk","60","1253801","0.0-5.0-0.0-0.0-2.0-1.0-0.0-1.0-1.17","1689","match_RDK","j","","true","[""f"",""j""]","[""j""]","3000","true","1","100","1","180","0.6","0","5","1","-1","3","500","500","hsl(225, 50%, 50%)","hsl(0, 50%, 50%)","white","3000","12","circle","black","3","2","2","16.89108910891089","[10,17,17,17,17,17,17,17,17,17,17,17,17,16,17,17,17,17,17,17,17,17,17,17,17,17,17,16,17,17,17,17,17,17,17,17,17,17,17,17,17,17,17,17,17,17,17,17,17,17,17,17,17,16,17,17,17,17,17,17,17,17,17,17,17,17,17,17,17,17,17,17,17,17,17,17,17,17,17,17,17,17,17,17,17,17,17,17,17,17,17,17,17,16,17,17,17,17,17,17,17]","101","600","250","false","20","20","black","1","false","1","1","1200","660","response","j","no","self",""
"","","","","","html-keyboard-response","61","1254825","0.0-5.0-0.0-0.0-2.0-1.0-0.0-1.0-2.17","null","","null","<p style='font-size: 60px; color: green'>正确!</p>","","","","","","","","","","","","","","","","","","","","","","","","","","","","","","","","","","","","","","","","","","","","","","",""
"","","","","","html-keyboard-response","62","1256344","0.0-5.0-0.0-0.0-2.0-1.0-0.0-1.0-0.18","null","fixation","null","<p style='font-size: 48px; color: white'>+</p >","","","","","","","","","","","","","","","","","","","","","","","","","","","","","","","","","","","","","","","","","","","","","","",""
"","","","","","rdk","63","1258937","0.0-5.0-0.0-0.0-2.0-1.0-0.0-1.0-1.18","1576","match_RDK","j","","true","[""f"",""j""]","[""j""]","3000","true","1","100","1","0","0.6","0","5","1","-1","3","500","500","hsl(225, 50%, 50%)","hsl(0, 50%, 50%)","white","3000","12","circle","black","3","2","2","16.882978723404257","[11,17,17,17,17,16,17,17,17,17,17,17,17,17,17,17,17,17,16,17,17,17,17,17,17,17,17,17,17,17,16,17,17,17,17,17,17,17,17,17,17,17,17,17,17,17,17,17,17,17,16,17,17,17,17,17,17,17,17,17,17,17,17,17,17,17,17,17,17,17,17,17,17,17,17,17,17,17,16,17,17,17,17,17,17,17,17,17,17,17,17,17,17,17]","94","600","250","false","20","20","black","1","false","1","1","1200","660","response","j","no","other",""
"","","","","","html-keyboard-response","64","1259959","0.0-5.0-0.0-0.0-2.0-1.0-0.0-1.0-2.18","null","","null","<p style='font-size: 60px; color: green'>正确!</p>","","","","","","","","","","","","","","","","","","","","","","","","","","","","","","","","","","","","","","","","","","","","","","",""
"","","","","","html-keyboard-response","65","1261476","0.0-5.0-0.0-0.0-2.0-1.0-0.0-1.0-0.19","null","fixation","null","<p style='font-size: 48px; color: white'>+</p >","","","","","","","","","","","","","","","","","","","","","","","","","","","","","","","","","","","","","","","","","","","","","","",""
"","","","","","rdk","66","1264089","0.0-5.0-0.0-0.0-2.0-1.0-0.0-1.0-1.19","1611","match_RDK","f","","true","[""f"",""j""]","[""f""]","3000","true","1","100","1","180","0.6","0","5","1","-1","3","500","500","hsl(225, 50%, 50%)","hsl(0, 50%, 50%)","white","3000","12","circle","black","3","2","2","16.875","[10,17,17,17,17,17,16,17,17,17,17,17,17,16,17,17,17,17,17,17,17,17,17,17,17,17,17,17,17,17,17,17,17,17,17,17,17,16,17,17,17,17,17,17,17,16,17,17,17,17,17,17,17,17,17,17,17,17,17,17,17,17,17,17,17,17,17,17,17,17,17,17,17,17,17,16,17,17,17,17,17,17,17,17,17,17,17,17,17,17,17,17,17,17,17,17]","96","600","250","false","20","20","black","1","false","1","1","1200","660","response","f","yes","other",""
"","","","","","html-keyboard-response","67","1265109","0.0-5.0-0.0-0.0-2.0-1.0-0.0-1.0-2.19","null","","null","<p style='font-size: 60px; color: green'>正确!</p>","","","","","","","","","","","","","","","","","","","","","","","","","","","","","","","","","","","","","","","","","","","","","","",""
"","","","","","html-keyboard-response","68","1266634","0.0-5.0-0.0-0.0-2.0-1.0-0.0-1.0-0.20","null","fixation","null","<p style='font-size: 48px; color: white'>+</p >","","","","","","","","","","","","","","","","","","","","","","","","","","","","","","","","","","","","","","","","","","","","","","",""
"","","","","","rdk","69","1269417","0.0-5.0-0.0-0.0-2.0-1.0-0.0-1.0-1.20","1773","match_RDK","f","","false","[""f"",""j""]","[""j""]","3000","true","1","100","1","0","0.6","0","5","1","-1","3","500","500","hsl(225, 50%, 50%)","hsl(0, 50%, 50%)","white","3000","12","circle","black","3","2","2","16.87735849056604","[11,17,17,17,17,17,17,17,17,17,17,17,17,17,17,16,16,17,17,17,17,16,17,17,17,17,17,16,17,17,17,17,17,17,17,17,17,17,17,17,17,17,17,17,17,17,17,17,17,17,17,17,17,17,17,16,17,17,17,17,17,17,17,16,17,17,17,17,17,17,17,17,17,17,17,17,17,17,17,17,17,17,17,17,17,17,17,16,17,17,17,17,17,17,17,17,17,17,17,17,17,17,17,17,17,17]","106","600","250","false","20","20","black","1","false","1","1","1200","660","response","j","no","other",""
"","","","","","html-keyboard-response","70","1270442","0.0-5.0-0.0-0.0-2.0-1.0-0.0-1.0-2.20","null","","null","<p style='font-size: 60px; color: red'>错误!</p>","","","","","","","","","","","","","","","","","","","","","","","","","","","","","","","","","","","","","","","","","","","","","","",""
"","","","","","html-keyboard-response","71","1271959","0.0-5.0-0.0-0.0-2.0-1.0-0.0-1.0-0.21","null","fixation","null","<p style='font-size: 48px; color: white'>+</p >","","","","","","","","","","","","","","","","","","","","","","","","","","","","","","","","","","","","","","","","","","","","","","",""
"","","","","","rdk","72","1274137","0.0-5.0-0.0-0.0-2.0-1.0-0.0-1.0-1.21","1160","match_RDK","f","","true","[""f"",""j""]","[""f""]","3000","true","1","100","1","0","0.6","0","5","1","-1","3","500","500","hsl(225, 50%, 50%)","hsl(0, 50%, 50%)","white","3000","12","circle","black","3","2","2","16.782608695652176","[11,17,17,17,17,17,17,17,17,17,17,17,16,17,17,17,17,17,17,17,16,17,17,17,17,17,17,17,17,17,17,16,17,17,16,17,17,17,16,17,17,17,17,17,17,17,17,17,17,17,17,16,17,17,17,17,17,16,17,17,17,16,17,17,17,16,17,17,17]","69","600","250","false","20","20","black","1","false","1","1","1200","660","response","f","yes","self",""
"","","","","","html-keyboard-response","73","1275159","0.0-5.0-0.0-0.0-2.0-1.0-0.0-1.0-2.21","null","","null","<p style='font-size: 60px; color: green'>正确!</p>","","","","","","","","","","","","","","","","","","","","","","","","","","","","","","","","","","","","","","","","","","","","","","",""
"","","","","","html-keyboard-response","74","1276676","0.0-5.0-0.0-0.0-2.0-1.0-0.0-1.0-0.22","null","fixation","null","<p style='font-size: 48px; color: white'>+</p >","","","","","","","","","","","","","","","","","","","","","","","","","","","","","","","","","","","","","","","","","","","","","","",""
"","","","","","rdk","75","1278873","0.0-5.0-0.0-0.0-2.0-1.0-0.0-1.0-1.22","1179","match_RDK","j","","false","[""f"",""j""]","[""f""]","3000","true","1","100","1","180","0.6","0","5","1","-1","3","500","500","hsl(225, 50%, 50%)","hsl(0, 50%, 50%)","white","3000","12","circle","black","3","2","2","16.914285714285715","[11,17,17,17,17,17,17,17,17,17,17,17,17,17,17,17,17,17,17,17,17,17,17,17,17,17,17,17,17,17,17,17,17,17,17,17,17,17,17,17,17,17,17,17,17,17,17,17,17,17,17,17,17,17,17,17,17,17,17,17,17,17,17,17,17,17,17,17,17,17]","70","600","250","false","20","20","black","1","false","1","1","1200","660","response","f","yes","other",""
"","","","","","html-keyboard-response","76","1279877","0.0-5.0-0.0-0.0-2.0-1.0-0.0-1.0-2.22","null","","null","<p style='font-size: 60px; color: red'>错误!</p>","","","","","","","","","","","","","","","","","","","","","","","","","","","","","","","","","","","","","","","","","","","","","","",""
"","","","","","html-keyboard-response","77","1281403","0.0-5.0-0.0-0.0-2.0-1.0-0.0-1.0-0.23","null","fixation","null","<p style='font-size: 48px; color: white'>+</p >","","","","","","","","","","","","","","","","","","","","","","","","","","","","","","","","","","","","","","","","","","","","","","",""
"","","","","","rdk","78","1284345","0.0-5.0-0.0-0.0-2.0-1.0-0.0-1.0-1.23","1940","match_RDK","j","","true","[""f"",""j""]","[""j""]","3000","true","1","100","1","180","0.6","0","5","1","-1","3","500","500","hsl(225, 50%, 50%)","hsl(0, 50%, 50%)","white","3000","12","circle","black","3","2","2","16.76923076923077","[8,9,17,17,16,17,17,17,17,17,17,17,17,17,17,17,17,17,17,17,16,17,17,16,17,17,17,16,17,17,16,17,17,17,17,17,17,17,17,17,17,17,17,17,17,17,17,17,17,17,17,17,17,17,17,17,17,17,16,17,17,17,17,18,16,17,17,17,17,17,17,17,17,17,17,17,17,17,17,17,17,16,17,17,17,17,17,17,17,17,17,17,17,17,17,17,17,17,17,17,17,17,16,16,17,17,17,17,17,17,16,17,17,17,17,18,16]","117","600","250","false","20","20","black","1","false","1","1","1200","660","response","j","no","self",""
"","","","","","html-keyboard-response","79","1285359","0.0-5.0-0.0-0.0-2.0-1.0-0.0-1.0-2.23","null","","null","<p style='font-size: 60px; color: green'>正确!</p>","","","","","","","","","","","","","","","","","","","","","","","","","","","","","","","","","","","","","","","","","","","","","","",""
"","","","","","html-keyboard-response","80","1290633","0.0-5.0-0.0-0.0-2.0-1.0-0.0-2.0-0.0","4271","instruction_continuePractice","q","
      <div style=""text-align: left; color: white; padding: 10px"">  
        <p>您的正确率未达 70% ，不能进入下一阶段</p >
        <p >您的任务是：判断散点图的运动方向与文字标签是否匹配 。向右运动代表 你自己；向左运动代表 生人。</p>
        <p >如果二者<span style=""color: hsl(135, 50%, 50%)"">匹配</span>，请按 <span style=""color: hsl(135, 50%, 50%)"">""F"" 键</span></p>
        <p >如果二者<span style=""color: red"">不匹配</span>，请按 <span style=""color: red"">""J"" 键</span></p>
        <p>请按 ""Q"" 键继续练习</p >
      </div>","","","","","","","","","","","","","","","","","","","","","","","","","","","","","","","","","","","","","","","","","","","","","","",""
"","","","","","html-keyboard-response","81","1294105","0.0-5.0-0.0-0.0-2.0-1.0-0.1-0.1","2466","instruction_match_practice"," ","
      <div style=""text-align: left; color: white; padding: 10px"">  
        <h3 style=""text-align: center; font-size: 30px; margin: 10px;"">练习阶段</h3>
        <p>大部分点向 <span style=""font-weight: bold"">右</span> 运动代表 <span style=""font-weight: bold"">你自己</span> ，向 <span style=""font-weight: bold"">左</span> 运动代表 <span style=""font-weight: bold"">生人（即陌生人）</span>，</p >
        <p>您需要在3秒内判断 <span style=""font-weight: bold"">散点图的运动方向与文字是否匹配</span>，<span style=""color: hsl(135, 50%, 50%);"">匹配</span> 按 <span style=""color: hsl(135, 50%, 50%);"">""F"" 键</span>；<span style=""color: red;"">不匹配</span> 按 <span style=""color: red;"">""J"" 键</span></p >
        <p>正确率达到 70% 及以上才能进入下一个阶段 </p >
        <p>请把左手食指放在 ""F"" 键上，右手食指放在 ""J"" 键上</p >
        <p>请按下空格键开始练习</p >
      </div>","","","","","","","","","","","","","","","","","","","","","","","","","","","","","","","","","","","","","","","","","","","","","","",""
"","","","","","html-keyboard-response","82","1295626","0.0-5.0-0.0-0.0-2.0-1.0-0.1-1.1-0.24","null","fixation","null","<p style='font-size: 48px; color: white'>+</p >","","","","","","","","","","","","","","","","","","","","","","","","","","","","","","","","","","","","","","","","","","","","","","",""
"","","","","","rdk","83","1298458","0.0-5.0-0.0-0.0-2.0-1.0-0.1-1.1-1.24","1830","match_RDK","f","","false","[""f"",""j""]","[""j""]","3000","true","1","100","1","180","0.6","0","5","1","-1","3","500","500","hsl(225, 50%, 50%)","hsl(0, 50%, 50%)","white","3000","12","circle","black","3","2","2","16.89090909090909","[11,17,17,17,17,17,17,17,17,17,17,17,17,17,17,17,17,17,16,17,17,17,17,17,16,17,17,17,17,17,17,17,17,17,17,17,17,17,17,17,17,17,17,17,17,17,17,17,17,17,17,17,17,16,17,17,16,17,16,17,17,17,17,17,17,17,17,17,17,17,17,17,17,16,17,17,17,17,17,17,17,17,17,17,17,17,17,17,17,17,17,17,17,17,17,17,17,17,17,17,17,17,17,17,17,17,17,17,17,17]","110","600","250","false","20","20","black","1","false","1","1","1200","660","response","j","no","self",""
"","","","","","html-keyboard-response","84","1299475","0.0-5.0-0.0-0.0-2.0-1.0-0.1-1.1-2.24","null","","null","<p style='font-size: 60px; color: red'>错误!</p>","","","","","","","","","","","","","","","","","","","","","","","","","","","","","","","","","","","","","","","","","","","","","","",""
"","","","","","html-keyboard-response","85","1300992","0.0-5.0-0.0-0.0-2.0-1.0-0.1-1.1-0.25","null","fixation","null","<p style='font-size: 48px; color: white'>+</p >","","","","","","","","","","","","","","","","","","","","","","","","","","","","","","","","","","","","","","","","","","","","","","",""
"","","","","","rdk","86","1303817","0.0-5.0-0.0-0.0-2.0-1.0-0.1-1.1-1.25","1812","match_RDK","j","","true","[""f"",""j""]","[""j""]","3000","true","1","100","1","0","0.6","0","5","1","-1","3","500","500","hsl(225, 50%, 50%)","hsl(0, 50%, 50%)","white","3000","12","circle","black","3","2","2","16.69724770642202","[2,15,17,16,17,18,16,17,16,17,16,17,17,17,17,17,17,17,17,17,17,17,17,17,17,16,17,17,17,16,17,17,17,17,17,16,17,17,17,17,17,17,17,17,17,17,17,17,16,17,17,17,17,16,17,17,16,17,17,17,17,17,17,16,17,17,17,17,17,17,17,17,17,17,17,17,17,17,16,17,17,17,17,17,17,17,16,17,16,17,16,17,17,17,17,17,17,17,17,17,17,17,17,16,17,16,17,18,16]","109","600","250","false","20","20","black","1","false","1","1","1200","660","response","j","no","other",""
"","","","","","html-keyboard-response","87","1304843","0.0-5.0-0.0-0.0-2.0-1.0-0.1-1.1-2.25","null","","null","<p style='font-size: 60px; color: green'>正确!</p>","","","","","","","","","","","","","","","","","","","","","","","","","","","","","","","","","","","","","","","","","","","","","","",""
"","","","","","html-keyboard-response","88","1306361","0.0-5.0-0.0-0.0-2.0-1.0-0.1-1.1-0.26","null","fixation","null","<p style='font-size: 48px; color: white'>+</p >","","","","","","","","","","","","","","","","","","","","","","","","","","","","","","","","","","","","","","","","","","","","","","",""
"","","","","","rdk","89","1309033","0.0-5.0-0.0-0.0-2.0-1.0-0.1-1.1-1.26","1670","match_RDK","f","","true","[""f"",""j""]","[""f""]","3000","true","1","100","1","180","0.6","0","5","1","-1","3","500","500","hsl(225, 50%, 50%)","hsl(0, 50%, 50%)","white","3000","12","circle","black","3","2","2","16.86","[9,17,17,17,17,17,17,16,17,17,17,17,17,17,17,16,17,17,17,17,17,17,17,17,17,17,17,17,17,17,17,16,17,17,17,17,17,17,17,17,17,17,17,17,17,17,17,17,17,17,17,17,17,17,17,17,17,17,17,17,17,17,17,17,17,17,17,17,17,17,17,17,17,17,17,17,17,17,17,17,17,17,17,16,17,17,17,17,16,17,17,16,17,17,17,17,17,17,17,17]","100","600","250","false","20","20","black","1","false","1","1","1200","660","response","f","yes","other",""
"","","","","","html-keyboard-response","90","1310044","0.0-5.0-0.0-0.0-2.0-1.0-0.1-1.1-2.26","null","","null","<p style='font-size: 60px; color: green'>正确!</p>","","","","","","","","","","","","","","","","","","","","","","","","","","","","","","","","","","","","","","","","","","","","","","",""
"","","","","","html-keyboard-response","91","1311575","0.0-5.0-0.0-0.0-2.0-1.0-0.1-1.1-0.27","null","fixation","null","<p style='font-size: 48px; color: white'>+</p >","","","","","","","","","","","","","","","","","","","","","","","","","","","","","","","","","","","","","","","","","","","","","","",""
"","","","","","rdk","92","1313769","0.0-5.0-0.0-0.0-2.0-1.0-0.1-1.1-1.27","1192","match_RDK","f","","true","[""f"",""j""]","[""f""]","3000","true","1","100","1","0","0.6","0","5","1","-1","3","500","500","hsl(225, 50%, 50%)","hsl(0, 50%, 50%)","white","3000","12","circle","black","3","2","2","16.87323943661972","[13,17,16,17,17,17,17,17,17,17,17,17,17,17,17,16,17,17,17,17,17,17,17,17,17,17,17,17,17,17,17,17,17,17,17,17,17,17,16,17,17,17,17,17,17,17,17,17,17,17,17,17,17,17,17,16,17,17,17,17,17,17,17,17,17,17,17,17,16,17,17]","71","600","250","false","20","20","black","1","false","1","1","1200","660","response","f","yes","self",""
"","","","","","html-keyboard-response","93","1314793","0.0-5.0-0.0-0.0-2.0-1.0-0.1-1.1-2.27","null","","null","<p style='font-size: 60px; color: green'>正确!</p>","","","","","","","","","","","","","","","","","","","","","","","","","","","","","","","","","","","","","","","","","","","","","","",""
"","","","","","html-keyboard-response","94","1316309","0.0-5.0-0.0-0.0-2.0-1.0-0.1-1.1-0.28","null","fixation","null","<p style='font-size: 48px; color: white'>+</p >","","","","","","","","","","","","","","","","","","","","","","","","","","","","","","","","","","","","","","","","","","","","","","",""
"","","","","","rdk","95","1319289","0.0-5.0-0.0-0.0-2.0-1.0-0.1-1.1-1.28","1962","match_RDK","j","","true","[""f"",""j""]","[""j""]","3000","true","1","100","1","0","0.6","0","5","1","-1","3","500","500","hsl(225, 50%, 50%)","hsl(0, 50%, 50%)","white","3000","12","circle","black","3","2","2","16.88888888888889","[12,17,17,17,17,17,17,17,17,17,17,17,17,16,17,17,17,17,17,17,17,17,17,17,17,17,17,17,17,17,17,17,17,17,17,17,17,17,17,17,17,17,17,17,17,17,17,17,17,16,17,17,16,17,16,17,17,17,17,17,17,17,17,17,17,17,17,17,17,17,17,17,17,17,17,16,17,17,17,17,17,16,17,17,17,17,16,17,17,17,17,17,17,17,17,17,17,17,17,17,17,17,17,17,17,17,17,17,17,17,17,17,17,17,16,17,17]","117","600","250","false","20","20","black","1","false","1","1","1200","660","response","j","no","other",""
"","","","","","html-keyboard-response","96","1320310","0.0-5.0-0.0-0.0-2.0-1.0-0.1-1.1-2.28","null","","null","<p style='font-size: 60px; color: green'>正确!</p>","","","","","","","","","","","","","","","","","","","","","","","","","","","","","","","","","","","","","","","","","","","","","","",""
"","","","","","html-keyboard-response","97","1321826","0.0-5.0-0.0-0.0-2.0-1.0-0.1-1.1-0.29","null","fixation","null","<p style='font-size: 48px; color: white'>+</p >","","","","","","","","","","","","","","","","","","","","","","","","","","","","","","","","","","","","","","","","","","","","","","",""
"","","","","","rdk","98","1324409","0.0-5.0-0.0-0.0-2.0-1.0-0.1-1.1-1.29","1580","match_RDK","j","","true","[""f"",""j""]","[""j""]","3000","true","1","100","1","180","0.6","0","5","1","-1","3","500","500","hsl(225, 50%, 50%)","hsl(0, 50%, 50%)","white","3000","12","circle","black","3","2","2","16.894736842105264","[10,17,17,17,17,17,17,17,17,17,17,17,17,17,17,17,17,17,17,17,17,17,17,17,17,17,17,17,17,17,17,17,17,17,16,17,17,17,16,17,17,17,17,17,17,17,17,17,17,17,17,17,17,17,17,17,17,17,17,17,17,17,17,17,17,17,17,17,17,17,17,17,17,16,17,17,17,17,17,17,17,17,17,17,17,17,17,17,17,17,17,17,17,17,17]","95","600","250","false","20","20","black","1","false","1","1","1200","660","response","j","no","self",""
"","","","","","html-keyboard-response","99","1325426","0.0-5.0-0.0-0.0-2.0-1.0-0.1-1.1-2.29","null","","null","<p style='font-size: 60px; color: green'>正确!</p>","","","","","","","","","","","","","","","","","","","","","","","","","","","","","","","","","","","","","","","","","","","","","","",""
"","","","","","html-keyboard-response","100","1326944","0.0-5.0-0.0-0.0-2.0-1.0-0.1-1.1-0.30","null","fixation","null","<p style='font-size: 48px; color: white'>+</p >","","","","","","","","","","","","","","","","","","","","","","","","","","","","","","","","","","","","","","","","","","","","","","",""
"","","","","","rdk","101","1329259","0.0-5.0-0.0-0.0-2.0-1.0-0.1-1.1-1.30","1299","match_RDK","f","","true","[""f"",""j""]","[""f""]","3000","true","1","100","1","180","0.6","0","5","1","-1","3","500","500","hsl(225, 50%, 50%)","hsl(0, 50%, 50%)","white","3000","12","circle","black","3","2","2","16.858974358974358","[12,16,17,17,17,17,17,17,17,17,17,17,17,17,17,17,16,17,17,17,17,17,17,17,17,17,17,17,17,17,17,17,17,17,17,17,17,17,17,17,17,17,17,17,17,17,17,17,17,17,17,16,17,17,17,17,17,16,17,17,17,17,17,16,17,17,17,17,17,17,17,17,17,17,16,17,17,17]","78","600","250","false","20","20","black","1","false","1","1","1200","660","response","f","yes","other",""
"","","","","","html-keyboard-response","102","1330275","0.0-5.0-0.0-0.0-2.0-1.0-0.1-1.1-2.30","null","","null","<p style='font-size: 60px; color: green'>正确!</p>","","","","","","","","","","","","","","","","","","","","","","","","","","","","","","","","","","","","","","","","","","","","","","",""
"","","","","","html-keyboard-response","103","1331793","0.0-5.0-0.0-0.0-2.0-1.0-0.1-1.1-0.31","null","fixation","null","<p style='font-size: 48px; color: white'>+</p >","","","","","","","","","","","","","","","","","","","","","","","","","","","","","","","","","","","","","","","","","","","","","","",""
"","","","","","rdk","104","1334088","0.0-5.0-0.0-0.0-2.0-1.0-0.1-1.1-1.31","1279","match_RDK","f","","true","[""f"",""j""]","[""f""]","3000","true","1","100","1","0","0.6","0","5","1","-1","3","500","500","hsl(225, 50%, 50%)","hsl(0, 50%, 50%)","white","3000","12","circle","black","3","2","2","16.82894736842105","[13,17,16,17,17,17,17,17,17,17,16,17,17,17,17,17,17,17,17,17,17,16,17,17,17,17,17,16,17,17,16,17,17,17,17,17,17,17,17,17,16,17,17,17,17,17,17,17,16,17,16,17,17,17,17,17,17,17,17,17,17,17,17,17,17,17,17,17,17,17,17,17,17,17,16,17]","76","600","250","false","20","20","black","1","false","1","1","1200","660","response","f","yes","self",""
"","","","","","html-keyboard-response","105","1335109","0.0-5.0-0.0-0.0-2.0-1.0-0.1-1.1-2.31","null","","null","<p style='font-size: 60px; color: green'>正确!</p>","","","","","","","","","","","","","","","","","","","","","","","","","","","","","","","","","","","","","","","","","","","","","","",""
"","","","","","html-keyboard-response","106","1336625","0.0-5.0-0.0-0.0-2.0-1.0-0.1-1.1-0.32","null","fixation","null","<p style='font-size: 48px; color: white'>+</p >","","","","","","","","","","","","","","","","","","","","","","","","","","","","","","","","","","","","","","","","","","","","","","",""
"","","","","","rdk","107","1339273","0.0-5.0-0.0-0.0-2.0-1.0-0.1-1.1-1.32","1645","match_RDK","f","","false","[""f"",""j""]","[""j""]","3000","true","1","100","1","0","0.6","0","5","1","-1","3","500","500","hsl(225, 50%, 50%)","hsl(0, 50%, 50%)","white","3000","12","circle","black","3","2","2","16.846938775510203","[10,17,17,17,17,17,17,17,17,17,17,17,17,17,17,17,17,17,17,17,17,17,17,17,17,17,17,16,17,17,17,16,17,17,17,17,17,17,17,16,17,17,17,17,17,17,17,17,17,17,17,17,17,17,17,17,17,16,17,17,17,17,17,17,17,17,16,17,17,17,17,17,17,17,17,17,17,17,17,17,16,16,17,17,17,17,17,17,17,17,17,17,17,17,17,17,17,16]","98","600","250","false","20","20","black","1","false","1","1","1200","660","response","j","no","other",""
"","","","","","html-keyboard-response","108","1340292","0.0-5.0-0.0-0.0-2.0-1.0-0.1-1.1-2.32","null","","null","<p style='font-size: 60px; color: red'>错误!</p>","","","","","","","","","","","","","","","","","","","","","","","","","","","","","","","","","","","","","","","","","","","","","","",""
"","","","","","html-keyboard-response","109","1341808","0.0-5.0-0.0-0.0-2.0-1.0-0.1-1.1-0.33","null","fixation","null","<p style='font-size: 48px; color: white'>+</p >","","","","","","","","","","","","","","","","","","","","","","","","","","","","","","","","","","","","","","","","","","","","","","",""
"","","","","","rdk","110","1343960","0.0-5.0-0.0-0.0-2.0-1.0-0.1-1.1-1.33","1134","match_RDK","f","","true","[""f"",""j""]","[""f""]","3000","true","1","100","1","0","0.6","0","5","1","-1","3","500","500","hsl(225, 50%, 50%)","hsl(0, 50%, 50%)","white","3000","12","circle","black","3","2","2","16.941176470588236","[14,17,17,17,17,17,17,17,17,17,17,17,17,17,17,17,17,17,17,17,17,17,17,17,17,17,17,17,17,17,17,17,17,17,17,17,17,17,17,17,17,17,17,16,17,17,17,17,17,17,17,17,17,17,17,17,17,17,17,17,17,17,17,17,17,17,17,17]","68","600","250","false","20","20","black","1","false","1","1","1200","660","response","f","yes","self",""
"","","","","","html-keyboard-response","111","1344976","0.0-5.0-0.0-0.0-2.0-1.0-0.1-1.1-2.33","null","","null","<p style='font-size: 60px; color: green'>正确!</p>","","","","","","","","","","","","","","","","","","","","","","","","","","","","","","","","","","","","","","","","","","","","","","",""
"","","","","","html-keyboard-response","112","1346493","0.0-5.0-0.0-0.0-2.0-1.0-0.1-1.1-0.34","null","fixation","null","<p style='font-size: 48px; color: white'>+</p >","","","","","","","","","","","","","","","","","","","","","","","","","","","","","","","","","","","","","","","","","","","","","","",""
"","","","","","rdk","113","1349016","0.0-5.0-0.0-0.0-2.0-1.0-0.1-1.1-1.34","1507","match_RDK","j","","true","[""f"",""j""]","[""j""]","3000","true","1","100","1","180","0.6","0","5","1","-1","3","500","500","hsl(225, 50%, 50%)","hsl(0, 50%, 50%)","white","3000","12","circle","black","3","2","2","16.844444444444445","[12,17,17,17,17,17,17,17,17,17,16,17,17,17,17,16,17,17,17,17,17,17,17,17,17,17,17,17,17,17,17,17,17,17,17,17,17,17,17,17,16,17,16,17,17,17,17,17,17,17,17,17,17,17,16,17,17,17,17,17,16,17,17,17,17,17,17,16,17,17,17,17,17,17,16,17,17,17,17,17,17,17,17,17,17,17,17,17,17,16]","90","600","250","false","20","20","black","1","false","1","1","1200","660","response","j","no","self",""
"","","","","","html-keyboard-response","114","1350042","0.0-5.0-0.0-0.0-2.0-1.0-0.1-1.1-2.34","null","","null","<p style='font-size: 60px; color: green'>正确!</p>","","","","","","","","","","","","","","","","","","","","","","","","","","","","","","","","","","","","","","","","","","","","","","",""
"","","","","","html-keyboard-response","115","1351563","0.0-5.0-0.0-0.0-2.0-1.0-0.1-1.1-0.35","null","fixation","null","<p style='font-size: 48px; color: white'>+</p >","","","","","","","","","","","","","","","","","","","","","","","","","","","","","","","","","","","","","","","","","","","","","","",""
"","","","","","rdk","116","1354344","0.0-5.0-0.0-0.0-2.0-1.0-0.1-1.1-1.35","1768","match_RDK","f","","true","[""f"",""j""]","[""f""]","3000","true","1","100","1","180","0.6","0","5","1","-1","3","500","500","hsl(225, 50%, 50%)","hsl(0, 50%, 50%)","white","3000","12","circle","black","3","2","2","16.87735849056604","[12,17,17,17,17,17,17,17,17,17,17,17,17,17,17,17,17,17,17,17,17,17,17,16,17,17,17,17,17,17,17,17,17,17,17,17,17,16,17,17,17,17,17,17,17,17,17,17,17,17,16,17,17,17,17,17,17,17,16,17,17,17,17,17,17,17,16,17,17,17,17,17,17,16,17,17,17,17,17,17,17,17,17,16,17,17,17,17,17,17,17,17,17,17,17,16,17,17,17,17,17,17,17,17,17,17]","106","600","250","false","20","20","black","1","false","1","1","1200","660","response","f","yes","other",""
"","","","","","html-keyboard-response","117","1355375","0.0-5.0-0.0-0.0-2.0-1.0-0.1-1.1-2.35","null","","null","<p style='font-size: 60px; color: green'>正确!</p>","","","","","","","","","","","","","","","","","","","","","","","","","","","","","","","","","","","","","","","","","","","","","","",""
"","","","","","html-keyboard-response","118","1356893","0.0-5.0-0.0-0.0-2.0-1.0-0.1-1.1-0.36","null","fixation","null","<p style='font-size: 48px; color: white'>+</p >","","","","","","","","","","","","","","","","","","","","","","","","","","","","","","","","","","","","","","","","","","","","","","",""
"","","","","","rdk","119","1359688","0.0-5.0-0.0-0.0-2.0-1.0-0.1-1.1-1.36","1790","match_RDK","j","","true","[""f"",""j""]","[""j""]","3000","true","1","100","1","180","0.6","0","5","1","-1","3","500","500","hsl(225, 50%, 50%)","hsl(0, 50%, 50%)","white","3000","12","circle","black","3","2","2","16.700934579439252","[8,16,17,17,17,18,17,17,16,17,17,17,17,17,17,17,17,17,16,17,17,17,17,17,16,17,17,16,17,17,16,17,17,17,16,17,17,17,17,17,16,17,17,17,17,17,17,16,16,17,16,17,17,16,16,17,17,16,17,17,17,16,17,17,17,17,16,17,17,16,17,17,16,17,17,16,17,16,17,17,16,17,17,17,17,17,17,17,17,17,16,17,17,17,16,17,17,17,17,17,16,17,17,17,17,17,17]","107","600","250","false","20","20","black","1","false","1","1","1200","660","response","j","no","self",""
"","","","","","html-keyboard-response","120","1360708","0.0-5.0-0.0-0.0-2.0-1.0-0.1-1.1-2.36","null","","null","<p style='font-size: 60px; color: green'>正确!</p>","","","","","","","","","","","","","","","","","","","","","","","","","","","","","","","","","","","","","","","","","","","","","","",""
"","","","","","html-keyboard-response","121","1362214","0.0-5.0-0.0-0.0-2.0-1.0-0.1-1.1-0.37","null","fixation","null","<p style='font-size: 48px; color: white'>+</p >","","","","","","","","","","","","","","","","","","","","","","","","","","","","","","","","","","","","","","","","","","","","","","",""
"","","","","","rdk","122","1364408","0.0-5.0-0.0-0.0-2.0-1.0-0.1-1.1-1.37","1181","match_RDK","f","","true","[""f"",""j""]","[""f""]","3000","true","1","100","1","0","0.6","0","5","1","-1","3","500","500","hsl(225, 50%, 50%)","hsl(0, 50%, 50%)","white","3000","12","circle","black","3","2","2","16.830985915492956","[11,17,17,17,17,17,17,17,17,17,17,17,17,17,17,17,17,17,17,16,17,17,17,17,17,16,17,17,16,17,17,17,17,17,17,17,16,17,17,16,17,17,17,17,17,17,17,17,17,17,17,17,17,17,17,17,17,16,17,17,17,17,17,17,17,17,17,17,17,17,17]","71","600","250","false","20","20","black","1","false","1","1","1200","660","response","f","yes","self",""
"","","","","","html-keyboard-response","123","1365426","0.0-5.0-0.0-0.0-2.0-1.0-0.1-1.1-2.37","null","","null","<p style='font-size: 60px; color: green'>正确!</p>","","","","","","","","","","","","","","","","","","","","","","","","","","","","","","","","","","","","","","","","","","","","","","",""
"","","","","","html-keyboard-response","124","1366943","0.0-5.0-0.0-0.0-2.0-1.0-0.1-1.1-0.38","null","fixation","null","<p style='font-size: 48px; color: white'>+</p >","","","","","","","","","","","","","","","","","","","","","","","","","","","","","","","","","","","","","","","","","","","","","","",""
"","","","","","rdk","125","1369800","0.0-5.0-0.0-0.0-2.0-1.0-0.1-1.1-1.38","1854","match_RDK","f","","false","[""f"",""j""]","[""j""]","3000","true","1","100","1","0","0.6","0","5","1","-1","3","500","500","hsl(225, 50%, 50%)","hsl(0, 50%, 50%)","white","3000","12","circle","black","3","2","2","16.684684684684683","[8,17,17,17,17,17,17,17,17,17,16,17,16,17,17,17,17,17,17,17,16,17,17,17,16,17,17,16,17,17,16,17,17,17,16,17,16,17,17,17,17,17,17,16,17,17,17,17,16,17,16,17,17,16,17,17,17,16,17,17,17,16,17,17,17,17,16,17,17,17,16,17,15,17,17,17,17,17,17,17,17,17,17,16,17,17,17,17,17,17,16,17,17,16,17,17,17,17,16,17,16,17,17,16,17,17,16,17,16,17,17]","111","600","250","false","20","20","black","1","false","1","1","1200","660","response","j","no","other",""
"","","","","","html-keyboard-response","126","1370826","0.0-5.0-0.0-0.0-2.0-1.0-0.1-1.1-2.38","null","","null","<p style='font-size: 60px; color: red'>错误!</p>","","","","","","","","","","","","","","","","","","","","","","","","","","","","","","","","","","","","","","","","","","","","","","",""
"","","","","","html-keyboard-response","127","1372342","0.0-5.0-0.0-0.0-2.0-1.0-0.1-1.1-0.39","null","fixation","null","<p style='font-size: 48px; color: white'>+</p >","","","","","","","","","","","","","","","","","","","","","","","","","","","","","","","","","","","","","","","","","","","","","","",""
"","","","","","rdk","128","1374712","0.0-5.0-0.0-0.0-2.0-1.0-0.1-1.1-1.39","1367","match_RDK","f","","true","[""f"",""j""]","[""f""]","3000","true","1","100","1","180","0.6","0","5","1","-1","3","500","500","hsl(225, 50%, 50%)","hsl(0, 50%, 50%)","white","3000","12","circle","black","3","2","2","16.78048780487805","[9,16,17,17,17,17,16,17,17,17,17,17,17,17,17,17,17,17,17,17,17,17,17,17,17,16,17,17,17,17,17,17,17,17,17,17,16,17,17,17,17,17,17,17,17,17,17,17,16,17,16,17,17,17,17,17,17,17,17,17,17,17,16,17,17,17,17,17,16,17,17,17,16,17,17,17,17,17,16,17,17,17]","82","600","250","false","20","20","black","1","false","1","1","1200","660","response","f","yes","other",""
"","","","","","html-keyboard-response","129","1375742","0.0-5.0-0.0-0.0-2.0-1.0-0.1-1.1-2.39","null","","null","<p style='font-size: 60px; color: green'>正确!</p>","","","","","","","","","","","","","","","","","","","","","","","","","","","","","","","","","","","","","","","","","","","","","","",""
"","","","","","html-keyboard-response","130","1377259","0.0-5.0-0.0-0.0-2.0-1.0-0.1-1.1-0.40","null","fixation","null","<p style='font-size: 48px; color: white'>+</p >","","","","","","","","","","","","","","","","","","","","","","","","","","","","","","","","","","","","","","","","","","","","","","",""
"","","","","","rdk","131","1379976","0.0-5.0-0.0-0.0-2.0-1.0-0.1-1.1-1.40","1714","match_RDK","f","","true","[""f"",""j""]","[""f""]","3000","true","1","100","1","180","0.6","0","5","1","-1","3","500","500","hsl(225, 50%, 50%)","hsl(0, 50%, 50%)","white","3000","12","circle","black","3","2","2","16.660194174757283","[10,17,17,17,18,17,17,16,17,17,16,17,16,17,17,17,16,17,17,17,17,17,17,17,17,16,17,17,17,16,17,17,17,16,17,17,16,17,16,17,16,17,17,17,16,17,17,17,17,16,17,16,17,17,16,17,17,17,16,18,16,16,16,17,17,17,17,17,17,16,17,17,16,17,17,17,16,17,17,17,16,16,17,17,17,17,17,16,17,17,16,17,17,16,17,16,17,16,17,16,17,17,16]","103","600","250","false","20","20","black","1","false","1","1","1200","660","response","f","yes","other",""
"","","","","","html-keyboard-response","132","1380992","0.0-5.0-0.0-0.0-2.0-1.0-0.1-1.1-2.40","null","","null","<p style='font-size: 60px; color: green'>正确!</p>","","","","","","","","","","","","","","","","","","","","","","","","","","","","","","","","","","","","","","","","","","","","","","",""
"","","","","","html-keyboard-response","133","1382494","0.0-5.0-0.0-0.0-2.0-1.0-0.1-1.1-0.41","null","fixation","null","<p style='font-size: 48px; color: white'>+</p >","","","","","","","","","","","","","","","","","","","","","","","","","","","","","","","","","","","","","","","","","","","","","","",""
"","","","","","rdk","134","1385209","0.0-5.0-0.0-0.0-2.0-1.0-0.1-1.1-1.41","1698","match_RDK","j","","true","[""f"",""j""]","[""j""]","3000","true","1","100","1","0","0.6","0","5","1","-1","3","500","500","hsl(225, 50%, 50%)","hsl(0, 50%, 50%)","white","3000","12","circle","black","3","2","2","16.84313725490196","[11,17,17,17,17,17,17,17,17,17,17,17,16,17,17,17,17,17,17,17,17,17,17,17,17,17,16,17,17,17,17,17,17,17,17,17,17,17,17,17,17,16,17,17,17,17,17,17,17,17,17,16,17,17,17,17,17,17,17,17,17,17,17,17,17,17,17,17,16,17,17,16,17,17,17,17,17,17,16,17,17,17,16,17,16,16,17,17,17,17,17,17,17,17,17,17,17,17,17,17,17,17]","102","600","250","false","20","20","black","1","false","1","1","1200","660","response","j","no","other",""
"","","","","","html-keyboard-response","135","1386226","0.0-5.0-0.0-0.0-2.0-1.0-0.1-1.1-2.41","null","","null","<p style='font-size: 60px; color: green'>正确!</p>","","","","","","","","","","","","","","","","","","","","","","","","","","","","","","","","","","","","","","","","","","","","","","",""
"","","","","","html-keyboard-response","136","1387742","0.0-5.0-0.0-0.0-2.0-1.0-0.1-1.1-0.42","null","fixation","null","<p style='font-size: 48px; color: white'>+</p >","","","","","","","","","","","","","","","","","","","","","","","","","","","","","","","","","","","","","","","","","","","","","","",""
"","","","","","rdk","137","1390232","0.0-5.0-0.0-0.0-2.0-1.0-0.1-1.1-1.42","1484","match_RDK","j","","true","[""f"",""j""]","[""j""]","3000","true","1","100","1","180","0.6","0","5","1","-1","3","500","500","hsl(225, 50%, 50%)","hsl(0, 50%, 50%)","white","3000","12","circle","black","3","2","2","16.59550561797753","[7,17,17,17,17,17,16,17,18,16,17,17,17,17,16,17,16,16,17,17,16,18,16,17,17,17,17,16,17,17,17,17,16,17,16,17,17,17,17,17,16,17,17,17,16,17,16,17,17,17,16,17,17,16,17,16,17,17,17,16,16,18,16,17,16,17,16,16,17,17,16,17,17,16,16,17,17,16,17,16,17,17,17,16,17,17,17,17,16]","89","600","250","false","20","20","black","1","false","1","1","1200","660","response","j","no","self",""
"","","","","","html-keyboard-response","138","1391258","0.0-5.0-0.0-0.0-2.0-1.0-0.1-1.1-2.42","null","","null","<p style='font-size: 60px; color: green'>正确!</p>","","","","","","","","","","","","","","","","","","","","","","","","","","","","","","","","","","","","","","","","","","","","","","",""
"","","","","","html-keyboard-response","139","1392775","0.0-5.0-0.0-0.0-2.0-1.0-0.1-1.1-0.43","null","fixation","null","<p style='font-size: 48px; color: white'>+</p >","","","","","","","","","","","","","","","","","","","","","","","","","","","","","","","","","","","","","","","","","","","","","","",""
"","","","","","rdk","140","1394761","0.0-5.0-0.0-0.0-2.0-1.0-0.1-1.1-1.43","983","match_RDK","f","","true","[""f"",""j""]","[""f""]","3000","true","1","100","1","0","0.6","0","5","1","-1","3","500","500","hsl(225, 50%, 50%)","hsl(0, 50%, 50%)","white","3000","12","circle","black","3","2","2","16.847457627118644","[10,17,17,17,17,17,17,17,17,17,17,17,17,17,17,17,17,17,17,17,17,16,17,17,17,17,17,17,17,17,17,17,17,17,17,17,16,17,17,17,17,17,17,17,17,17,17,17,17,17,17,17,17,17,17,17,17,17,17]","59","600","250","false","20","20","black","1","false","1","1","1200","660","response","f","yes","self",""
"","","","","","html-keyboard-response","141","1395777","0.0-5.0-0.0-0.0-2.0-1.0-0.1-1.1-2.43","null","","null","<p style='font-size: 60px; color: green'>正确!</p>","","","","","","","","","","","","","","","","","","","","","","","","","","","","","","","","","","","","","","","","","","","","","","",""
"","","","","","html-keyboard-response","142","1397294","0.0-5.0-0.0-0.0-2.0-1.0-0.1-1.1-0.44","null","fixation","null","<p style='font-size: 48px; color: white'>+</p >","","","","","","","","","","","","","","","","","","","","","","","","","","","","","","","","","","","","","","","","","","","","","","",""
"","","","","","rdk","143","1399785","0.0-5.0-0.0-0.0-2.0-1.0-0.1-1.1-1.44","1473","match_RDK","j","","true","[""f"",""j""]","[""j""]","3000","true","1","100","1","180","0.6","0","5","1","-1","3","500","500","hsl(225, 50%, 50%)","hsl(0, 50%, 50%)","white","3000","12","circle","black","3","2","2","16.818181818181817","[10,17,17,17,17,17,17,17,17,17,17,17,17,17,17,17,17,17,17,17,17,17,17,17,17,17,17,16,17,17,17,17,16,17,17,17,17,17,17,17,17,17,17,17,17,17,17,17,17,17,17,17,16,17,17,17,17,16,17,16,17,16,17,17,17,17,17,17,17,17,16,17,16,17,17,17,17,17,17,17,17,17,17,17,17,17,17,16]","88","600","250","false","20","20","black","1","false","1","1","1200","660","response","j","no","self",""
"","","","","","html-keyboard-response","144","1400810","0.0-5.0-0.0-0.0-2.0-1.0-0.1-1.1-2.44","null","","null","<p style='font-size: 60px; color: green'>正确!</p>","","","","","","","","","","","","","","","","","","","","","","","","","","","","","","","","","","","","","","","","","","","","","","",""
"","","","","","html-keyboard-response","145","1402327","0.0-5.0-0.0-0.0-2.0-1.0-0.1-1.1-0.45","null","fixation","null","<p style='font-size: 48px; color: white'>+</p >","","","","","","","","","","","","","","","","","","","","","","","","","","","","","","","","","","","","","","","","","","","","","","",""
"","","","","","rdk","146","1404969","0.0-5.0-0.0-0.0-2.0-1.0-0.1-1.1-1.45","1640","match_RDK","f","","true","[""f"",""j""]","[""f""]","3000","true","1","100","1","180","0.6","0","5","1","-1","3","500","500","hsl(225, 50%, 50%)","hsl(0, 50%, 50%)","white","3000","12","circle","black","3","2","2","16.693877551020407","[9,17,17,17,17,17,18,16,17,17,17,16,17,16,16,17,17,17,17,17,17,17,17,17,17,16,17,17,17,16,17,17,17,16,17,17,17,16,17,17,17,16,17,16,17,16,17,16,17,16,17,17,17,15,17,17,17,17,17,17,17,17,17,17,17,16,17,17,17,17,16,17,17,17,17,16,16,17,17,16,17,17,17,16,17,17,17,17,17,16,17,17,17,16,17,17,17,17]","98","600","250","false","20","20","black","1","false","1","1","1200","660","response","f","yes","other",""
"","","","","","html-keyboard-response","147","1405993","0.0-5.0-0.0-0.0-2.0-1.0-0.1-1.1-2.45","null","","null","<p style='font-size: 60px; color: green'>正确!</p>","","","","","","","","","","","","","","","","","","","","","","","","","","","","","","","","","","","","","","","","","","","","","","",""
"","","","","","html-keyboard-response","148","1407511","0.0-5.0-0.0-0.0-2.0-1.0-0.1-1.1-0.46","null","fixation","null","<p style='font-size: 48px; color: white'>+</p >","","","","","","","","","","","","","","","","","","","","","","","","","","","","","","","","","","","","","","","","","","","","","","",""
"","","","","","rdk","149","1409625","0.0-5.0-0.0-0.0-2.0-1.0-0.1-1.1-1.46","1098","match_RDK","f","","true","[""f"",""j""]","[""f""]","3000","true","1","100","1","0","0.6","0","5","1","-1","3","500","500","hsl(225, 50%, 50%)","hsl(0, 50%, 50%)","white","3000","12","circle","black","3","2","2","16.863636363636363","[12,17,17,17,17,17,17,17,17,17,17,17,16,17,17,17,17,16,17,17,17,17,17,17,17,17,17,17,17,17,17,17,17,17,17,17,17,17,17,17,17,16,17,17,17,17,16,17,17,17,17,17,17,17,17,17,17,17,17,17,17,17,17,17,17,17]","66","600","250","false","20","20","black","1","false","1","1","1200","660","response","f","yes","self",""
"","","","","","html-keyboard-response","150","1410643","0.0-5.0-0.0-0.0-2.0-1.0-0.1-1.1-2.46","null","","null","<p style='font-size: 60px; color: green'>正确!</p>","","","","","","","","","","","","","","","","","","","","","","","","","","","","","","","","","","","","","","","","","","","","","","",""
"","","","","","html-keyboard-response","151","1412159","0.0-5.0-0.0-0.0-2.0-1.0-0.1-1.1-0.47","null","fixation","null","<p style='font-size: 48px; color: white'>+</p >","","","","","","","","","","","","","","","","","","","","","","","","","","","","","","","","","","","","","","","","","","","","","","",""
"","","","","","rdk","152","1415017","0.0-5.0-0.0-0.0-2.0-1.0-0.1-1.1-1.47","1855","match_RDK","f","","false","[""f"",""j""]","[""j""]","3000","true","1","100","1","0","0.6","0","5","1","-1","3","500","500","hsl(225, 50%, 50%)","hsl(0, 50%, 50%)","white","3000","12","circle","black","3","2","2","16.684684684684683","[9,17,17,17,17,17,18,16,17,16,17,17,16,17,16,17,17,17,16,17,17,17,16,17,17,16,17,17,17,16,17,16,17,16,17,17,17,16,17,17,17,17,16,17,17,16,17,17,17,16,17,17,17,16,17,17,17,16,17,16,17,17,16,17,16,17,17,17,16,17,17,16,17,17,16,17,17,17,16,17,17,17,17,17,16,17,17,17,17,17,16,17,17,16,17,17,16,17,17,17,16,17,17,17,17,17,17,17,17,17,17]","111","600","250","false","20","20","black","1","false","1","1","1200","660","response","j","no","other",""
"","","","","","html-keyboard-response","153","1416042","0.0-5.0-0.0-0.0-2.0-1.0-0.1-1.1-2.47","null","","null","<p style='font-size: 60px; color: red'>错误!</p>","","","","","","","","","","","","","","","","","","","","","","","","","","","","","","","","","","","","","","","","","","","","","","",""
"","","","","","html-keyboard-response","154","1420618","0.0-5.0-0.0-0.0-2.0-1.0-0.1-3.1-0.1","3572","instruction_practiceEnd"," ","
  <div style=""text-align: center; color: white; padding: 30px; font-size: 30px"">
    <p>恭喜您完成练习，请按空格键进入正式任务</p >
    <p> 正式任务仅在 每组 测试结束后提供反馈</p>
  </div>
  ","","","","","","","","","","","","","","","","","","","","","","","","","","","","","","","","","","","","","","","","","","","","","","",""
"","","","","","html-keyboard-response","155","1422745","0.0-5.0-0.0-0.0-3.0-1.0-0.0-0.0","1118","instruction_match_formal"," ","
  <div style=""text-align: center; color: white; padding: 35px; font-size: 35px"">
    <p>请按下空格键开始【正式任务】</p >
  </div>
  ","","","","","","","","","","","","","","","","","","","","","","","","","","","","","","","","","","","","","","","","","","","","","","",""
"","","","","","html-keyboard-response","156","1424268","0.0-5.0-0.0-0.0-3.0-1.0-0.0-1.0-0.0","null","fixation","null","<p style='font-size: 48px; color: white'>+</p >","","","","","","","","","","","","","","","","","","","","","","","","","","","","","","","","","","","","","","","","","","","","","","",""
"","","","","","rdk","157","1426761","0.0-5.0-0.0-0.0-3.0-1.0-0.0-1.0-1.0","1484","match_RDK","j","","true","[""f"",""j""]","[""j""]","3000","true","1","100","1","180","0.6","0","5","1","-1","3","500","500","hsl(225, 50%, 50%)","hsl(0, 50%, 50%)","white","3000","12","circle","black","3","2","2","16.910112359550563","[13,17,17,17,17,17,17,17,17,17,17,17,17,17,17,17,17,17,17,17,17,17,17,17,17,17,17,17,17,17,17,17,16,17,17,17,17,17,17,17,17,17,17,17,17,17,17,17,17,17,17,17,17,17,16,17,17,17,17,17,17,17,17,17,17,17,17,16,17,17,17,17,17,17,17,17,17,16,17,17,17,17,17,17,17,17,17,17,17]","89","600","250","false","20","20","black","1","false","1","1","1200","660","response","j","no","self",""
"","","","","","html-keyboard-response","158","1427793","0.0-5.0-0.0-0.0-3.0-1.0-0.0-1.0-0.1","null","fixation","null","<p style='font-size: 48px; color: white'>+</p >","","","","","","","","","","","","","","","","","","","","","","","","","","","","","","","","","","","","","","","","","","","","","","",""
"","","","","","rdk","159","1430361","0.0-5.0-0.0-0.0-3.0-1.0-0.0-1.0-1.1","1566","match_RDK","f","","true","[""f"",""j""]","[""f""]","3000","true","1","100","1","0","0.6","0","5","1","-1","3","500","500","hsl(225, 50%, 50%)","hsl(0, 50%, 50%)","white","3000","12","circle","black","3","2","2","16.882978723404257","[10,17,17,17,17,17,17,17,17,17,17,17,17,17,17,17,16,17,17,17,17,17,17,17,17,17,17,17,17,16,17,17,17,17,17,17,17,17,17,17,17,17,17,17,17,17,17,17,17,17,17,17,17,17,17,17,17,17,17,17,17,17,17,16,17,17,17,17,17,17,17,17,17,17,17,17,17,17,17,17,16,17,17,17,17,17,17,17,17,17,17,17,17,17]","94","600","250","false","20","20","black","1","false","1","1","1200","660","response","f","yes","self",""
"","","","","","html-keyboard-response","160","1431376","0.0-5.0-0.0-0.0-3.0-1.0-0.0-1.0-0.2","null","fixation","null","<p style='font-size: 48px; color: white'>+</p >","","","","","","","","","","","","","","","","","","","","","","","","","","","","","","","","","","","","","","","","","","","","","","",""
"","","","","","rdk","161","1433849","0.0-5.0-0.0-0.0-3.0-1.0-0.0-1.0-1.2","1471","match_RDK","j","","true","[""f"",""j""]","[""j""]","3000","true","1","100","1","0","0.6","0","5","1","-1","3","500","500","hsl(225, 50%, 50%)","hsl(0, 50%, 50%)","white","3000","12","circle","black","3","2","2","16.875","[12,17,17,17,17,17,17,17,16,17,17,17,17,17,17,16,17,16,17,17,17,17,17,17,17,17,16,17,17,17,17,17,17,17,17,17,17,17,17,17,17,17,17,17,17,17,16,17,17,17,17,17,17,17,17,17,17,17,17,17,17,17,17,17,17,17,17,17,17,17,17,17,17,17,17,17,17,17,17,17,16,17,17,17,17,17,17,17]","88","600","250","false","20","20","black","1","false","1","1","1200","660","response","j","no","other",""
"","","","","","html-keyboard-response","162","1434861","0.0-5.0-0.0-0.0-3.0-1.0-0.0-1.0-0.3","null","fixation","null","<p style='font-size: 48px; color: white'>+</p >","","","","","","","","","","","","","","","","","","","","","","","","","","","","","","","","","","","","","","","","","","","","","","",""
"","","","","","rdk","163","1437033","0.0-5.0-0.0-0.0-3.0-1.0-0.0-1.0-1.3","1156","match_RDK","f","","true","[""f"",""j""]","[""f""]","3000","true","1","100","1","180","0.6","0","5","1","-1","3","500","500","hsl(225, 50%, 50%)","hsl(0, 50%, 50%)","white","3000","12","circle","black","3","2","2","16.840579710144926","[12,17,17,17,17,17,17,17,17,17,17,17,17,16,17,17,17,16,17,18,16,17,17,16,17,17,17,17,17,17,17,17,17,16,17,17,17,17,17,17,17,17,17,17,17,17,17,17,17,17,17,17,17,17,16,17,17,17,17,17,16,17,17,17,17,17,17,17,17]","69","600","250","false","20","20","black","1","false","1","1","1200","660","response","f","yes","other",""
"","","","","","html-keyboard-response","164","1438059","0.0-5.0-0.0-0.0-3.0-1.0-0.0-1.0-0.4","null","fixation","null","<p style='font-size: 48px; color: white'>+</p >","","","","","","","","","","","","","","","","","","","","","","","","","","","","","","","","","","","","","","","","","","","","","","",""
"","","","","","rdk","165","1440217","0.0-5.0-0.0-0.0-3.0-1.0-0.0-1.0-1.4","1155","match_RDK","j","","true","[""f"",""j""]","[""j""]","3000","true","1","100","1","0","0.6","0","5","1","-1","3","500","500","hsl(225, 50%, 50%)","hsl(0, 50%, 50%)","white","3000","12","circle","black","3","2","2","16.608695652173914","[10,16,17,17,17,18,16,17,17,17,16,17,17,17,16,17,17,17,17,16,17,17,16,17,17,16,17,16,17,15,17,16,17,17,17,17,16,17,17,16,17,17,16,17,17,17,16,17,16,17,17,17,17,17,17,16,17,16,17,17,16,17,16,17,16,17,17,17,17]","69","600","250","false","20","20","black","1","false","1","1","1200","660","response","j","no","other",""
"","","","","","html-keyboard-response","166","1441243","0.0-5.0-0.0-0.0-3.0-1.0-0.0-1.0-0.5","null","fixation","null","<p style='font-size: 48px; color: white'>+</p >","","","","","","","","","","","","","","","","","","","","","","","","","","","","","","","","","","","","","","","","","","","","","","",""
"","","","","","rdk","167","1444044","0.0-5.0-0.0-0.0-3.0-1.0-0.0-1.0-1.5","1783","match_RDK","f","","true","[""f"",""j""]","[""f""]","3000","true","1","100","1","180","0.6","0","5","1","-1","3","500","500","hsl(225, 50%, 50%)","hsl(0, 50%, 50%)","white","3000","12","circle","black","3","2","2","16.897196261682243","[13,17,17,17,17,17,16,17,17,17,17,17,17,17,17,17,17,17,17,17,17,17,17,17,17,17,17,17,17,17,17,16,17,17,17,17,17,17,17,17,17,17,17,17,16,17,17,17,17,17,16,17,17,17,17,17,17,17,17,17,17,17,17,17,17,17,17,16,17,17,17,17,17,16,17,17,17,17,17,16,17,17,16,17,17,17,17,17,17,17,17,17,17,17,17,17,17,17,17,17,17,17,17,17,17,17,18]","107","600","250","false","20","20","black","1","false","1","1","1200","660","response","f","yes","other",""
"","","","","","html-keyboard-response","168","1445059","0.0-5.0-0.0-0.0-3.0-1.0-0.0-1.0-0.6","null","fixation","null","<p style='font-size: 48px; color: white'>+</p >","","","","","","","","","","","","","","","","","","","","","","","","","","","","","","","","","","","","","","","","","","","","","","",""
"","","","","","rdk","169","1447353","0.0-5.0-0.0-0.0-3.0-1.0-0.0-1.0-1.6","1288","match_RDK","f","","true","[""f"",""j""]","[""f""]","3000","true","1","100","1","0","0.6","0","5","1","-1","3","500","500","hsl(225, 50%, 50%)","hsl(0, 50%, 50%)","white","3000","12","circle","black","3","2","2","16.805194805194805","[8,17,17,16,17,17,17,17,17,17,16,17,17,17,17,17,17,17,17,16,17,17,16,17,17,17,17,17,17,17,17,17,17,17,17,17,17,17,17,17,17,17,17,17,17,16,17,17,17,17,17,17,17,17,17,17,17,17,17,17,17,17,17,17,17,17,17,16,17,17,17,17,17,17,17,17,17]","77","600","250","false","20","20","black","1","false","1","1","1200","660","response","f","yes","self",""
"","","","","","html-keyboard-response","170","1448376","0.0-5.0-0.0-0.0-3.0-1.0-0.0-1.0-0.7","null","fixation","null","<p style='font-size: 48px; color: white'>+</p >","","","","","","","","","","","","","","","","","","","","","","","","","","","","","","","","","","","","","","","","","","","","","","",""
"","","","","","rdk","171","1450537","0.0-5.0-0.0-0.0-3.0-1.0-0.0-1.0-1.7","1159","match_RDK","j","","true","[""f"",""j""]","[""j""]","3000","true","1","100","1","180","0.6","0","5","1","-1","3","500","500","hsl(225, 50%, 50%)","hsl(0, 50%, 50%)","white","3000","12","circle","black","3","2","2","16.6231884057971","[11,16,16,17,17,17,18,16,17,17,15,17,17,16,17,17,17,17,17,17,17,17,17,17,16,17,17,16,17,17,16,17,17,17,16,17,17,16,17,16,17,16,17,17,16,17,17,17,17,16,17,16,17,17,17,17,17,16,16,17,17,17,16,17,17,17,16,16,17]","69","600","250","false","20","20","black","1","false","1","1","1200","660","response","j","no","self",""
"","","","","","html-keyboard-response","172","1451560","0.0-5.0-0.0-0.0-3.0-1.0-0.0-1.0-0.8","null","fixation","null","<p style='font-size: 48px; color: white'>+</p >","","","","","","","","","","","","","","","","","","","","","","","","","","","","","","","","","","","","","","","","","","","","","","",""
"","","","","","rdk","173","1454585","0.0-5.0-0.0-0.0-3.0-1.0-0.0-1.0-1.8","2008","match_RDK","j","","true","[""f"",""j""]","[""j""]","3000","true","1","100","1","180","0.6","0","5","1","-1","3","500","500","hsl(225, 50%, 50%)","hsl(0, 50%, 50%)","white","3000","12","circle","black","3","2","2","16.875","[12,17,17,17,17,17,17,17,16,17,17,17,17,17,17,16,17,17,17,17,17,17,17,17,17,16,17,17,17,17,17,17,17,17,17,17,17,17,17,17,17,17,17,17,17,17,17,17,17,17,17,17,17,17,16,17,17,17,17,17,17,17,17,17,17,17,16,17,17,17,17,17,17,17,17,17,17,17,17,17,17,17,17,17,17,17,16,17,17,17,17,17,17,17,17,17,17,17,16,17,16,17,17,17,17,17,16,17,17,17,17,17,17,17,16,17,17,17,17,17]","120","600","250","false","20","20","black","1","false","1","1","1200","660","response","j","no","self",""
"","","","","","html-keyboard-response","174","1455609","0.0-5.0-0.0-0.0-3.0-1.0-0.0-1.0-0.9","null","fixation","null","<p style='font-size: 48px; color: white'>+</p >","","","","","","","","","","","","","","","","","","","","","","","","","","","","","","","","","","","","","","","","","","","","","","",""
"","","","","","rdk","175","1457865","0.0-5.0-0.0-0.0-3.0-1.0-0.0-1.0-1.9","1249","match_RDK","f","","true","[""f"",""j""]","[""f""]","3000","true","1","100","1","0","0.6","0","5","1","-1","3","500","500","hsl(225, 50%, 50%)","hsl(0, 50%, 50%)","white","3000","12","circle","black","3","2","2","16.586666666666666","[7,18,16,17,17,16,17,16,17,16,17,16,17,17,16,17,17,17,17,17,17,17,17,17,16,17,17,17,17,17,17,17,16,17,16,17,16,17,17,17,16,17,16,17,17,17,17,17,17,17,16,17,15,17,17,16,18,16,17,17,16,17,16,17,16,17,17,17,16,17,16,17,17,16,17]","75","600","250","false","20","20","black","1","false","1","1","1200","660","response","f","yes","self",""
"","","","","","html-keyboard-response","176","1458894","0.0-5.0-0.0-0.0-3.0-1.0-0.0-1.0-0.10","null","fixation","null","<p style='font-size: 48px; color: white'>+</p >","","","","","","","","","","","","","","","","","","","","","","","","","","","","","","","","","","","","","","","","","","","","","","",""
"","","","","","rdk","177","1461705","0.0-5.0-0.0-0.0-3.0-1.0-0.0-1.0-1.10","1803","match_RDK","j","","true","[""f"",""j""]","[""j""]","3000","true","1","100","1","0","0.6","0","5","1","-1","3","500","500","hsl(225, 50%, 50%)","hsl(0, 50%, 50%)","white","3000","12","circle","black","3","2","2","16.74074074074074","[4,16,17,16,17,17,16,17,17,17,17,16,17,17,17,17,17,17,17,17,16,17,16,17,17,17,17,17,17,17,17,17,17,17,17,17,17,17,17,17,17,17,17,17,17,17,17,16,17,17,17,16,17,17,18,17,16,17,17,16,17,17,16,17,16,17,17,17,17,17,17,17,17,17,17,17,17,17,17,17,17,17,17,17,17,17,17,17,17,16,16,17,17,17,17,18,16,16,17,17,16,17,17,17,17,17,17,17]","108","600","250","false","20","20","black","1","false","1","1","1200","660","response","j","no","other",""
"","","","","","html-keyboard-response","178","1462726","0.0-5.0-0.0-0.0-3.0-1.0-0.0-1.0-0.11","null","fixation","null","<p style='font-size: 48px; color: white'>+</p >","","","","","","","","","","","","","","","","","","","","","","","","","","","","","","","","","","","","","","","","","","","","","","",""
"","","","","","rdk","179","1464985","0.0-5.0-0.0-0.0-3.0-1.0-0.0-1.0-1.11","1256","match_RDK","f","","true","[""f"",""j""]","[""f""]","3000","true","1","100","1","180","0.6","0","5","1","-1","3","500","500","hsl(225, 50%, 50%)","hsl(0, 50%, 50%)","white","3000","12","circle","black","3","2","2","16.626666666666665","[10,17,17,17,16,17,17,17,17,16,17,17,16,17,17,17,16,17,17,17,17,17,16,17,16,17,17,17,16,17,16,17,17,17,16,17,17,17,17,17,17,16,17,16,16,17,17,17,16,17,17,17,16,17,16,17,17,17,17,16,17,17,16,17,16,17,17,17,16,17,16,17,17,17,16]","75","600","250","false","20","20","black","1","false","1","1","1200","660","response","f","yes","other",""
"","","","","","html-keyboard-response","180","1466010","0.0-5.0-0.0-0.0-3.0-1.0-0.0-1.0-0.12","null","fixation","null","<p style='font-size: 48px; color: white'>+</p >","","","","","","","","","","","","","","","","","","","","","","","","","","","","","","","","","","","","","","","","","","","","","","",""
"","","","","","rdk","181","1468569","0.0-5.0-0.0-0.0-3.0-1.0-0.0-1.0-1.12","1557","match_RDK","j","","true","[""f"",""j""]","[""j""]","3000","true","1","100","1","180","0.6","0","5","1","-1","3","500","500","hsl(225, 50%, 50%)","hsl(0, 50%, 50%)","white","3000","12","circle","black","3","2","2","16.838709677419356","[10,17,17,17,17,17,17,17,17,16,17,17,17,17,17,17,17,17,17,17,17,16,17,17,17,17,17,17,17,17,17,17,16,17,17,17,17,17,17,17,17,17,16,17,17,17,17,17,17,17,17,17,17,17,17,17,17,17,17,17,17,17,17,17,17,17,17,17,17,17,16,17,16,17,16,17,17,17,17,17,17,17,17,17,17,17,17,17,17,17,17,17,16]","93","600","250","false","20","20","black","1","false","1","1","1200","660","response","j","no","self",""
"","","","","","html-keyboard-response","182","1469593","0.0-5.0-0.0-0.0-3.0-1.0-0.0-1.0-0.13","null","fixation","null","<p style='font-size: 48px; color: white'>+</p >","","","","","","","","","","","","","","","","","","","","","","","","","","","","","","","","","","","","","","","","","","","","","","",""
"","","","","","rdk","183","1472137","0.0-5.0-0.0-0.0-3.0-1.0-0.0-1.0-1.13","1541","match_RDK","f","","true","[""f"",""j""]","[""f""]","3000","true","1","100","1","180","0.6","0","5","1","-1","3","500","500","hsl(225, 50%, 50%)","hsl(0, 50%, 50%)","white","3000","12","circle","black","3","2","2","16.880434782608695","[11,17,17,17,17,16,17,17,17,17,17,17,17,17,17,17,17,17,17,17,17,16,17,17,17,17,17,17,17,17,17,17,17,17,17,17,17,17,17,17,17,17,17,17,17,17,17,16,16,17,17,17,17,17,17,17,17,17,16,17,17,17,17,17,17,17,17,17,17,17,17,17,17,17,17,17,17,17,17,17,17,17,17,17,17,17,17,17,17,17,17,17]","92","600","250","false","20","20","black","1","false","1","1","1200","660","response","f","yes","other",""
"","","","","","html-keyboard-response","184","1473160","0.0-5.0-0.0-0.0-3.0-1.0-0.0-1.0-0.14","null","fixation","null","<p style='font-size: 48px; color: white'>+</p >","","","","","","","","","","","","","","","","","","","","","","","","","","","","","","","","","","","","","","","","","","","","","","",""
"","","","","","rdk","185","1475978","0.0-5.0-0.0-0.0-3.0-1.0-0.0-1.0-1.14","1800","match_RDK","f","","true","[""f"",""j""]","[""f""]","3000","true","1","100","1","0","0.6","0","5","1","-1","3","500","500","hsl(225, 50%, 50%)","hsl(0, 50%, 50%)","white","3000","12","circle","black","3","2","2","16.89814814814815","[11,17,17,17,17,17,16,17,17,17,17,16,17,17,17,17,17,17,17,17,17,17,17,17,17,17,17,16,17,17,17,17,17,17,17,17,17,17,17,17,17,17,17,17,17,17,17,17,17,17,17,17,17,17,17,17,17,17,17,17,17,17,17,16,17,17,17,17,17,17,17,17,17,17,17,17,17,17,17,17,17,17,17,17,17,17,17,17,17,17,17,17,17,17,17,17,17,17,17,17,16,17,17,17,17,17,17,17]","108","600","250","false","20","20","black","1","false","1","1","1200","660","response","f","yes","self",""
"","","","","","html-keyboard-response","186","1476993","0.0-5.0-0.0-0.0-3.0-1.0-0.0-1.0-0.15","null","fixation","null","<p style='font-size: 48px; color: white'>+</p >","","","","","","","","","","","","","","","","","","","","","","","","","","","","","","","","","","","","","","","","","","","","","","",""
"","","","","","rdk","187","1479177","0.0-5.0-0.0-0.0-3.0-1.0-0.0-1.0-1.15","1178","match_RDK","j","","true","[""f"",""j""]","[""j""]","3000","true","1","100","1","0","0.6","0","5","1","-1","3","500","500","hsl(225, 50%, 50%)","hsl(0, 50%, 50%)","white","3000","12","circle","black","3","2","2","16.774647887323944","[6,17,17,17,17,17,17,18,16,16,17,17,17,17,17,16,17,17,17,17,17,17,17,17,17,17,17,17,17,17,17,17,17,17,17,17,16,17,17,17,17,17,17,17,17,17,17,17,17,17,16,16,17,17,17,17,17,17,17,17,17,17,17,17,17,17,17,17,17,17,17]","71","600","250","false","20","20","black","1","false","1","1","1200","660","response","j","no","other",""
"","","","","","html-keyboard-response","188","1480194","0.0-5.0-0.0-0.0-3.0-1.0-0.0-1.0-0.16","null","fixation","null","<p style='font-size: 48px; color: white'>+</p >","","","","","","","","","","","","","","","","","","","","","","","","","","","","","","","","","","","","","","","","","","","","","","",""
"","","","","","rdk","189","1482378","0.0-5.0-0.0-0.0-3.0-1.0-0.0-1.0-1.16","1166","match_RDK","j","","true","[""f"",""j""]","[""j""]","3000","true","1","100","1","0","0.6","0","5","1","-1","3","500","500","hsl(225, 50%, 50%)","hsl(0, 50%, 50%)","white","3000","12","circle","black","3","2","2","16.857142857142858","[11,17,17,17,17,16,17,18,16,17,16,17,17,17,17,17,17,17,17,17,17,17,17,17,17,17,17,17,17,17,17,17,17,17,17,17,17,17,17,17,17,17,17,17,17,17,17,17,16,17,17,17,17,17,17,17,17,17,17,17,17,17,17,17,17,16,17,17,17,17]","70","600","250","false","20","20","black","1","false","1","1","1200","660","response","j","no","other",""
"","","","","","html-keyboard-response","190","1483393","0.0-5.0-0.0-0.0-3.0-1.0-0.0-1.0-0.17","null","fixation","null","<p style='font-size: 48px; color: white'>+</p >","","","","","","","","","","","","","","","","","","","","","","","","","","","","","","","","","","","","","","","","","","","","","","",""
"","","","","","rdk","191","1485545","0.0-5.0-0.0-0.0-3.0-1.0-0.0-1.0-1.17","1150","match_RDK","f","","true","[""f"",""j""]","[""f""]","3000","true","1","100","1","0","0.6","0","5","1","-1","3","500","500","hsl(225, 50%, 50%)","hsl(0, 50%, 50%)","white","3000","12","circle","black","3","2","2","16.840579710144926","[10,17,17,17,17,17,17,17,17,17,16,17,16,17,17,17,17,17,17,17,17,17,17,17,17,17,17,17,17,17,17,17,17,17,17,17,17,17,17,17,17,16,17,17,17,17,17,17,16,17,17,17,17,17,17,17,17,17,17,17,17,17,17,17,17,17,17,17,17]","69","600","250","false","20","20","black","1","false","1","1","1200","660","response","f","yes","self",""
"","","","","","html-keyboard-response","192","1486561","0.0-5.0-0.0-0.0-3.0-1.0-0.0-1.0-0.18","null","fixation","null","<p style='font-size: 48px; color: white'>+</p >","","","","","","","","","","","","","","","","","","","","","","","","","","","","","","","","","","","","","","","","","","","","","","",""
"","","","","","rdk","193","1489274","0.0-5.0-0.0-0.0-3.0-1.0-0.0-1.0-1.18","1695","match_RDK","f","","true","[""f"",""j""]","[""f""]","3000","true","1","100","1","180","0.6","0","5","1","-1","3","500","500","hsl(225, 50%, 50%)","hsl(0, 50%, 50%)","white","3000","12","circle","black","3","2","2","16.89108910891089","[11,17,17,17,17,17,17,17,17,17,17,17,17,17,17,17,17,17,17,17,17,16,17,17,17,17,17,17,17,17,17,17,17,17,17,17,17,17,17,17,17,17,17,17,17,17,17,17,17,17,17,17,17,17,17,17,17,17,17,17,17,17,17,17,17,17,17,17,17,17,17,16,17,17,17,16,17,17,17,17,17,16,17,17,17,17,17,17,17,17,17,16,17,17,17,17,17,17,17,17,17]","101","600","250","false","20","20","black","1","false","1","1","1200","660","response","f","yes","other",""
"","","","","","html-keyboard-response","194","1490293","0.0-5.0-0.0-0.0-3.0-1.0-0.0-1.0-0.19","null","fixation","null","<p style='font-size: 48px; color: white'>+</p >","","","","","","","","","","","","","","","","","","","","","","","","","","","","","","","","","","","","","","","","","","","","","","",""
"","","","","","rdk","195","1493114","0.0-5.0-0.0-0.0-3.0-1.0-0.0-1.0-1.19","1818","match_RDK","j","","true","[""f"",""j""]","[""j""]","3000","true","1","100","1","180","0.6","0","5","1","-1","3","500","500","hsl(225, 50%, 50%)","hsl(0, 50%, 50%)","white","3000","12","circle","black","3","2","2","16.825688073394495","[10,17,17,17,17,16,17,17,17,17,17,17,17,17,17,16,17,17,17,17,17,17,17,17,16,17,17,17,17,17,17,17,17,17,17,17,17,17,17,17,17,17,17,17,17,16,17,17,17,17,17,17,17,17,16,17,17,17,16,17,17,16,17,17,17,17,17,17,17,17,17,16,17,17,17,17,17,16,17,16,17,17,17,17,16,17,17,17,17,17,17,17,17,17,17,16,17,17,17,17,17,17,17,17,17,17,17,17,17]","109","600","250","false","20","20","black","1","false","1","1","1200","660","response","j","no","self",""
"","","","","","html-keyboard-response","196","1494144","0.0-5.0-0.0-0.0-3.0-1.0-0.0-1.0-0.20","null","fixation","null","<p style='font-size: 48px; color: white'>+</p >","","","","","","","","","","","","","","","","","","","","","","","","","","","","","","","","","","","","","","","","","","","","","","",""
"","","","","","rdk","197","1496281","0.0-5.0-0.0-0.0-3.0-1.0-0.0-1.0-1.20","1135","match_RDK","f","","true","[""f"",""j""]","[""f""]","3000","true","1","100","1","180","0.6","0","5","1","-1","3","500","500","hsl(225, 50%, 50%)","hsl(0, 50%, 50%)","white","3000","12","circle","black","3","2","2","16.86764705882353","[10,17,17,17,17,17,17,17,17,17,17,17,17,17,17,17,17,17,17,16,17,17,17,17,17,17,17,17,17,17,17,17,17,17,17,16,17,17,17,17,17,17,17,17,17,17,17,17,17,17,17,17,17,17,17,17,17,17,17,17,17,17,17,17,17,17,17,17]","68","600","250","false","20","20","black","1","false","1","1","1200","660","response","f","yes","other",""
"","","","","","html-keyboard-response","198","1497310","0.0-5.0-0.0-0.0-3.0-1.0-0.0-1.0-0.21","null","fixation","null","<p style='font-size: 48px; color: white'>+</p >","","","","","","","","","","","","","","","","","","","","","","","","","","","","","","","","","","","","","","","","","","","","","","",""
"","","","","","rdk","199","1499801","0.0-5.0-0.0-0.0-3.0-1.0-0.0-1.0-1.21","1489","match_RDK","j","","true","[""f"",""j""]","[""j""]","3000","true","1","100","1","0","0.6","0","5","1","-1","3","500","500","hsl(225, 50%, 50%)","hsl(0, 50%, 50%)","white","3000","12","circle","black","3","2","2","16.865168539325843","[10,17,17,17,17,17,17,17,17,17,17,17,17,17,17,17,17,17,17,17,17,17,17,17,17,17,17,17,17,17,17,17,17,17,17,17,17,16,17,17,17,16,17,17,17,17,17,17,17,17,17,17,17,17,17,17,16,17,17,17,17,17,17,17,17,17,17,17,17,17,17,17,17,17,17,17,17,17,16,17,17,17,17,17,17,17,16,17,17]","89","600","250","false","20","20","black","1","false","1","1","1200","660","response","j","no","other",""
"","","","","","html-keyboard-response","200","1500827","0.0-5.0-0.0-0.0-3.0-1.0-0.0-1.0-0.22","null","fixation","null","<p style='font-size: 48px; color: white'>+</p >","","","","","","","","","","","","","","","","","","","","","","","","","","","","","","","","","","","","","","","","","","","","","","",""
"","","","","","rdk","201","1503290","0.0-5.0-0.0-0.0-3.0-1.0-0.0-1.0-1.22","1457","match_RDK","f","","true","[""f"",""j""]","[""f""]","3000","true","1","100","1","0","0.6","0","5","1","-1","3","500","500","hsl(225, 50%, 50%)","hsl(0, 50%, 50%)","white","3000","12","circle","black","3","2","2","16.75862068965517","[8,17,17,17,17,16,17,17,17,17,17,17,17,17,16,17,17,17,17,17,17,17,17,17,17,17,17,16,17,17,17,17,17,16,17,17,17,17,17,16,17,17,16,17,17,16,17,17,17,17,17,17,17,17,16,17,16,17,17,17,17,17,17,17,17,17,17,17,17,16,17,17,17,17,17,17,17,16,17,17,17,17,16,17,17,17,17]","87","600","250","false","20","20","black","1","false","1","1","1200","660","response","f","yes","self",""
"","","","","","html-keyboard-response","202","1504310","0.0-5.0-0.0-0.0-3.0-1.0-0.0-1.0-0.23","null","fixation","null","<p style='font-size: 48px; color: white'>+</p >","","","","","","","","","","","","","","","","","","","","","","","","","","","","","","","","","","","","","","","","","","","","","","",""
"","","","","","rdk","203","1507130","0.0-5.0-0.0-0.0-3.0-1.0-0.0-1.0-1.23","1812","match_RDK","j","","true","[""f"",""j""]","[""j""]","3000","true","1","100","1","180","0.6","0","5","1","-1","3","500","500","hsl(225, 50%, 50%)","hsl(0, 50%, 50%)","white","3000","12","circle","black","3","2","2","16.779816513761467","[7,15,16,17,17,17,16,17,17,17,16,17,17,17,18,16,16,17,17,17,17,17,16,17,17,17,17,17,17,17,17,16,17,17,17,17,17,17,17,17,17,17,17,17,17,17,17,17,17,17,17,17,17,17,17,17,17,17,16,17,17,17,17,17,17,17,17,17,17,17,17,17,17,17,17,17,16,17,17,17,17,17,17,16,17,16,17,16,18,16,17,17,17,17,17,17,16,17,17,17,17,17,17,17,17,17,17,17,17]","109","600","250","false","20","20","black","1","false","1","1","1200","660","response","j","no","self",""
"","","","","","html-keyboard-response","204","1508160","0.0-5.0-0.0-0.0-3.0-1.0-0.0-1.0-0.24","null","fixation","null","<p style='font-size: 48px; color: white'>+</p >","","","","","","","","","","","","","","","","","","","","","","","","","","","","","","","","","","","","","","","","","","","","","","",""
"","","","","","rdk","205","1510697","0.0-5.0-0.0-0.0-3.0-1.0-0.0-1.0-1.24","1534","match_RDK","f","","true","[""f"",""j""]","[""f""]","3000","true","1","100","1","0","0.6","0","5","1","-1","3","500","500","hsl(225, 50%, 50%)","hsl(0, 50%, 50%)","white","3000","12","circle","black","3","2","2","16.815217391304348","[9,17,17,17,17,17,17,16,17,16,17,17,17,17,17,17,17,17,17,17,17,17,17,17,17,17,17,16,17,17,17,17,17,17,17,16,17,17,17,17,17,17,17,16,17,17,17,17,17,17,17,17,17,17,17,17,17,17,17,16,17,17,17,17,17,17,17,17,17,16,17,17,17,17,17,17,17,16,17,17,17,17,17,17,17,16,17,17,17,17,17,17]","92","600","250","false","20","20","black","1","false","1","1","1200","660","response","f","yes","self",""
"","","","","","html-keyboard-response","206","1511726","0.0-5.0-0.0-0.0-3.0-1.0-0.0-1.0-0.25","null","fixation","null","<p style='font-size: 48px; color: white'>+</p >","","","","","","","","","","","","","","","","","","","","","","","","","","","","","","","","","","","","","","","","","","","","","","",""
"","","","","","rdk","207","1514265","0.0-5.0-0.0-0.0-3.0-1.0-0.0-1.0-1.25","1536","match_RDK","f","","true","[""f"",""j""]","[""f""]","3000","true","1","100","1","180","0.6","0","5","1","-1","3","500","500","hsl(225, 50%, 50%)","hsl(0, 50%, 50%)","white","3000","12","circle","black","3","2","2","16.793478260869566","[10,17,17,17,17,17,16,17,17,17,17,17,17,17,16,17,16,17,17,16,17,17,17,17,17,17,17,17,17,17,17,17,17,17,17,17,17,17,17,17,17,16,17,17,17,17,17,17,17,17,17,17,16,17,17,17,17,16,17,17,17,17,17,17,17,16,17,17,17,17,17,17,17,17,16,17,17,17,16,17,17,16,17,17,17,17,17,17,17,16,17,17]","92","600","250","false","20","20","black","1","false","1","1","1200","660","response","f","yes","other",""
"","","","","","html-keyboard-response","208","1515293","0.0-5.0-0.0-0.0-3.0-1.0-0.0-1.0-0.26","null","fixation","null","<p style='font-size: 48px; color: white'>+</p >","","","","","","","","","","","","","","","","","","","","","","","","","","","","","","","","","","","","","","","","","","","","","","",""
"","","","","","rdk","209","1517673","0.0-5.0-0.0-0.0-3.0-1.0-0.0-1.0-1.26","1362","match_RDK","j","","true","[""f"",""j""]","[""j""]","3000","true","1","100","1","180","0.6","0","5","1","-1","3","500","500","hsl(225, 50%, 50%)","hsl(0, 50%, 50%)","white","3000","12","circle","black","3","2","2","16.839506172839506","[11,17,16,17,17,17,17,17,17,17,17,17,17,17,16,17,17,17,17,17,17,17,17,17,17,17,17,17,17,18,17,17,17,17,17,17,17,17,17,17,17,17,17,16,17,17,17,17,17,17,16,17,16,17,17,17,16,17,17,17,17,17,17,17,17,17,17,17,16,16,17,17,17,17,17,17,16,18,17,17,17]","81","600","250","false","20","20","black","1","false","1","1","1200","660","response","j","no","self",""
"","","","","","html-keyboard-response","210","1518693","0.0-5.0-0.0-0.0-3.0-1.0-0.0-1.0-0.27","null","fixation","null","<p style='font-size: 48px; color: white'>+</p >","","","","","","","","","","","","","","","","","","","","","","","","","","","","","","","","","","","","","","","","","","","","","","",""
"","","","","","rdk","211","1521497","0.0-5.0-0.0-0.0-3.0-1.0-0.0-1.0-1.27","1802","match_RDK","j","","true","[""f"",""j""]","[""j""]","3000","true","1","100","1","0","0.6","0","5","1","-1","3","500","500","hsl(225, 50%, 50%)","hsl(0, 50%, 50%)","white","3000","12","circle","black","3","2","2","16.814814814814813","[10,17,17,17,17,16,17,17,17,17,17,17,16,17,17,17,17,17,17,16,17,17,17,17,17,16,17,17,17,17,17,17,17,17,17,17,17,17,17,16,17,17,17,17,17,17,17,17,17,17,17,17,17,17,16,17,17,16,17,16,16,17,16,17,17,17,16,17,17,17,16,17,17,17,17,17,17,17,17,17,17,17,17,17,17,17,17,17,17,17,17,17,17,17,17,17,17,17,17,17,17,16,17,17,17,17,17,17]","108","600","250","false","20","20","black","1","false","1","1","1200","660","response","j","no","other",""
"","","","","","html-keyboard-response","212","1522527","0.0-5.0-0.0-0.0-3.0-1.0-0.0-1.0-0.28","null","fixation","null","<p style='font-size: 48px; color: white'>+</p >","","","","","","","","","","","","","","","","","","","","","","","","","","","","","","","","","","","","","","","","","","","","","","",""
