"success","timeout","failed_images","failed_audio","failed_video","trial_type","trial_index","time_elapsed","internal_node_id","rt","part","response","stimulus","correct","choices","correct_choice","trial_duration","response_ends_trial","number_of_apertures","number_of_dots","number_of_sets","coherent_direction","coherence","opposite_coherence","dot_radius","dot_side_length","dot_life","move_distance","aperture_width","aperture_height","dot_color_beforeOne","dot_color_beforeTwo","dot_color_after","dot_color_delay","move_delay","dot_shape","background_color","RDK_type","aperture_type","reinsert_type","frame_rate","frame_rate_array","number_of_frames","aperture_center_x","aperture_center_y","fixation_cross","fixation_cross_width","fixation_cross_height","fixation_cross_color","fixation_cross_thickness","border","border_thickness","border_color","canvas_width","canvas_height","task","correct_responce","match","association","difficulty"
"true","false","[]","[]","[]","preload","0","7","0.0-0.0","","","","","","","","","","","","","","","","","","","","","","","","","","","","","","","","","","","","","","","","","","","","","","","","","","",""
"true","","","","","fullscreen","1","7719516","0.0-1.0","7717489","fullScreen","","","","","","","","","","","","","","","","","","","","","","","","","","","","","","","","","","","","","","","","","","","","","","","","",""
"","","","","","survey","2","7730990","0.0-2.0","10410","survey","{""sex"":""男"",""age"":27,""hands"":""右"",""color_blindness"":""都不是""}","","","","","","","","","","","","","","","","","","","","","","","","","","","","","","","","","","","","","","","","","","","","","","","",""
"","","","","","survey-text","3","7740712","0.0-3.0","8684","color_test","{""Q0"":""BE""}","","","","","","","","","","","","","","","","","","","","","","","","","","","","","","","","","","","","","","","","","","","","","","","",""
"","","","","","html-keyboard-response","4","7749995","0.0-4.0","8270","instruction_beginning"," ","
      <div style=""text-align: left; color: white"">
        <h3 style=""text-align: center; font-size: 30px; margin: 0;"">欢迎参与本实验</h3>
          <p>为充分保障您的权利，请确保您已经知晓并同意《参与实验同意书》以及《数据公开知情同意书》，</p>
          <p>如果您未见过上述内容，请咨询实验员 ，</p>
          <p>如果您选择继续实验，则表示您已经清楚两份知情同意书的内容并同意 。</p>
          <p>在整个实验中，您需要完成两项任务，具体的任务要求会在后面说明 ，</p>
          <p>请按空格键进入实验</p >
      </div>","","","","","","","","","","","","","","","","","","","","","","","","","","","","","","","","","","","","","","","","","","","","","","",""
"","","","","","html-keyboard-response","5","7791024","0.0-5.0-1.0-0.0-0.0","40026","instruction_match"," ","
        <div style=""text-align: left; color: white; padding: 10px""> 
          <h3 style=""text-align: center; font-size: 30px; margin: 10px"">任务一：匹配判断</h3>
          <p>接下来，屏幕上会呈现一些运动的圆点，其中一半为 <span style=""color: hsl(0, 50%, 50%)"">红色</span> ，一半为 <span style=""color: hsl(225, 50%, 50%)"">蓝色</span> 。</p>
          <p>同时散点图的下方会出现 ""自己"" 或 ""生人"" 的文字标签。</p >
          <p><span style=""font-weight: bold"">大约0.2秒后,</span>  一部分点会随机变为另一种颜色（例如从红色变为蓝色），变化后某种颜色的数量会超过另一种。</p >
          <p>如果整体颜色为 <span style=""color: hsl(0, 50%, 50%)"">红色</span> 代表 <span style=""color: hsl(0, 50%, 50%)"">你自己</span> ，整体颜色为 <span style=""color: hsl(225, 50%, 50%)"">蓝色</span> 代表 <span style=""color: hsl(225, 50%, 50%)"">生人（即陌生人）</span>。</p >
          <p>您需要在3秒内判断 <span style=""font-weight: bold"">散点图的整体颜色与文字是否匹配</span> 。</p >
          <ul>
            <li><span style=""color: hsl(135, 50%, 50%)"">匹配</span>，请按键盘 <span style=""color: hsl(135, 50%, 50%)"">""F"" 键</span>；</li>
            <li><span style=""color: red"">不匹配</span>，请按键盘 <span style=""color: red"">""J"" 键</span> </li>
          </ul>
          <p>按下空格键后将呈现示例</p>
        </div>","","","","","","","","","","","","","","","","","","","","","","","","","","","","","","","","","","","","","","","","","","","","","","",""
"","","","","","rdk","6","7801007","0.0-5.0-1.0-0.0-1.0","8962","example"," ","","true","["" ""]","["" ""]","300000","true","4","[80,20,80,20]","1","0","0","0","5","1","-1","3","400","400","hsla(0, 50%, 50%, 70%)","hsla(225, 50%, 50%, 70%)","[""hsla(0, 50%, 50%, 70%)"",""hsla(225, 50%, 50%, 70%)"",""hsla(225, 50%, 50%, 70%)"",""hsla(0, 50%, 50%, 70%)""]","10","10","circle","black","3","1","2","16.806691449814128","[3,10,16,17,17,17,17,16,17,17,17,17,17,17,17,17,16,17,17,17,17,17,18,15,16,17,17,17,16,17,17,17,16,17,17,17,16,17,17,17,17,17,16,17,17,16,17,17,17,17,16,17,16,17,16,17,17,17,17,17,16,17,16,16,17,16,17,17,17,17,17,17,17,17,16,17,17,17,17,17,16,17,18,15,17,17,17,16,17,17,17,17,16,17,17,16,17,16,17,17,16,17,17,17,17,17,17,17,17,17,16,17,17,16,17,17,16,17,17,17,17,17,16,17,17,17,17,17,17,17,17,17,17,17,17,17,16,16,16,17,17,17,17,17,17,17,17,17,17,17,17,16,17,17,17,17,17,17,17,17,17,17,17,17,17,17,17,17,16,17,17,17,17,17,17,17,17,17,17,17,17,17,17,17,17,17,17,17,17,17,17,17,17,17,17,17,17,17,17,17,17,17,17,17,17,17,17,17,17,17,16,17,16,17,17,17,17,17,17,17,17,17,17,17,17,17,17,17,16,17,17,16,17,17,17,17,17,17,17,17,17,17,17,17,17,17,17,16,17,17,17,17,16,17,17,17,17,17,17,17,17,17,17,16,17,17,17,17,17,17,17,17,17,17,17,17,17,17,17,17,17,17,17,17,17,17,17,17,17,17,17,17,17,16,17,17,17,17,17,17,17,17,17,17,16,17,17,17,17,17,17,17,16,17,17,16,17,17,17,17,16,17,16,17,17,17,17,17,16,17,17,16,17,17,17,17,17,17,16,17,17,17,17,17,17,17,17,16,17,17,16,17,17,17,17,17,17,17,17,17,17,17,17,17,17,16,17,16,17,17,17,16,17,16,17,16,17,17,17,17,17,17,16,17,17,16,17,17,17,17,16,17,17,16,17,17,17,17,17,18,16,17,17,17,17,16,17,16,17,17,17,17,17,17,16,17,16,17,17,18,17,17,17,17,16,17,17,17,17,17,17,17,17,17,17,17,17,17,17,16,16,17,18,16,17,17,16,17,17,17,17,17,17,17,17,17,17,16,17,17,16,17,17,17,17,17,16,17,17,17,17,16,16,17,17,17,17,17,17,17,17,18,16,17,17,17,16,17,17,17,17,17,17,16,17,16,17,17,17,17,17,17,17,16,17,16,17,16,17,17,17,17,17,16,17,17,17,17,17,17,17,16,17,17,17,17,17,17,17,17,17,16,17,17,17,17,16,17]","538","[300,300,900,900]","[280,280,280,280]","false","20","20","black","1","false","1","1","1200","660","","","","",""
"","","","","","html-keyboard-response","7","7810416","0.0-5.0-1.0-0.0-2.0-0.0-0.0-0.0","8899","instruction_match_practice"," ","
        <div style=""text-align: left; color: white; padding: 10px"">  
          <h3 style=""text-align: center; font-size: 30px; margin: 10px;"">练习阶段</h3>
          <p>整体颜色为 <span style=""color: hsl(0, 50%, 50%)"">红色</span> 代表 <span style=""color: hsl(0, 50%, 50%)"">你自己</span> ，为 <span style=""color: hsl(225, 50%, 50%)"">蓝色</span> 代表 <span style=""color: hsl(225, 50%, 50%)"">生人（即陌生人）</span>。</p >
          <p>您需要在3秒内判断 <span style=""font-weight: bold"">散点图的整体颜色与文字是否匹配</span>，<span style=""color: hsl(135, 50%, 50%);"">匹配</span> 按 <span style=""color: hsl(135, 50%, 50%);"">""F"" 键</span>；<span style=""color: red;"">不匹配</span> 按 <span style=""color: red;"">""J"" 键</span> </p >
          <p>正确率达到 70% 及以上才能进入下一个阶段</p >
          <p>请把左手食指放在 ""F"" 键上，右手食指放在 ""J"" 键上</p >
          <p>请按下空格键开始练习</p >
        </div>","","","","","","","","","","","","","","","","","","","","","","","","","","","","","","","","","","","","","","","","","","","","","","",""
"","","","","","html-keyboard-response","8","7811931","0.0-5.0-1.0-0.0-2.0-0.0-0.0-1.0-0.0","null","fixation","null","<p style='font-size: 48px; color: white'>+</p >","","","","","","","","","","","","","","","","","","","","","","","","","","","","","","","","","","","","","","","","","","","","","","",""
"","","","","","rdk","9","7814144","0.0-5.0-1.0-0.0-2.0-0.0-0.0-1.0-1.0","1194","match_RDK","j","","true","[""f"",""j""]","[""j""]","3000","true","2","[20,80]","1","0","0","0","5","1","-1","3","500","500","hsla(225, 50%, 50%, 70%)","hsla(0, 50%, 50%, 70%)","[""hsla(0, 50%, 50%, 70%)"",""hsla(225, 50%, 50%, 70%)""]","10","11","circle","black","3","2","2","16.746478873239436","[9,17,17,17,17,17,17,16,17,17,17,17,17,17,17,17,17,17,17,17,16,17,17,17,17,17,16,17,16,17,17,17,17,17,17,17,17,17,17,16,17,17,17,16,17,17,17,17,17,17,17,17,17,17,17,16,17,17,16,16,17,17,17,17,16,17,17,17,17,17,17]","71","600","250","false","20","20","black","1","false","1","1","1200","660","response","j","no","self",""
"","","","","","html-keyboard-response","10","7815163","0.0-5.0-1.0-0.0-2.0-0.0-0.0-1.0-2.0","null","","null","<p style='font-size: 60px; color: green'>正确!</p>","","","","","","","","","","","","","","","","","","","","","","","","","","","","","","","","","","","","","","","","","","","","","","",""
"","","","","","html-keyboard-response","11","7816680","0.0-5.0-1.0-0.0-2.0-0.0-0.0-1.0-0.1","null","fixation","null","<p style='font-size: 48px; color: white'>+</p >","","","","","","","","","","","","","","","","","","","","","","","","","","","","","","","","","","","","","","","","","","","","","","",""
"","","","","","rdk","12","7819200","0.0-5.0-1.0-0.0-2.0-0.0-0.0-1.0-1.1","1502","match_RDK","j","","true","[""f"",""j""]","[""j""]","3000","true","2","[80,20]","1","0","0","0","5","1","-1","3","500","500","hsla(225, 50%, 50%, 70%)","hsla(0, 50%, 50%, 70%)","[""hsla(0, 50%, 50%, 70%)"",""hsla(225, 50%, 50%, 70%)""]","10","11","circle","black","3","2","2","16.877777777777776","[13,17,18,16,17,17,17,17,17,17,16,17,16,17,17,17,17,17,17,17,17,17,17,16,17,17,17,17,17,17,17,17,17,17,17,17,17,17,17,17,17,17,17,17,17,17,17,17,17,17,17,17,17,17,17,17,17,17,17,17,17,17,17,17,17,17,17,16,17,17,17,17,17,16,17,17,17,17,17,17,17,17,17,17,17,16,17,17,17,16]","90","600","250","false","20","20","black","1","false","1","1","1200","660","response","j","no","other",""
"","","","","","html-keyboard-response","13","7820215","0.0-5.0-1.0-0.0-2.0-0.0-0.0-1.0-2.1","null","","null","<p style='font-size: 60px; color: green'>正确!</p>","","","","","","","","","","","","","","","","","","","","","","","","","","","","","","","","","","","","","","","","","","","","","","",""
"","","","","","html-keyboard-response","14","7821730","0.0-5.0-1.0-0.0-2.0-0.0-0.0-1.0-0.2","null","fixation","null","<p style='font-size: 48px; color: white'>+</p >","","","","","","","","","","","","","","","","","","","","","","","","","","","","","","","","","","","","","","","","","","","","","","",""
"","","","","","rdk","15","7823632","0.0-5.0-1.0-0.0-2.0-0.0-0.0-1.0-1.2","899","match_RDK","f","","true","[""f"",""j""]","[""f""]","3000","true","2","[80,20]","1","0","0","0","5","1","-1","3","500","500","hsla(225, 50%, 50%, 70%)","hsla(0, 50%, 50%, 70%)","[""hsla(0, 50%, 50%, 70%)"",""hsla(225, 50%, 50%, 70%)""]","10","11","circle","black","3","2","2","16.74074074074074","[11,17,17,17,17,17,17,17,17,17,17,17,16,17,16,17,17,17,17,17,16,16,17,17,17,17,17,17,17,17,17,17,16,17,17,17,17,17,17,16,17,17,17,17,17,17,16,17,17,16,17,17,17,17]","54","600","250","false","20","20","black","1","false","1","1","1200","660","response","f","yes","self",""
"","","","","","html-keyboard-response","16","7824663","0.0-5.0-1.0-0.0-2.0-0.0-0.0-1.0-2.2","null","","null","<p style='font-size: 60px; color: green'>正确!</p>","","","","","","","","","","","","","","","","","","","","","","","","","","","","","","","","","","","","","","","","","","","","","","",""
"","","","","","html-keyboard-response","17","7826196","0.0-5.0-1.0-0.0-2.0-0.0-0.0-1.0-0.3","null","fixation","null","<p style='font-size: 48px; color: white'>+</p >","","","","","","","","","","","","","","","","","","","","","","","","","","","","","","","","","","","","","","","","","","","","","","",""
"","","","","","rdk","18","7828639","0.0-5.0-1.0-0.0-2.0-0.0-0.0-1.0-1.3","1425","match_RDK","j","","false","[""f"",""j""]","[""f""]","3000","true","2","[80,20]","1","0","0","0","5","1","-1","3","500","500","hsla(225, 50%, 50%, 70%)","hsla(0, 50%, 50%, 70%)","[""hsla(225, 50%, 50%, 70%)"",""hsla(0, 50%, 50%, 70%)""]","10","11","circle","black","3","2","2","16.870588235294118","[12,17,17,17,17,17,16,17,17,17,17,17,17,16,17,16,17,17,17,17,17,16,17,17,16,17,17,17,17,16,17,17,17,17,17,17,17,17,17,17,17,17,17,17,17,17,17,17,17,17,17,17,17,17,17,17,17,17,17,17,17,17,17,17,17,17,17,17,17,17,17,17,17,17,17,17,17,17,17,17,17,17,17,17,17]","85","600","250","false","20","20","black","1","false","1","1","1200","660","response","f","yes","other",""
"","","","","","html-keyboard-response","19","7829663","0.0-5.0-1.0-0.0-2.0-0.0-0.0-1.0-2.3","null","","null","<p style='font-size: 60px; color: red'>错误!</p>","","","","","","","","","","","","","","","","","","","","","","","","","","","","","","","","","","","","","","","","","","","","","","",""
"","","","","","html-keyboard-response","20","7831179","0.0-5.0-1.0-0.0-2.0-0.0-0.0-1.0-0.4","null","fixation","null","<p style='font-size: 48px; color: white'>+</p >","","","","","","","","","","","","","","","","","","","","","","","","","","","","","","","","","","","","","","","","","","","","","","",""
"","","","","","rdk","21","7833871","0.0-5.0-1.0-0.0-2.0-0.0-0.0-1.0-1.4","1689","match_RDK","j","","true","[""f"",""j""]","[""j""]","3000","true","2","[20,80]","1","0","0","0","5","1","-1","3","500","500","hsla(225, 50%, 50%, 70%)","hsla(0, 50%, 50%, 70%)","[""hsla(0, 50%, 50%, 70%)"",""hsla(225, 50%, 50%, 70%)""]","10","11","circle","black","3","2","2","16.782178217821784","[10,17,17,17,17,17,17,17,17,17,17,17,17,16,17,17,17,17,16,16,17,17,17,17,17,17,17,16,17,17,17,17,16,17,16,17,16,17,17,17,17,17,17,17,17,16,17,17,17,17,17,17,17,16,16,17,17,17,17,17,17,17,17,17,17,16,16,16,17,17,17,17,17,17,17,17,17,17,16,17,17,17,17,17,17,17,17,17,17,17,17,17,17,17,17,17,16,17,17,17,17]","101","600","250","false","20","20","black","1","false","1","1","1200","660","response","j","no","self",""
"","","","","","html-keyboard-response","22","7834881","0.0-5.0-1.0-0.0-2.0-0.0-0.0-1.0-2.4","null","","null","<p style='font-size: 60px; color: green'>正确!</p>","","","","","","","","","","","","","","","","","","","","","","","","","","","","","","","","","","","","","","","","","","","","","","",""
"","","","","","html-keyboard-response","23","7836397","0.0-5.0-1.0-0.0-2.0-0.0-0.0-1.0-0.5","null","fixation","null","<p style='font-size: 48px; color: white'>+</p >","","","","","","","","","","","","","","","","","","","","","","","","","","","","","","","","","","","","","","","","","","","","","","",""
"","","","","","rdk","24","7838367","0.0-5.0-1.0-0.0-2.0-0.0-0.0-1.0-1.5","952","match_RDK","f","","true","[""f"",""j""]","[""f""]","3000","true","2","[80,20]","1","0","0","0","5","1","-1","3","500","500","hsla(225, 50%, 50%, 70%)","hsla(0, 50%, 50%, 70%)","[""hsla(0, 50%, 50%, 70%)"",""hsla(225, 50%, 50%, 70%)""]","10","11","circle","black","3","2","2","16.75438596491228","[10,17,17,17,17,17,17,17,17,15,17,17,17,17,17,17,17,17,17,15,17,17,17,17,17,17,17,17,17,17,17,17,17,17,17,17,16,17,17,17,17,17,17,17,17,17,17,16,17,17,17,17,17,16,17,17,17]","57","600","250","false","20","20","black","1","false","1","1","1200","660","response","f","yes","self",""
"","","","","","html-keyboard-response","25","7839396","0.0-5.0-1.0-0.0-2.0-0.0-0.0-1.0-2.5","null","","null","<p style='font-size: 60px; color: green'>正确!</p>","","","","","","","","","","","","","","","","","","","","","","","","","","","","","","","","","","","","","","","","","","","","","","",""
"","","","","","html-keyboard-response","26","7840914","0.0-5.0-1.0-0.0-2.0-0.0-0.0-1.0-0.6","null","fixation","null","<p style='font-size: 48px; color: white'>+</p >","","","","","","","","","","","","","","","","","","","","","","","","","","","","","","","","","","","","","","","","","","","","","","",""
"","","","","","rdk","27","7842768","0.0-5.0-1.0-0.0-2.0-0.0-0.0-1.0-1.6","852","match_RDK","j","","true","[""f"",""j""]","[""j""]","3000","true","2","[80,20]","1","0","0","0","5","1","-1","3","500","500","hsla(225, 50%, 50%, 70%)","hsla(0, 50%, 50%, 70%)","[""hsla(0, 50%, 50%, 70%)"",""hsla(225, 50%, 50%, 70%)""]","10","11","circle","black","3","2","2","16.666666666666668","[11,16,17,17,17,17,17,17,17,17,16,17,17,17,17,16,17,17,17,16,17,16,17,16,17,16,17,17,17,17,16,17,16,17,17,16,17,17,17,17,17,17,17,16,17,17,17,17,17,17,17]","51","600","250","false","20","20","black","1","false","1","1","1200","660","response","j","no","other",""
"","","","","","html-keyboard-response","28","7843796","0.0-5.0-1.0-0.0-2.0-0.0-0.0-1.0-2.6","null","","null","<p style='font-size: 60px; color: green'>正确!</p>","","","","","","","","","","","","","","","","","","","","","","","","","","","","","","","","","","","","","","","","","","","","","","",""
"","","","","","html-keyboard-response","29","7845315","0.0-5.0-1.0-0.0-2.0-0.0-0.0-1.0-0.7","null","fixation","null","<p style='font-size: 48px; color: white'>+</p >","","","","","","","","","","","","","","","","","","","","","","","","","","","","","","","","","","","","","","","","","","","","","","",""
"","","","","","rdk","30","7847615","0.0-5.0-1.0-0.0-2.0-0.0-0.0-1.0-1.7","1284","match_RDK","f","","true","[""f"",""j""]","[""f""]","3000","true","2","[80,20]","1","0","0","0","5","1","-1","3","500","500","hsla(225, 50%, 50%, 70%)","hsla(0, 50%, 50%, 70%)","[""hsla(225, 50%, 50%, 70%)"",""hsla(0, 50%, 50%, 70%)""]","10","11","circle","black","3","2","2","16.818181818181817","[11,17,17,17,17,17,17,17,17,17,17,17,17,17,17,17,17,17,17,17,17,17,17,17,17,17,17,17,17,16,17,17,16,17,16,17,17,17,17,17,17,17,17,17,17,17,17,17,17,17,17,17,17,17,17,17,17,17,17,17,17,16,17,17,16,17,17,17,17,16,17,16,17,16,17,17,17]","77","600","250","false","20","20","black","1","false","1","1","1200","660","response","f","yes","other",""
"","","","","","html-keyboard-response","31","7848646","0.0-5.0-1.0-0.0-2.0-0.0-0.0-1.0-2.7","null","","null","<p style='font-size: 60px; color: green'>正确!</p>","","","","","","","","","","","","","","","","","","","","","","","","","","","","","","","","","","","","","","","","","","","","","","",""
"","","","","","html-keyboard-response","32","7850163","0.0-5.0-1.0-0.0-2.0-0.0-0.0-1.0-0.8","null","fixation","null","<p style='font-size: 48px; color: white'>+</p >","","","","","","","","","","","","","","","","","","","","","","","","","","","","","","","","","","","","","","","","","","","","","","",""
"","","","","","rdk","33","7852666","0.0-5.0-1.0-0.0-2.0-0.0-0.0-1.0-1.8","1474","match_RDK","f","","true","[""f"",""j""]","[""f""]","3000","true","2","[80,20]","1","0","0","0","5","1","-1","3","500","500","hsla(225, 50%, 50%, 70%)","hsla(0, 50%, 50%, 70%)","[""hsla(225, 50%, 50%, 70%)"",""hsla(0, 50%, 50%, 70%)""]","10","11","circle","black","3","2","2","16.897727272727273","[11,17,17,17,17,17,17,17,17,17,17,17,17,17,17,17,17,17,17,17,17,17,17,17,17,17,17,17,17,17,17,17,17,17,17,17,17,17,17,17,17,16,17,17,17,17,17,17,16,17,17,17,17,17,17,17,17,17,17,17,17,17,17,17,17,16,17,17,17,17,17,17,17,17,17,17,17,17,17,17,17,17,17,17,17,17,17,17]","88","600","250","false","20","20","black","1","false","1","1","1200","660","response","f","yes","other",""
"","","","","","html-keyboard-response","34","7853690","0.0-5.0-1.0-0.0-2.0-0.0-0.0-1.0-2.8","null","","null","<p style='font-size: 60px; color: green'>正确!</p>","","","","","","","","","","","","","","","","","","","","","","","","","","","","","","","","","","","","","","","","","","","","","","",""
"","","","","","html-keyboard-response","35","7855207","0.0-5.0-1.0-0.0-2.0-0.0-0.0-1.0-0.9","null","fixation","null","<p style='font-size: 48px; color: white'>+</p >","","","","","","","","","","","","","","","","","","","","","","","","","","","","","","","","","","","","","","","","","","","","","","",""
"","","","","","rdk","36","7857178","0.0-5.0-1.0-0.0-2.0-0.0-0.0-1.0-1.9","960","match_RDK","f","","true","[""f"",""j""]","[""f""]","3000","true","2","[80,20]","1","0","0","0","5","1","-1","3","500","500","hsla(225, 50%, 50%, 70%)","hsla(0, 50%, 50%, 70%)","[""hsla(0, 50%, 50%, 70%)"",""hsla(225, 50%, 50%, 70%)""]","10","11","circle","black","3","2","2","16.637931034482758","[7,11,16,17,17,17,17,17,17,17,17,17,16,17,17,17,17,17,17,17,17,17,17,17,17,17,17,17,17,17,17,17,17,17,17,17,16,16,17,17,17,17,16,17,17,17,18,16,17,17,17,17,17,17,17,17,17,17]","58","600","250","false","20","20","black","1","false","1","1","1200","660","response","f","yes","self",""
"","","","","","html-keyboard-response","37","7858206","0.0-5.0-1.0-0.0-2.0-0.0-0.0-1.0-2.9","null","","null","<p style='font-size: 60px; color: green'>正确!</p>","","","","","","","","","","","","","","","","","","","","","","","","","","","","","","","","","","","","","","","","","","","","","","",""
"","","","","","html-keyboard-response","38","7859724","0.0-5.0-1.0-0.0-2.0-0.0-0.0-1.0-0.10","null","fixation","null","<p style='font-size: 48px; color: white'>+</p >","","","","","","","","","","","","","","","","","","","","","","","","","","","","","","","","","","","","","","","","","","","","","","",""
"","","","","","rdk","39","7861850","0.0-5.0-1.0-0.0-2.0-0.0-0.0-1.0-1.10","1120","match_RDK","j","","true","[""f"",""j""]","[""j""]","3000","true","2","[80,20]","1","0","0","0","5","1","-1","3","500","500","hsla(225, 50%, 50%, 70%)","hsla(0, 50%, 50%, 70%)","[""hsla(0, 50%, 50%, 70%)"",""hsla(225, 50%, 50%, 70%)""]","10","11","circle","black","3","2","2","16.671641791044777","[7,17,17,17,17,17,17,17,16,17,16,17,17,16,16,17,16,17,17,17,17,17,17,17,17,17,17,17,16,17,17,17,17,17,17,17,16,17,17,17,16,17,17,17,16,17,16,17,16,17,17,17,17,17,17,17,17,17,16,17,17,17,17,17,17,17,17]","67","600","250","false","20","20","black","1","false","1","1","1200","660","response","j","no","other",""
"","","","","","html-keyboard-response","40","7862873","0.0-5.0-1.0-0.0-2.0-0.0-0.0-1.0-2.10","null","","null","<p style='font-size: 60px; color: green'>正确!</p>","","","","","","","","","","","","","","","","","","","","","","","","","","","","","","","","","","","","","","","","","","","","","","",""
"","","","","","html-keyboard-response","41","7864375","0.0-5.0-1.0-0.0-2.0-0.0-0.0-1.0-0.11","null","fixation","null","<p style='font-size: 48px; color: white'>+</p >","","","","","","","","","","","","","","","","","","","","","","","","","","","","","","","","","","","","","","","","","","","","","","",""
"","","","","","rdk","42","7866602","0.0-5.0-1.0-0.0-2.0-0.0-0.0-1.0-1.11","1210","match_RDK","j","","true","[""f"",""j""]","[""j""]","3000","true","2","[20,80]","1","0","0","0","5","1","-1","3","500","500","hsla(225, 50%, 50%, 70%)","hsla(0, 50%, 50%, 70%)","[""hsla(0, 50%, 50%, 70%)"",""hsla(225, 50%, 50%, 70%)""]","10","11","circle","black","3","2","2","16.819444444444443","[11,17,17,17,17,17,16,17,17,17,17,17,17,17,17,17,17,17,17,17,17,17,17,16,17,17,17,17,17,17,17,17,17,16,17,17,17,17,17,17,17,17,17,17,17,17,17,17,17,17,17,17,17,17,16,17,17,17,17,17,17,17,16,17,17,16,17,17,17,17,16,17]","72","600","250","false","20","20","black","1","false","1","1","1200","660","response","j","no","self",""
"","","","","","html-keyboard-response","43","7867623","0.0-5.0-1.0-0.0-2.0-0.0-0.0-1.0-2.11","null","","null","<p style='font-size: 60px; color: green'>正确!</p>","","","","","","","","","","","","","","","","","","","","","","","","","","","","","","","","","","","","","","","","","","","","","","",""
"","","","","","html-keyboard-response","44","7869142","0.0-5.0-1.0-0.0-2.0-0.0-0.0-1.0-0.12","null","fixation","null","<p style='font-size: 48px; color: white'>+</p >","","","","","","","","","","","","","","","","","","","","","","","","","","","","","","","","","","","","","","","","","","","","","","",""
"","","","","","rdk","45","7871129","0.0-5.0-1.0-0.0-2.0-0.0-0.0-1.0-1.12","972","match_RDK","j","","true","[""f"",""j""]","[""j""]","3000","true","2","[80,20]","1","0","0","0","5","1","-1","3","500","500","hsla(225, 50%, 50%, 70%)","hsla(0, 50%, 50%, 70%)","[""hsla(0, 50%, 50%, 70%)"",""hsla(225, 50%, 50%, 70%)""]","10","11","circle","black","3","2","2","16.844827586206897","[11,17,17,17,17,17,16,17,17,17,17,17,17,17,16,17,17,17,17,17,17,17,17,17,17,17,17,17,17,17,17,17,17,17,17,17,17,17,17,17,17,17,16,17,17,17,17,17,17,17,17,17,17,17,17,17,17,17]","58","600","250","false","20","20","black","1","false","1","1","1200","660","response","j","no","other",""
"","","","","","html-keyboard-response","46","7872156","0.0-5.0-1.0-0.0-2.0-0.0-0.0-1.0-2.12","null","","null","<p style='font-size: 60px; color: green'>正确!</p>","","","","","","","","","","","","","","","","","","","","","","","","","","","","","","","","","","","","","","","","","","","","","","",""
"","","","","","html-keyboard-response","47","7873657","0.0-5.0-1.0-0.0-2.0-0.0-0.0-1.0-0.13","null","fixation","null","<p style='font-size: 48px; color: white'>+</p >","","","","","","","","","","","","","","","","","","","","","","","","","","","","","","","","","","","","","","","","","","","","","","",""
"","","","","","rdk","48","7875739","0.0-5.0-1.0-0.0-2.0-0.0-0.0-1.0-1.13","1065","match_RDK","j","","true","[""f"",""j""]","[""j""]","3000","true","2","[20,80]","1","0","0","0","5","1","-1","3","500","500","hsla(225, 50%, 50%, 70%)","hsla(0, 50%, 50%, 70%)","[""hsla(0, 50%, 50%, 70%)"",""hsla(225, 50%, 50%, 70%)""]","10","11","circle","black","3","2","2","16.765625","[12,17,17,17,17,17,17,17,17,17,17,17,16,17,17,17,17,17,17,17,17,16,17,17,17,17,17,17,17,17,16,17,17,17,16,17,17,17,17,16,17,17,16,17,17,17,17,16,17,17,17,16,17,17,16,17,17,16,17,17,17,17,17,17]","64","600","250","false","20","20","black","1","false","1","1","1200","660","response","j","no","self",""
"","","","","","html-keyboard-response","49","7876756","0.0-5.0-1.0-0.0-2.0-0.0-0.0-1.0-2.13","null","","null","<p style='font-size: 60px; color: green'>正确!</p>","","","","","","","","","","","","","","","","","","","","","","","","","","","","","","","","","","","","","","","","","","","","","","",""
"","","","","","html-keyboard-response","50","7878274","0.0-5.0-1.0-0.0-2.0-0.0-0.0-1.0-0.14","null","fixation","null","<p style='font-size: 48px; color: white'>+</p >","","","","","","","","","","","","","","","","","","","","","","","","","","","","","","","","","","","","","","","","","","","","","","",""
"","","","","","rdk","51","7880106","0.0-5.0-1.0-0.0-2.0-0.0-0.0-1.0-1.14","830","match_RDK","f","","true","[""f"",""j""]","[""f""]","3000","true","2","[80,20]","1","0","0","0","5","1","-1","3","500","500","hsla(225, 50%, 50%, 70%)","hsla(0, 50%, 50%, 70%)","[""hsla(225, 50%, 50%, 70%)"",""hsla(0, 50%, 50%, 70%)""]","10","11","circle","black","3","2","2","16.86","[10,17,17,17,17,17,17,17,17,17,17,17,17,17,17,17,17,17,17,17,17,17,17,17,17,17,17,17,17,17,17,17,17,17,17,17,17,17,17,17,17,17,17,17,17,17,17,17,17,17]","50","600","250","false","20","20","black","1","false","1","1","1200","660","response","f","yes","other",""
"","","","","","html-keyboard-response","52","7881123","0.0-5.0-1.0-0.0-2.0-0.0-0.0-1.0-2.14","null","","null","<p style='font-size: 60px; color: green'>正确!</p>","","","","","","","","","","","","","","","","","","","","","","","","","","","","","","","","","","","","","","","","","","","","","","",""
"","","","","","html-keyboard-response","53","7882628","0.0-5.0-1.0-0.0-2.0-0.0-0.0-1.0-0.15","null","fixation","null","<p style='font-size: 48px; color: white'>+</p >","","","","","","","","","","","","","","","","","","","","","","","","","","","","","","","","","","","","","","","","","","","","","","",""
"","","","","","rdk","54","7884618","0.0-5.0-1.0-0.0-2.0-0.0-0.0-1.0-1.15","976","match_RDK","f","","true","[""f"",""j""]","[""f""]","3000","true","2","[80,20]","1","0","0","0","5","1","-1","3","500","500","hsla(225, 50%, 50%, 70%)","hsla(0, 50%, 50%, 70%)","[""hsla(0, 50%, 50%, 70%)"",""hsla(225, 50%, 50%, 70%)""]","10","11","circle","black","3","2","2","16.74137931034483","[11,17,17,17,17,17,17,16,17,17,17,16,17,17,16,17,17,16,17,17,17,17,17,17,17,17,17,17,17,17,17,17,17,17,17,16,17,16,17,17,17,17,17,17,17,17,17,16,17,17,17,16,17,16,17,17,17,17]","58","600","250","false","20","20","black","1","false","1","1","1200","660","response","f","yes","self",""
"","","","","","html-keyboard-response","55","7885625","0.0-5.0-1.0-0.0-2.0-0.0-0.0-1.0-2.15","null","","null","<p style='font-size: 60px; color: green'>正确!</p>","","","","","","","","","","","","","","","","","","","","","","","","","","","","","","","","","","","","","","","","","","","","","","",""
"","","","","","html-keyboard-response","56","7887141","0.0-5.0-1.0-0.0-2.0-0.0-0.0-1.0-0.16","null","fixation","null","<p style='font-size: 48px; color: white'>+</p >","","","","","","","","","","","","","","","","","","","","","","","","","","","","","","","","","","","","","","","","","","","","","","",""
"","","","","","rdk","57","7889178","0.0-5.0-1.0-0.0-2.0-0.0-0.0-1.0-1.16","1036","match_RDK","f","","true","[""f"",""j""]","[""f""]","3000","true","2","[80,20]","1","0","0","0","5","1","-1","3","500","500","hsla(225, 50%, 50%, 70%)","hsla(0, 50%, 50%, 70%)","[""hsla(0, 50%, 50%, 70%)"",""hsla(225, 50%, 50%, 70%)""]","10","11","circle","black","3","2","2","16.79032258064516","[12,18,17,17,16,17,17,17,17,16,16,17,17,17,17,17,17,17,17,17,17,17,17,17,16,17,16,17,17,17,17,17,17,17,16,17,17,17,17,17,17,17,17,17,17,17,17,17,17,17,17,17,16,17,17,17,17,17,16,17,16,17]","62","600","250","false","20","20","black","1","false","1","1","1200","660","response","f","yes","self",""
"","","","","","html-keyboard-response","58","7890206","0.0-5.0-1.0-0.0-2.0-0.0-0.0-1.0-2.16","null","","null","<p style='font-size: 60px; color: green'>正确!</p>","","","","","","","","","","","","","","","","","","","","","","","","","","","","","","","","","","","","","","","","","","","","","","",""
"","","","","","html-keyboard-response","59","7891722","0.0-5.0-1.0-0.0-2.0-0.0-0.0-1.0-0.17","null","fixation","null","<p style='font-size: 48px; color: white'>+</p >","","","","","","","","","","","","","","","","","","","","","","","","","","","","","","","","","","","","","","","","","","","","","","",""
"","","","","","rdk","60","7893755","0.0-5.0-1.0-0.0-2.0-0.0-0.0-1.0-1.17","1029","match_RDK","j","","true","[""f"",""j""]","[""j""]","3000","true","2","[80,20]","1","0","0","0","5","1","-1","3","500","500","hsla(225, 50%, 50%, 70%)","hsla(0, 50%, 50%, 70%)","[""hsla(0, 50%, 50%, 70%)"",""hsla(225, 50%, 50%, 70%)""]","10","11","circle","black","3","2","2","16.770491803278688","[10,18,16,17,16,17,17,17,16,17,17,17,17,17,17,17,17,17,17,17,17,16,17,17,17,17,17,17,17,17,17,17,17,16,17,17,17,17,17,17,17,17,17,17,17,17,17,17,17,17,17,17,17,16,17,17,16,17,17,17,16]","61","600","250","false","20","20","black","1","false","1","1","1200","660","response","j","no","other",""
"","","","","","html-keyboard-response","61","7894773","0.0-5.0-1.0-0.0-2.0-0.0-0.0-1.0-2.17","null","","null","<p style='font-size: 60px; color: green'>正确!</p>","","","","","","","","","","","","","","","","","","","","","","","","","","","","","","","","","","","","","","","","","","","","","","",""
"","","","","","html-keyboard-response","62","7896290","0.0-5.0-1.0-0.0-2.0-0.0-0.0-1.0-0.18","null","fixation","null","<p style='font-size: 48px; color: white'>+</p >","","","","","","","","","","","","","","","","","","","","","","","","","","","","","","","","","","","","","","","","","","","","","","",""
"","","","","","rdk","63","7898298","0.0-5.0-1.0-0.0-2.0-0.0-0.0-1.0-1.18","1005","match_RDK","f","","true","[""f"",""j""]","[""f""]","3000","true","2","[80,20]","1","0","0","0","5","1","-1","3","500","500","hsla(225, 50%, 50%, 70%)","hsla(0, 50%, 50%, 70%)","[""hsla(225, 50%, 50%, 70%)"",""hsla(0, 50%, 50%, 70%)""]","10","11","circle","black","3","2","2","16.8","[10,17,17,17,17,17,17,17,17,17,17,17,17,17,17,17,17,17,17,17,17,17,16,17,17,17,17,17,17,17,16,17,17,17,17,17,16,17,16,17,17,17,17,17,17,17,17,17,17,17,17,17,16,17,17,17,17,17,17,17]","60","600","250","false","20","20","black","1","false","1","1","1200","660","response","f","yes","other",""
"","","","","","html-keyboard-response","64","7899308","0.0-5.0-1.0-0.0-2.0-0.0-0.0-1.0-2.18","null","","null","<p style='font-size: 60px; color: green'>正确!</p>","","","","","","","","","","","","","","","","","","","","","","","","","","","","","","","","","","","","","","","","","","","","","","",""
"","","","","","html-keyboard-response","65","7900825","0.0-5.0-1.0-0.0-2.0-0.0-0.0-1.0-0.19","null","fixation","null","<p style='font-size: 48px; color: white'>+</p >","","","","","","","","","","","","","","","","","","","","","","","","","","","","","","","","","","","","","","","","","","","","","","",""
"","","","","","rdk","66","7902762","0.0-5.0-1.0-0.0-2.0-0.0-0.0-1.0-1.19","920","match_RDK","j","","true","[""f"",""j""]","[""j""]","3000","true","2","[20,80]","1","0","0","0","5","1","-1","3","500","500","hsla(225, 50%, 50%, 70%)","hsla(0, 50%, 50%, 70%)","[""hsla(0, 50%, 50%, 70%)"",""hsla(225, 50%, 50%, 70%)""]","10","11","circle","black","3","2","2","16.78181818181818","[11,16,17,17,17,17,17,17,17,17,17,17,17,17,17,17,16,17,17,17,17,17,17,17,17,17,17,17,17,17,16,17,17,17,17,16,17,17,17,16,17,17,17,17,17,17,17,17,17,17,17,17,17,17,16]","55","600","250","false","20","20","black","1","false","1","1","1200","660","response","j","no","self",""
"","","","","","html-keyboard-response","67","7903790","0.0-5.0-1.0-0.0-2.0-0.0-0.0-1.0-2.19","null","","null","<p style='font-size: 60px; color: green'>正确!</p>","","","","","","","","","","","","","","","","","","","","","","","","","","","","","","","","","","","","","","","","","","","","","","",""
"","","","","","html-keyboard-response","68","7905307","0.0-5.0-1.0-0.0-2.0-0.0-0.0-1.0-0.20","null","fixation","null","<p style='font-size: 48px; color: white'>+</p >","","","","","","","","","","","","","","","","","","","","","","","","","","","","","","","","","","","","","","","","","","","","","","",""
"","","","","","rdk","69","7907130","0.0-5.0-1.0-0.0-2.0-0.0-0.0-1.0-1.20","821","match_RDK","f","","true","[""f"",""j""]","[""f""]","3000","true","2","[80,20]","1","0","0","0","5","1","-1","3","500","500","hsla(225, 50%, 50%, 70%)","hsla(0, 50%, 50%, 70%)","[""hsla(0, 50%, 50%, 70%)"",""hsla(225, 50%, 50%, 70%)""]","10","11","circle","black","3","2","2","16.816326530612244","[12,16,17,17,17,17,17,17,16,17,17,16,17,17,17,17,17,17,17,17,17,17,17,17,17,17,17,17,17,17,17,16,17,17,17,17,17,17,17,17,17,17,17,17,17,17,17,17,17]","49","600","250","false","20","20","black","1","false","1","1","1200","660","response","f","yes","self",""
"","","","","","html-keyboard-response","70","7908142","0.0-5.0-1.0-0.0-2.0-0.0-0.0-1.0-2.20","null","","null","<p style='font-size: 60px; color: green'>正确!</p>","","","","","","","","","","","","","","","","","","","","","","","","","","","","","","","","","","","","","","","","","","","","","","",""
"","","","","","html-keyboard-response","71","7909659","0.0-5.0-1.0-0.0-2.0-0.0-0.0-1.0-0.21","null","fixation","null","<p style='font-size: 48px; color: white'>+</p >","","","","","","","","","","","","","","","","","","","","","","","","","","","","","","","","","","","","","","","","","","","","","","",""
"","","","","","rdk","72","7911914","0.0-5.0-1.0-0.0-2.0-0.0-0.0-1.0-1.21","1239","match_RDK","f","","true","[""f"",""j""]","[""f""]","3000","true","2","[80,20]","1","0","0","0","5","1","-1","3","500","500","hsla(225, 50%, 50%, 70%)","hsla(0, 50%, 50%, 70%)","[""hsla(225, 50%, 50%, 70%)"",""hsla(0, 50%, 50%, 70%)""]","10","11","circle","black","3","2","2","16.81081081081081","[11,17,17,17,17,17,17,16,17,16,17,17,17,17,16,17,17,17,16,17,17,17,17,16,17,17,17,17,17,17,17,17,17,17,17,17,17,17,17,17,17,17,17,17,17,17,17,17,17,17,17,17,17,17,17,17,17,17,17,17,16,17,17,17,16,17,17,17,16,17,17,17,17,17]","74","600","250","false","20","20","black","1","false","1","1","1200","660","response","f","yes","other",""
"","","","","","html-keyboard-response","73","7912940","0.0-5.0-1.0-0.0-2.0-0.0-0.0-1.0-2.21","null","","null","<p style='font-size: 60px; color: green'>正确!</p>","","","","","","","","","","","","","","","","","","","","","","","","","","","","","","","","","","","","","","","","","","","","","","",""
"","","","","","html-keyboard-response","74","7914457","0.0-5.0-1.0-0.0-2.0-0.0-0.0-1.0-0.22","null","fixation","null","<p style='font-size: 48px; color: white'>+</p >","","","","","","","","","","","","","","","","","","","","","","","","","","","","","","","","","","","","","","","","","","","","","","",""
"","","","","","rdk","75","7916954","0.0-5.0-1.0-0.0-2.0-0.0-0.0-1.0-1.22","1480","match_RDK","j","","true","[""f"",""j""]","[""j""]","3000","true","2","[80,20]","1","0","0","0","5","1","-1","3","500","500","hsla(225, 50%, 50%, 70%)","hsla(0, 50%, 50%, 70%)","[""hsla(0, 50%, 50%, 70%)"",""hsla(225, 50%, 50%, 70%)""]","10","11","circle","black","3","2","2","16.897727272727273","[12,17,17,17,17,17,17,17,17,17,16,17,17,17,17,17,17,17,17,17,17,17,17,17,17,17,17,17,17,17,16,17,17,17,17,17,17,17,17,17,17,17,16,17,17,17,17,17,16,17,17,17,17,17,17,17,17,17,17,17,17,17,17,17,17,17,17,17,17,17,17,17,17,17,17,17,17,17,17,17,17,17,17,17,17,17,17,17]","88","600","250","false","20","20","black","1","false","1","1","1200","660","response","j","no","other",""
"","","","","","html-keyboard-response","76","7917959","0.0-5.0-1.0-0.0-2.0-0.0-0.0-1.0-2.22","null","","null","<p style='font-size: 60px; color: green'>正确!</p>","","","","","","","","","","","","","","","","","","","","","","","","","","","","","","","","","","","","","","","","","","","","","","",""
"","","","","","html-keyboard-response","77","7919474","0.0-5.0-1.0-0.0-2.0-0.0-0.0-1.0-0.23","null","fixation","null","<p style='font-size: 48px; color: white'>+</p >","","","","","","","","","","","","","","","","","","","","","","","","","","","","","","","","","","","","","","","","","","","","","","",""
"","","","","","rdk","78","7921354","0.0-5.0-1.0-0.0-2.0-0.0-0.0-1.0-1.23","862","match_RDK","f","","false","[""f"",""j""]","[""j""]","3000","true","2","[20,80]","1","0","0","0","5","1","-1","3","500","500","hsla(225, 50%, 50%, 70%)","hsla(0, 50%, 50%, 70%)","[""hsla(0, 50%, 50%, 70%)"",""hsla(225, 50%, 50%, 70%)""]","10","11","circle","black","3","2","2","16.823529411764707","[10,17,17,17,17,17,17,17,17,17,17,17,17,17,17,17,17,17,17,17,17,17,17,17,17,17,17,17,17,17,17,17,16,17,17,17,17,17,17,17,17,17,17,16,17,17,17,17,17,17,17]","51","600","250","false","20","20","black","1","false","1","1","1200","660","response","j","no","self",""
"","","","","","html-keyboard-response","79","7922373","0.0-5.0-1.0-0.0-2.0-0.0-0.0-1.0-2.23","null","","null","<p style='font-size: 60px; color: red'>错误!</p>","","","","","","","","","","","","","","","","","","","","","","","","","","","","","","","","","","","","","","","","","","","","","","",""
"","","","","","html-keyboard-response","80","7927978","0.0-5.0-1.0-0.0-2.0-0.0-0.0-3.0-0.0","4602","instruction_practiceEnd"," ","
    <div style=""text-align: center; color: white; padding: 30px; font-size: 30px"">
      <p>恭喜您完成练习，请按空格键进入正式任务。</p >
      <p> 正式任务仅在 每组 测试结束后提供反馈</p>
    </div>
    ","","","","","","","","","","","","","","","","","","","","","","","","","","","","","","","","","","","","","","","","","","","","","","",""
"","","","","","html-keyboard-response","81","7930234","0.0-5.0-1.0-0.0-3.0-0.0-0.0-0.0","1252","instruction_match_formal"," ","
    <div style=""text-align: center; color: white; padding: 35px; font-size: 35px"">
      <p>请按下空格键开始【正式任务】</p >
    </div>
    ","","","","","","","","","","","","","","","","","","","","","","","","","","","","","","","","","","","","","","","","","","","","","","",""
"","","","","","html-keyboard-response","82","7931742","0.0-5.0-1.0-0.0-3.0-0.0-0.0-1.0-0.0","null","fixation","null","<p style='font-size: 48px; color: white'>+</p >","","","","","","","","","","","","","","","","","","","","","","","","","","","","","","","","","","","","","","","","","","","","","","",""
"","","","","","rdk","83","7933626","0.0-5.0-1.0-0.0-3.0-0.0-0.0-1.0-1.0","868","match_RDK","f","","true","[""f"",""j""]","[""f""]","3000","true","2","[80,20]","1","0","0","0","5","1","-1","3","500","500","hsla(225, 50%, 50%, 70%)","hsla(0, 50%, 50%, 70%)","[""hsla(0, 50%, 50%, 70%)"",""hsla(225, 50%, 50%, 70%)""]","10","11","circle","black","3","2","2","16.75","[12,17,17,17,18,16,17,17,16,17,16,17,17,17,17,17,17,17,17,16,16,17,17,17,17,17,17,17,17,17,17,17,17,17,17,16,17,17,17,17,16,17,16,17,17,17,17,17,17,17,16,17]","52","600","250","false","20","20","black","1","false","1","1","1200","660","response","f","yes","self",""
"","","","","","html-keyboard-response","84","7934657","0.0-5.0-1.0-0.0-3.0-0.0-0.0-1.0-0.1","null","fixation","null","<p style='font-size: 48px; color: white'>+</p >","","","","","","","","","","","","","","","","","","","","","","","","","","","","","","","","","","","","","","","","","","","","","","",""
"","","","","","rdk","85","7936540","0.0-5.0-1.0-0.0-3.0-0.0-0.0-1.0-1.1","880","match_RDK","f","","true","[""f"",""j""]","[""f""]","3000","true","2","[80,20]","1","0","0","0","5","1","-1","3","500","500","hsla(225, 50%, 50%, 70%)","hsla(0, 50%, 50%, 70%)","[""hsla(225, 50%, 50%, 70%)"",""hsla(0, 50%, 50%, 70%)""]","10","11","circle","black","3","2","2","16.660377358490567","[10,17,17,17,17,17,17,17,17,16,17,17,17,17,17,17,17,16,17,16,17,17,17,17,17,16,17,16,17,17,16,17,17,16,17,17,17,16,17,17,16,17,17,17,17,16,17,17,17,17,16,17,17]","53","600","250","false","20","20","black","1","false","1","1","1200","660","response","f","yes","other",""
"","","","","","html-keyboard-response","86","7937557","0.0-5.0-1.0-0.0-3.0-0.0-0.0-1.0-0.2","null","fixation","null","<p style='font-size: 48px; color: white'>+</p >","","","","","","","","","","","","","","","","","","","","","","","","","","","","","","","","","","","","","","","","","","","","","","",""
"","","","","","rdk","87","7939434","0.0-5.0-1.0-0.0-3.0-0.0-0.0-1.0-1.2","867","match_RDK","j","","true","[""f"",""j""]","[""j""]","3000","true","2","[80,20]","1","0","0","0","5","1","-1","3","500","500","hsla(225, 50%, 50%, 70%)","hsla(0, 50%, 50%, 70%)","[""hsla(0, 50%, 50%, 70%)"",""hsla(225, 50%, 50%, 70%)""]","10","11","circle","black","3","2","2","16.596153846153847","[4,17,17,16,17,17,17,17,17,17,17,17,17,16,17,16,17,17,16,17,17,17,17,17,17,16,16,17,17,17,17,18,15,17,17,17,17,17,17,17,17,17,17,17,17,17,16,17,17,17,17,17]","52","600","250","false","20","20","black","1","false","1","1","1200","660","response","j","no","other",""
"","","","","","html-keyboard-response","88","7940457","0.0-5.0-1.0-0.0-3.0-0.0-0.0-1.0-0.3","null","fixation","null","<p style='font-size: 48px; color: white'>+</p >","","","","","","","","","","","","","","","","","","","","","","","","","","","","","","","","","","","","","","","","","","","","","","",""
"","","","","","rdk","89","7942266","0.0-5.0-1.0-0.0-3.0-0.0-0.0-1.0-1.3","808","match_RDK","j","","true","[""f"",""j""]","[""j""]","3000","true","2","[20,80]","1","0","0","0","5","1","-1","3","500","500","hsla(225, 50%, 50%, 70%)","hsla(0, 50%, 50%, 70%)","[""hsla(0, 50%, 50%, 70%)"",""hsla(225, 50%, 50%, 70%)""]","10","11","circle","black","3","2","2","16.875","[12,17,17,17,17,17,17,17,17,17,17,17,17,17,17,17,17,17,17,17,17,17,16,17,17,17,17,17,17,17,17,17,17,17,17,17,17,17,17,17,17,17,17,17,17,17,17,17]","48","600","250","false","20","20","black","1","false","1","1","1200","660","response","j","no","self",""
"","","","","","html-keyboard-response","90","7943290","0.0-5.0-1.0-0.0-3.0-0.0-0.0-1.0-0.4","null","fixation","null","<p style='font-size: 48px; color: white'>+</p >","","","","","","","","","","","","","","","","","","","","","","","","","","","","","","","","","","","","","","","","","","","","","","",""
"","","","","","rdk","91","7945002","0.0-5.0-1.0-0.0-3.0-0.0-0.0-1.0-1.4","702","match_RDK","f","","true","[""f"",""j""]","[""f""]","3000","true","2","[80,20]","1","0","0","0","5","1","-1","3","500","500","hsla(225, 50%, 50%, 70%)","hsla(0, 50%, 50%, 70%)","[""hsla(0, 50%, 50%, 70%)"",""hsla(225, 50%, 50%, 70%)""]","10","11","circle","black","3","2","2","16.523809523809526","[5,16,17,17,17,17,18,16,17,17,16,16,17,17,17,17,17,17,17,17,17,16,17,17,16,17,16,17,17,17,17,17,16,17,17,17,17,17,17,17,16,17]","42","600","250","false","20","20","black","1","false","1","1","1200","660","response","f","yes","self",""
"","","","","","html-keyboard-response","92","7946024","0.0-5.0-1.0-0.0-3.0-0.0-0.0-1.0-0.5","null","fixation","null","<p style='font-size: 48px; color: white'>+</p >","","","","","","","","","","","","","","","","","","","","","","","","","","","","","","","","","","","","","","","","","","","","","","",""
"","","","","","rdk","93","7947691","0.0-5.0-1.0-0.0-3.0-0.0-0.0-1.0-1.5","665","match_RDK","j","","false","[""f"",""j""]","[""f""]","3000","true","2","[80,20]","1","0","0","0","5","1","-1","3","500","500","hsla(225, 50%, 50%, 70%)","hsla(0, 50%, 50%, 70%)","[""hsla(225, 50%, 50%, 70%)"",""hsla(0, 50%, 50%, 70%)""]","10","11","circle","black","3","2","2","16.75","[10,17,17,17,17,17,17,17,17,17,17,17,17,17,17,16,17,17,17,17,17,17,17,17,17,17,17,17,17,17,16,17,17,17,17,17,16,17,17,17]","40","600","250","false","20","20","black","1","false","1","1","1200","660","response","f","yes","other",""
"","","","","","html-keyboard-response","94","7948707","0.0-5.0-1.0-0.0-3.0-0.0-0.0-1.0-0.6","null","fixation","null","<p style='font-size: 48px; color: white'>+</p >","","","","","","","","","","","","","","","","","","","","","","","","","","","","","","","","","","","","","","","","","","","","","","",""
"","","","","","rdk","95","7950810","0.0-5.0-1.0-0.0-3.0-0.0-0.0-1.0-1.6","1101","match_RDK","j","","true","[""f"",""j""]","[""j""]","3000","true","2","[20,80]","1","0","0","0","5","1","-1","3","500","500","hsla(225, 50%, 50%, 70%)","hsla(0, 50%, 50%, 70%)","[""hsla(0, 50%, 50%, 70%)"",""hsla(225, 50%, 50%, 70%)""]","10","11","circle","black","3","2","2","16.78787878787879","[11,17,17,17,17,17,17,17,17,16,17,17,17,17,17,17,17,17,16,17,17,17,17,17,16,17,17,17,17,17,17,17,17,17,17,17,17,17,17,17,17,17,16,17,17,17,17,16,17,17,17,17,17,16,17,17,16,17,17,17,17,17,16,17,17,17]","66","600","250","false","20","20","black","1","false","1","1","1200","660","response","j","no","self",""
"","","","","","html-keyboard-response","96","7951840","0.0-5.0-1.0-0.0-3.0-0.0-0.0-1.0-0.7","null","fixation","null","<p style='font-size: 48px; color: white'>+</p >","","","","","","","","","","","","","","","","","","","","","","","","","","","","","","","","","","","","","","","","","","","","","","",""
"","","","","","rdk","97","7953786","0.0-5.0-1.0-0.0-3.0-0.0-0.0-1.0-1.7","944","match_RDK","j","","true","[""f"",""j""]","[""j""]","3000","true","2","[80,20]","1","0","0","0","5","1","-1","3","500","500","hsla(225, 50%, 50%, 70%)","hsla(0, 50%, 50%, 70%)","[""hsla(0, 50%, 50%, 70%)"",""hsla(225, 50%, 50%, 70%)""]","10","11","circle","black","3","2","2","16.803571428571427","[12,17,17,17,17,17,17,17,17,17,17,17,17,17,16,17,17,17,17,17,17,17,17,17,17,17,17,17,17,16,17,16,17,17,16,17,17,16,17,17,17,17,17,17,17,17,17,17,17,17,17,17,17,17,17,16]","56","600","250","false","20","20","black","1","false","1","1","1200","660","response","j","no","other",""
"","","","","","html-keyboard-response","98","7954807","0.0-5.0-1.0-0.0-3.0-0.0-0.0-1.0-0.8","null","fixation","null","<p style='font-size: 48px; color: white'>+</p >","","","","","","","","","","","","","","","","","","","","","","","","","","","","","","","","","","","","","","","","","","","","","","",""
"","","","","","rdk","99","7957290","0.0-5.0-1.0-0.0-3.0-0.0-0.0-1.0-1.8","1480","match_RDK","j","","true","[""f"",""j""]","[""j""]","3000","true","2","[80,20]","1","0","0","0","5","1","-1","3","500","500","hsla(225, 50%, 50%, 70%)","hsla(0, 50%, 50%, 70%)","[""hsla(0, 50%, 50%, 70%)"",""hsla(225, 50%, 50%, 70%)""]","10","11","circle","black","3","2","2","16.876404494382022","[10,17,17,17,17,17,17,17,17,17,17,17,17,17,17,17,17,17,17,17,17,16,17,17,17,17,17,17,17,17,17,17,17,17,17,17,17,17,17,17,17,16,17,17,17,17,17,17,17,17,17,17,17,17,17,17,17,17,17,17,17,17,17,17,16,17,17,17,17,17,17,17,16,17,17,17,17,17,17,17,17,17,17,17,17,17,17,17,17]","89","600","250","false","20","20","black","1","false","1","1","1200","660","response","j","no","other",""
"","","","","","html-keyboard-response","100","7958307","0.0-5.0-1.0-0.0-3.0-0.0-0.0-1.0-0.9","null","fixation","null","<p style='font-size: 48px; color: white'>+</p >","","","","","","","","","","","","","","","","","","","","","","","","","","","","","","","","","","","","","","","","","","","","","","",""
"","","","","","rdk","101","7960298","0.0-5.0-1.0-0.0-3.0-0.0-0.0-1.0-1.9","989","match_RDK","j","","true","[""f"",""j""]","[""j""]","3000","true","2","[20,80]","1","0","0","0","5","1","-1","3","500","500","hsla(225, 50%, 50%, 70%)","hsla(0, 50%, 50%, 70%)","[""hsla(0, 50%, 50%, 70%)"",""hsla(225, 50%, 50%, 70%)""]","10","11","circle","black","3","2","2","16.74576271186441","[10,18,17,17,16,17,17,17,17,17,17,17,17,17,17,17,16,17,17,17,17,17,16,17,16,17,17,17,17,17,17,17,17,17,16,17,17,17,17,17,17,17,17,17,16,17,17,17,17,17,17,17,17,16,17,16,17,16,17]","59","600","250","false","20","20","black","1","false","1","1","1200","660","response","j","no","self",""
"","","","","","html-keyboard-response","102","7961323","0.0-5.0-1.0-0.0-3.0-0.0-0.0-1.0-0.10","null","fixation","null","<p style='font-size: 48px; color: white'>+</p >","","","","","","","","","","","","","","","","","","","","","","","","","","","","","","","","","","","","","","","","","","","","","","",""
"","","","","","rdk","103","7963370","0.0-5.0-1.0-0.0-3.0-0.0-0.0-1.0-1.10","1044","match_RDK","f","","true","[""f"",""j""]","[""f""]","3000","true","2","[80,20]","1","0","0","0","5","1","-1","3","500","500","hsla(225, 50%, 50%, 70%)","hsla(0, 50%, 50%, 70%)","[""hsla(0, 50%, 50%, 70%)"",""hsla(225, 50%, 50%, 70%)""]","10","11","circle","black","3","2","2","16.838709677419356","[10,17,17,17,17,17,17,17,17,17,17,17,17,17,17,17,17,17,17,17,17,17,17,17,17,17,17,16,17,17,17,17,17,17,17,17,17,17,17,17,17,17,17,17,17,16,17,17,17,17,17,17,17,17,17,17,17,17,17,17,17,16]","62","600","250","false","20","20","black","1","false","1","1","1200","660","response","f","yes","self",""
"","","","","","html-keyboard-response","104","7964390","0.0-5.0-1.0-0.0-3.0-0.0-0.0-1.0-0.11","null","fixation","null","<p style='font-size: 48px; color: white'>+</p >","","","","","","","","","","","","","","","","","","","","","","","","","","","","","","","","","","","","","","","","","","","","","","",""
"","","","","","rdk","105","7966602","0.0-5.0-1.0-0.0-3.0-0.0-0.0-1.0-1.11","1194","match_RDK","f","","true","[""f"",""j""]","[""f""]","3000","true","2","[80,20]","1","0","0","0","5","1","-1","3","500","500","hsla(225, 50%, 50%, 70%)","hsla(0, 50%, 50%, 70%)","[""hsla(225, 50%, 50%, 70%)"",""hsla(0, 50%, 50%, 70%)""]","10","11","circle","black","3","2","2","16.718309859154928","[13,17,16,17,17,16,17,17,17,17,17,16,17,17,17,17,16,17,17,17,17,17,17,17,17,17,16,17,17,16,17,17,17,16,17,17,17,17,16,17,17,16,16,17,17,17,17,17,17,17,17,17,17,16,17,17,16,17,16,17,17,16,17,17,17,17,17,16,17,17,16]","71","600","250","false","20","20","black","1","false","1","1","1200","660","response","f","yes","other",""
"","","","","","html-keyboard-response","106","7967624","0.0-5.0-1.0-0.0-3.0-0.0-0.0-1.0-0.12","null","fixation","null","<p style='font-size: 48px; color: white'>+</p >","","","","","","","","","","","","","","","","","","","","","","","","","","","","","","","","","","","","","","","","","","","","","","",""
"","","","","","rdk","107","7969914","0.0-5.0-1.0-0.0-3.0-0.0-0.0-1.0-1.12","1288","match_RDK","j","","true","[""f"",""j""]","[""j""]","3000","true","2","[80,20]","1","0","0","0","5","1","-1","3","500","500","hsla(225, 50%, 50%, 70%)","hsla(0, 50%, 50%, 70%)","[""hsla(0, 50%, 50%, 70%)"",""hsla(225, 50%, 50%, 70%)""]","10","11","circle","black","3","2","2","16.935064935064936","[12,17,17,17,17,17,17,17,17,17,17,17,17,17,17,17,17,17,17,17,17,17,17,17,17,17,17,17,17,17,17,17,17,17,17,17,17,17,17,17,17,17,17,17,17,17,17,17,17,17,17,17,17,17,17,17,17,17,17,17,17,17,17,17,17,17,17,17,17,17,17,17,17,17,17,17,17]","77","600","250","false","20","20","black","1","false","1","1","1200","660","response","j","no","other",""
"","","","","","html-keyboard-response","108","7970940","0.0-5.0-1.0-0.0-3.0-0.0-0.0-1.0-0.13","null","fixation","null","<p style='font-size: 48px; color: white'>+</p >","","","","","","","","","","","","","","","","","","","","","","","","","","","","","","","","","","","","","","","","","","","","","","",""
"","","","","","rdk","109","7973402","0.0-5.0-1.0-0.0-3.0-0.0-0.0-1.0-1.13","1444","match_RDK","f","","true","[""f"",""j""]","[""f""]","3000","true","2","[80,20]","1","0","0","0","5","1","-1","3","500","500","hsla(225, 50%, 50%, 70%)","hsla(0, 50%, 50%, 70%)","[""hsla(225, 50%, 50%, 70%)"",""hsla(0, 50%, 50%, 70%)""]","10","11","circle","black","3","2","2","16.825581395348838","[12,17,17,17,17,17,16,17,17,17,17,16,17,17,17,17,16,17,17,17,17,17,17,17,17,17,17,16,17,17,17,17,16,16,17,17,17,17,16,17,17,17,17,17,17,17,17,17,17,17,17,17,17,17,17,17,17,16,17,17,17,17,17,17,17,17,17,16,16,17,17,17,17,17,17,17,17,17,17,17,17,17,17,17,17,17]","86","600","250","false","20","20","black","1","false","1","1","1200","660","response","f","yes","other",""
"","","","","","html-keyboard-response","110","7974424","0.0-5.0-1.0-0.0-3.0-0.0-0.0-1.0-0.14","null","fixation","null","<p style='font-size: 48px; color: white'>+</p >","","","","","","","","","","","","","","","","","","","","","","","","","","","","","","","","","","","","","","","","","","","","","","",""
"","","","","","rdk","111","7976314","0.0-5.0-1.0-0.0-3.0-0.0-0.0-1.0-1.14","888","match_RDK","f","","true","[""f"",""j""]","[""f""]","3000","true","2","[80,20]","1","0","0","0","5","1","-1","3","500","500","hsla(225, 50%, 50%, 70%)","hsla(0, 50%, 50%, 70%)","[""hsla(0, 50%, 50%, 70%)"",""hsla(225, 50%, 50%, 70%)""]","10","11","circle","black","3","2","2","16.641509433962263","[10,17,17,16,17,17,17,17,17,16,16,17,17,16,17,16,17,17,17,17,17,16,17,17,17,17,16,17,17,17,16,17,17,17,17,16,17,17,16,17,17,17,16,17,17,16,17,17,17,17,17,17,17]","53","600","250","false","20","20","black","1","false","1","1","1200","660","response","f","yes","self",""
"","","","","","html-keyboard-response","112","7977340","0.0-5.0-1.0-0.0-3.0-0.0-0.0-1.0-0.15","null","fixation","null","<p style='font-size: 48px; color: white'>+</p >","","","","","","","","","","","","","","","","","","","","","","","","","","","","","","","","","","","","","","","","","","","","","","",""
"","","","","","rdk","113","7979034","0.0-5.0-1.0-0.0-3.0-0.0-0.0-1.0-1.15","691","match_RDK","j","","true","[""f"",""j""]","[""j""]","3000","true","2","[20,80]","1","0","0","0","5","1","-1","3","500","500","hsla(225, 50%, 50%, 70%)","hsla(0, 50%, 50%, 70%)","[""hsla(0, 50%, 50%, 70%)"",""hsla(225, 50%, 50%, 70%)""]","10","11","circle","black","3","2","2","16.634146341463413","[11,17,17,17,17,17,16,17,16,17,17,17,16,17,17,17,17,17,16,17,16,17,17,17,17,17,17,17,17,17,17,17,16,17,17,16,17,16,17,17,16]","41","600","250","false","20","20","black","1","false","1","1","1200","660","response","j","no","self",""
"","","","","","html-keyboard-response","114","7980057","0.0-5.0-1.0-0.0-3.0-0.0-0.0-1.0-0.16","null","fixation","null","<p style='font-size: 48px; color: white'>+</p >","","","","","","","","","","","","","","","","","","","","","","","","","","","","","","","","","","","","","","","","","","","","","","",""
"","","","","","rdk","115","7982202","0.0-5.0-1.0-0.0-3.0-0.0-0.0-1.0-1.16","1142","match_RDK","j","","true","[""f"",""j""]","[""j""]","3000","true","2","[20,80]","1","0","0","0","5","1","-1","3","500","500","hsla(225, 50%, 50%, 70%)","hsla(0, 50%, 50%, 70%)","[""hsla(0, 50%, 50%, 70%)"",""hsla(225, 50%, 50%, 70%)""]","10","11","circle","black","3","2","2","16.735294117647058","[10,17,17,17,17,17,16,17,17,17,17,17,17,17,17,17,17,16,16,17,17,17,17,17,17,16,17,17,17,17,17,17,17,17,17,17,17,17,16,16,17,17,17,17,17,17,16,17,16,17,17,16,17,16,17,17,17,17,17,17,17,17,17,17,16,17,17,17]","68","600","250","false","20","20","black","1","false","1","1","1200","660","response","j","no","self",""
"","","","","","html-keyboard-response","116","7983224","0.0-5.0-1.0-0.0-3.0-0.0-0.0-1.0-0.17","null","fixation","null","<p style='font-size: 48px; color: white'>+</p >","","","","","","","","","","","","","","","","","","","","","","","","","","","","","","","","","","","","","","","","","","","","","","",""
"","","","","","rdk","117","7985226","0.0-5.0-1.0-0.0-3.0-0.0-0.0-1.0-1.17","984","match_RDK","j","","true","[""f"",""j""]","[""j""]","3000","true","2","[80,20]","1","0","0","0","5","1","-1","3","500","500","hsla(225, 50%, 50%, 70%)","hsla(0, 50%, 50%, 70%)","[""hsla(0, 50%, 50%, 70%)"",""hsla(225, 50%, 50%, 70%)""]","10","11","circle","black","3","2","2","16.728813559322035","[11,17,16,17,16,17,17,17,16,17,17,17,17,18,16,17,17,17,17,17,16,17,17,17,17,17,17,17,17,17,17,17,16,17,17,17,17,17,16,17,17,17,17,17,17,17,17,17,16,17,17,16,17,16,16,17,17,17,17]","59","600","250","false","20","20","black","1","false","1","1","1200","660","response","j","no","other",""
"","","","","","html-keyboard-response","118","7986257","0.0-5.0-1.0-0.0-3.0-0.0-0.0-1.0-0.18","null","fixation","null","<p style='font-size: 48px; color: white'>+</p >","","","","","","","","","","","","","","","","","","","","","","","","","","","","","","","","","","","","","","","","","","","","","","",""
"","","","","","rdk","119","7988074","0.0-5.0-1.0-0.0-3.0-0.0-0.0-1.0-1.18","800","match_RDK","f","","true","[""f"",""j""]","[""f""]","3000","true","2","[80,20]","1","0","0","0","5","1","-1","3","500","500","hsla(225, 50%, 50%, 70%)","hsla(0, 50%, 50%, 70%)","[""hsla(0, 50%, 50%, 70%)"",""hsla(225, 50%, 50%, 70%)""]","10","11","circle","black","3","2","2","16.875","[12,17,17,17,17,17,17,17,17,17,17,16,17,17,17,17,17,17,17,17,17,17,17,17,17,17,17,17,17,17,17,17,17,17,17,17,17,17,17,17,17,17,17,17,17,17,17,17]","48","600","250","false","20","20","black","1","false","1","1","1200","660","response","f","yes","self",""
"","","","","","html-keyboard-response","120","7989090","0.0-5.0-1.0-0.0-3.0-0.0-0.0-1.0-0.19","null","fixation","null","<p style='font-size: 48px; color: white'>+</p >","","","","","","","","","","","","","","","","","","","","","","","","","","","","","","","","","","","","","","","","","","","","","","",""
"","","","","","rdk","121","7991354","0.0-5.0-1.0-0.0-3.0-0.0-0.0-1.0-1.19","1260","match_RDK","f","","true","[""f"",""j""]","[""f""]","3000","true","2","[80,20]","1","0","0","0","5","1","-1","3","500","500","hsla(225, 50%, 50%, 70%)","hsla(0, 50%, 50%, 70%)","[""hsla(225, 50%, 50%, 70%)"",""hsla(0, 50%, 50%, 70%)""]","10","11","circle","black","3","2","2","16.773333333333333","[9,17,17,17,17,17,17,17,17,17,17,17,17,17,17,17,17,16,17,17,17,17,17,17,16,17,17,17,17,16,17,16,17,16,17,17,17,17,17,17,17,17,17,17,17,17,17,16,17,17,16,17,17,16,17,17,17,17,16,17,17,17,17,17,17,17,17,17,17,17,17,17,17,17,17]","75","600","250","false","20","20","black","1","false","1","1","1200","660","response","f","yes","other",""
"","","","","","html-keyboard-response","122","7992358","0.0-5.0-1.0-0.0-3.0-0.0-0.0-1.0-0.20","null","fixation","null","<p style='font-size: 48px; color: white'>+</p >","","","","","","","","","","","","","","","","","","","","","","","","","","","","","","","","","","","","","","","","","","","","","","",""
"","","","","","rdk","123","7994490","0.0-5.0-1.0-0.0-3.0-0.0-0.0-1.0-1.20","1115","match_RDK","j","","true","[""f"",""j""]","[""j""]","3000","true","2","[80,20]","1","0","0","0","5","1","-1","3","500","500","hsla(225, 50%, 50%, 70%)","hsla(0, 50%, 50%, 70%)","[""hsla(0, 50%, 50%, 70%)"",""hsla(225, 50%, 50%, 70%)""]","10","11","circle","black","3","2","2","16.880597014925375","[11,17,17,17,17,17,17,17,17,17,17,17,17,17,17,17,17,17,17,17,17,17,17,17,17,17,17,17,17,17,17,17,17,16,18,16,17,17,17,17,17,17,17,17,17,17,17,17,17,17,17,17,17,17,17,17,17,16,17,17,17,17,17,17,17,17,17]","67","600","250","false","20","20","black","1","false","1","1","1200","660","response","j","no","other",""
"","","","","","html-keyboard-response","124","7995507","0.0-5.0-1.0-0.0-3.0-0.0-0.0-1.0-0.21","null","fixation","null","<p style='font-size: 48px; color: white'>+</p >","","","","","","","","","","","","","","","","","","","","","","","","","","","","","","","","","","","","","","","","","","","","","","",""
"","","","","","rdk","125","7997625","0.0-5.0-1.0-0.0-3.0-0.0-0.0-1.0-1.21","1116","match_RDK","j","","false","[""f"",""j""]","[""f""]","3000","true","2","[80,20]","1","0","0","0","5","1","-1","3","500","500","hsla(225, 50%, 50%, 70%)","hsla(0, 50%, 50%, 70%)","[""hsla(0, 50%, 50%, 70%)"",""hsla(225, 50%, 50%, 70%)""]","10","11","circle","black","3","2","2","16.865671641791046","[11,17,17,17,17,17,17,16,17,17,17,17,17,17,17,17,17,16,17,17,17,17,17,17,17,17,17,17,17,17,17,17,17,17,17,17,17,17,17,17,17,17,17,17,17,17,17,17,17,17,17,17,17,17,17,17,17,17,17,17,17,17,16,17,17,17,17]","67","600","250","false","20","20","black","1","false","1","1","1200","660","response","f","yes","self",""
"","","","","","html-keyboard-response","126","7998640","0.0-5.0-1.0-0.0-3.0-0.0-0.0-1.0-0.22","null","fixation","null","<p style='font-size: 48px; color: white'>+</p >","","","","","","","","","","","","","","","","","","","","","","","","","","","","","","","","","","","","","","","","","","","","","","",""
"","","","","","rdk","127","8000490","0.0-5.0-1.0-0.0-3.0-0.0-0.0-1.0-1.22","832","match_RDK","j","","true","[""f"",""j""]","[""j""]","3000","true","2","[20,80]","1","0","0","0","5","1","-1","3","500","500","hsla(225, 50%, 50%, 70%)","hsla(0, 50%, 50%, 70%)","[""hsla(0, 50%, 50%, 70%)"",""hsla(225, 50%, 50%, 70%)""]","10","11","circle","black","3","2","2","16.84","[12,17,17,17,17,17,17,17,17,17,16,17,17,17,17,17,17,16,17,17,17,17,17,17,17,17,17,17,16,17,17,17,17,17,17,17,17,17,17,17,17,17,17,17,17,17,17,17,17,17]","50","600","250","false","20","20","black","1","false","1","1","1200","660","response","j","no","self",""
"","","","","","html-keyboard-response","128","8001507","0.0-5.0-1.0-0.0-3.0-0.0-0.0-1.0-0.23","null","fixation","null","<p style='font-size: 48px; color: white'>+</p >","","","","","","","","","","","","","","","","","","","","","","","","","","","","","","","","","","","","","","","","","","","","","","",""
"","","","","","rdk","129","8003418","0.0-5.0-1.0-0.0-3.0-0.0-0.0-1.0-1.23","893","match_RDK","f","","true","[""f"",""j""]","[""f""]","3000","true","2","[80,20]","1","0","0","0","5","1","-1","3","500","500","hsla(225, 50%, 50%, 70%)","hsla(0, 50%, 50%, 70%)","[""hsla(225, 50%, 50%, 70%)"",""hsla(0, 50%, 50%, 70%)""]","10","11","circle","black","3","2","2","16.79245283018868","[11,17,17,17,17,17,17,17,17,17,17,17,17,17,17,17,17,16,17,17,17,17,17,17,17,16,17,17,17,17,17,17,17,17,16,17,17,17,17,17,17,17,16,17,17,17,17,17,17,17,17,17,16]","53","600","250","false","20","20","black","1","false","1","1","1200","660","response","f","yes","other",""
"","","","","","html-keyboard-response","130","8004441","0.0-5.0-1.0-0.0-3.0-0.0-0.0-1.0-0.24","null","fixation","null","<p style='font-size: 48px; color: white'>+</p >","","","","","","","","","","","","","","","","","","","","","","","","","","","","","","","","","","","","","","","","","","","","","","",""
"","","","","","rdk","131","8006314","0.0-5.0-1.0-0.0-3.0-0.0-0.0-1.0-1.24","864","match_RDK","f","","true","[""f"",""j""]","[""f""]","3000","true","2","[80,20]","1","0","0","0","5","1","-1","3","500","500","hsla(225, 50%, 50%, 70%)","hsla(0, 50%, 50%, 70%)","[""hsla(225, 50%, 50%, 70%)"",""hsla(0, 50%, 50%, 70%)""]","10","11","circle","black","3","2","2","16.634615384615383","[5,16,16,17,17,17,17,17,17,17,17,16,16,17,17,17,17,17,17,17,16,17,17,17,17,17,17,17,17,17,17,16,17,17,17,17,17,17,17,16,17,17,17,17,17,17,17,17,17,17,17,17]","52","600","250","false","20","20","black","1","false","1","1","1200","660","response","f","yes","other",""
"","","","","","html-keyboard-response","132","8007341","0.0-5.0-1.0-0.0-3.0-0.0-0.0-1.0-0.25","null","fixation","null","<p style='font-size: 48px; color: white'>+</p >","","","","","","","","","","","","","","","","","","","","","","","","","","","","","","","","","","","","","","","","","","","","","","",""
"","","","","","rdk","133","8009354","0.0-5.0-1.0-0.0-3.0-0.0-0.0-1.0-1.25","996","match_RDK","f","","true","[""f"",""j""]","[""f""]","3000","true","2","[80,20]","1","0","0","0","5","1","-1","3","500","500","hsla(225, 50%, 50%, 70%)","hsla(0, 50%, 50%, 70%)","[""hsla(0, 50%, 50%, 70%)"",""hsla(225, 50%, 50%, 70%)""]","10","11","circle","black","3","2","2","16.694915254237287","[11,17,17,17,17,17,17,17,17,17,17,16,17,16,17,16,17,17,17,17,17,17,16,17,16,17,17,17,17,16,17,16,16,17,17,17,17,17,17,17,16,17,17,17,16,17,17,17,17,17,17,17,17,17,17,16,17,16,17]","59","600","250","false","20","20","black","1","false","1","1","1200","660","response","f","yes","self",""
"","","","","","html-keyboard-response","134","8010374","0.0-5.0-1.0-0.0-3.0-0.0-0.0-1.0-0.26","null","fixation","null","<p style='font-size: 48px; color: white'>+</p >","","","","","","","","","","","","","","","","","","","","","","","","","","","","","","","","","","","","","","","","","","","","","","",""
"","","","","","rdk","135","8012138","0.0-5.0-1.0-0.0-3.0-0.0-0.0-1.0-1.26","747","match_RDK","j","","true","[""f"",""j""]","[""j""]","3000","true","2","[20,80]","1","0","0","0","5","1","-1","3","500","500","hsla(225, 50%, 50%, 70%)","hsla(0, 50%, 50%, 70%)","[""hsla(0, 50%, 50%, 70%)"",""hsla(225, 50%, 50%, 70%)""]","10","11","circle","black","3","2","2","16.863636363636363","[11,17,17,17,17,17,17,17,17,17,17,17,17,17,17,17,17,17,17,17,17,17,17,17,17,17,17,17,17,17,17,17,17,17,17,17,17,17,17,17,17,17,17,17]","44","600","250","false","20","20","black","1","false","1","1","1200","660","response","j","no","self",""
"","","","","","html-keyboard-response","136","8013157","0.0-5.0-1.0-0.0-3.0-0.0-0.0-1.0-0.27","null","fixation","null","<p style='font-size: 48px; color: white'>+</p >","","","","","","","","","","","","","","","","","","","","","","","","","","","","","","","","","","","","","","","","","","","","","","",""
"","","","","","rdk","137","8015034","0.0-5.0-1.0-0.0-3.0-0.0-0.0-1.0-1.27","874","match_RDK","f","","false","[""f"",""j""]","[""j""]","3000","true","2","[80,20]","1","0","0","0","5","1","-1","3","500","500","hsla(225, 50%, 50%, 70%)","hsla(0, 50%, 50%, 70%)","[""hsla(0, 50%, 50%, 70%)"",""hsla(225, 50%, 50%, 70%)""]","10","11","circle","black","3","2","2","16.78846153846154","[10,17,17,17,17,17,16,17,17,17,17,17,17,17,16,17,17,17,17,17,17,17,17,17,17,17,17,16,17,17,17,17,17,17,17,17,17,17,17,16,17,17,17,17,17,17,17,17,17,17,17,17]","52","600","250","false","20","20","black","1","false","1","1","1200","660","response","j","no","other",""
"","","","","","html-keyboard-response","138","8016057","0.0-5.0-1.0-0.0-3.0-0.0-0.0-1.0-0.28","null","fixation","null","<p style='font-size: 48px; color: white'>+</p >","","","","","","","","","","","","","","","","","","","","","","","","","","","","","","","","","","","","","","","","","","","","","","",""
"","","","","","rdk","139","8018107","0.0-5.0-1.0-0.0-3.0-0.0-0.0-1.0-1.28","1048","match_RDK","j","","true","[""f"",""j""]","[""j""]","3000","true","2","[80,20]","1","0","0","0","5","1","-1","3","500","500","hsla(225, 50%, 50%, 70%)","hsla(0, 50%, 50%, 70%)","[""hsla(0, 50%, 50%, 70%)"",""hsla(225, 50%, 50%, 70%)""]","10","11","circle","black","3","2","2","16.6984126984127","[11,17,17,16,17,16,17,17,17,17,16,17,17,17,17,17,17,17,17,17,17,16,17,16,17,17,16,17,17,16,17,17,17,17,17,17,17,17,17,17,17,16,17,17,17,17,17,16,17,17,17,16,17,16,17,16,17,17,17,17,17,17,16]","63","600","250","false","20","20","black","1","false","1","1","1200","660","response","j","no","other",""
"","","","","","html-keyboard-response","140","8019124","0.0-5.0-1.0-0.0-3.0-0.0-0.0-1.0-0.29","null","fixation","null","<p style='font-size: 48px; color: white'>+</p >","","","","","","","","","","","","","","","","","","","","","","","","","","","","","","","","","","","","","","","","","","","","","","",""
"","","","","","rdk","141","8021354","0.0-5.0-1.0-0.0-3.0-0.0-0.0-1.0-1.29","1212","match_RDK","j","","true","[""f"",""j""]","[""j""]","3000","true","2","[20,80]","1","0","0","0","5","1","-1","3","500","500","hsla(225, 50%, 50%, 70%)","hsla(0, 50%, 50%, 70%)","[""hsla(0, 50%, 50%, 70%)"",""hsla(225, 50%, 50%, 70%)""]","10","11","circle","black","3","2","2","16.833333333333332","[11,17,17,17,17,17,17,17,17,17,16,17,17,17,17,17,17,17,16,17,16,17,17,17,16,17,17,17,17,17,17,17,17,17,17,17,17,17,17,17,17,17,17,16,17,17,17,17,17,17,17,17,17,17,17,17,17,17,17,17,17,17,17,17,17,17,16,17,17,17,17,17]","72","600","250","false","20","20","black","1","false","1","1","1200","660","response","j","no","self",""
"","","","","","html-keyboard-response","142","8022374","0.0-5.0-1.0-0.0-3.0-0.0-0.0-1.0-0.30","null","fixation","null","<p style='font-size: 48px; color: white'>+</p >","","","","","","","","","","","","","","","","","","","","","","","","","","","","","","","","","","","","","","","","","","","","","","",""
"","","","","","rdk","143","8024266","0.0-5.0-1.0-0.0-3.0-0.0-0.0-1.0-1.30","874","match_RDK","f","","true","[""f"",""j""]","[""f""]","3000","true","2","[80,20]","1","0","0","0","5","1","-1","3","500","500","hsla(225, 50%, 50%, 70%)","hsla(0, 50%, 50%, 70%)","[""hsla(0, 50%, 50%, 70%)"",""hsla(225, 50%, 50%, 70%)""]","10","11","circle","black","3","2","2","16.78846153846154","[11,17,17,17,17,17,17,17,16,17,17,17,17,17,17,17,17,17,17,17,17,17,17,17,17,17,17,17,17,17,17,17,17,16,17,17,16,17,17,17,17,17,17,17,17,17,16,17,17,17,17,16]","52","600","250","false","20","20","black","1","false","1","1","1200","660","response","f","yes","self",""
"","","","","","html-keyboard-response","144","8025290","0.0-5.0-1.0-0.0-3.0-0.0-0.0-1.0-0.31","null","fixation","null","<p style='font-size: 48px; color: white'>+</p >","","","","","","","","","","","","","","","","","","","","","","","","","","","","","","","","","","","","","","","","","","","","","","",""
"","","","","","rdk","145","8027290","0.0-5.0-1.0-0.0-3.0-0.0-0.0-1.0-1.31","996","match_RDK","f","","true","[""f"",""j""]","[""f""]","3000","true","2","[80,20]","1","0","0","0","5","1","-1","3","500","500","hsla(225, 50%, 50%, 70%)","hsla(0, 50%, 50%, 70%)","[""hsla(225, 50%, 50%, 70%)"",""hsla(0, 50%, 50%, 70%)""]","10","11","circle","black","3","2","2","16.75","[10,17,16,17,17,17,17,16,17,17,17,17,17,17,17,17,17,17,17,16,17,17,17,17,17,17,17,16,17,17,17,17,17,17,17,16,17,17,16,17,17,17,16,17,17,17,17,17,17,17,17,17,17,17,17,17,17,17,17,16]","60","600","250","false","20","20","black","1","false","1","1","1200","660","response","f","yes","other",""
"","","","","","html-keyboard-response","146","8028307","0.0-5.0-1.0-0.0-3.0-0.0-0.0-1.0-0.32","null","fixation","null","<p style='font-size: 48px; color: white'>+</p >","","","","","","","","","","","","","","","","","","","","","","","","","","","","","","","","","","","","","","","","","","","","","","",""
"","","","","","rdk","147","8030266","0.0-5.0-1.0-0.0-3.0-0.0-0.0-1.0-1.32","957","match_RDK","j","","true","[""f"",""j""]","[""j""]","3000","true","2","[20,80]","1","0","0","0","5","1","-1","3","500","500","hsla(225, 50%, 50%, 70%)","hsla(0, 50%, 50%, 70%)","[""hsla(0, 50%, 50%, 70%)"",""hsla(225, 50%, 50%, 70%)""]","10","11","circle","black","3","2","2","16.859649122807017","[10,17,17,17,17,17,17,17,17,17,17,17,17,17,17,17,17,17,17,17,16,17,17,17,17,17,17,17,17,17,17,17,17,17,17,17,17,17,17,17,17,17,17,17,17,17,17,17,17,17,17,17,17,17,17,17,17]","57","600","250","false","20","20","black","1","false","1","1","1200","660","response","j","no","self",""
"","","","","","html-keyboard-response","148","8031290","0.0-5.0-1.0-0.0-3.0-0.0-0.0-1.0-0.33","null","fixation","null","<p style='font-size: 48px; color: white'>+</p >","","","","","","","","","","","","","","","","","","","","","","","","","","","","","","","","","","","","","","","","","","","","","","",""
"","","","","","rdk","149","8032986","0.0-5.0-1.0-0.0-3.0-0.0-0.0-1.0-1.33","678","match_RDK","f","","true","[""f"",""j""]","[""f""]","3000","true","2","[80,20]","1","0","0","0","5","1","-1","3","500","500","hsla(225, 50%, 50%, 70%)","hsla(0, 50%, 50%, 70%)","[""hsla(0, 50%, 50%, 70%)"",""hsla(225, 50%, 50%, 70%)""]","10","11","circle","black","3","2","2","16.775","[11,18,17,17,17,17,17,17,17,17,17,17,17,17,17,16,17,16,17,17,17,17,17,16,17,17,17,17,17,17,17,17,17,17,17,17,17,17,17,16]","40","600","250","false","20","20","black","1","false","1","1","1200","660","response","f","yes","self",""
"","","","","","html-keyboard-response","150","8034007","0.0-5.0-1.0-0.0-3.0-0.0-0.0-1.0-0.34","null","fixation","null","<p style='font-size: 48px; color: white'>+</p >","","","","","","","","","","","","","","","","","","","","","","","","","","","","","","","","","","","","","","","","","","","","","","",""
"","","","","","rdk","151","8035725","0.0-5.0-1.0-0.0-3.0-0.0-0.0-1.0-1.34","713","match_RDK","j","","true","[""f"",""j""]","[""j""]","3000","true","2","[80,20]","1","0","0","0","5","1","-1","3","500","500","hsla(225, 50%, 50%, 70%)","hsla(0, 50%, 50%, 70%)","[""hsla(0, 50%, 50%, 70%)"",""hsla(225, 50%, 50%, 70%)""]","10","11","circle","black","3","2","2","16.72093023255814","[9,17,17,17,17,17,17,16,17,17,17,17,17,17,17,17,17,17,16,17,17,17,17,17,17,17,17,16,17,16,17,17,17,17,17,17,17,16,17,17,17,17,18]","43","600","250","false","20","20","black","1","false","1","1","1200","660","response","j","no","other",""
"","","","","","html-keyboard-response","152","8036741","0.0-5.0-1.0-0.0-3.0-0.0-0.0-1.0-0.35","null","fixation","null","<p style='font-size: 48px; color: white'>+</p >","","","","","","","","","","","","","","","","","","","","","","","","","","","","","","","","","","","","","","","","","","","","","","",""
"","","","","","rdk","153","8039498","0.0-5.0-1.0-0.0-3.0-0.0-0.0-1.0-1.35","1754","match_RDK","f","","true","[""f"",""j""]","[""f""]","3000","true","2","[80,20]","1","0","0","0","5","1","-1","3","500","500","hsla(225, 50%, 50%, 70%)","hsla(0, 50%, 50%, 70%)","[""hsla(225, 50%, 50%, 70%)"",""hsla(0, 50%, 50%, 70%)""]","10","11","circle","black","3","2","2","16.895238095238096","[9,17,17,17,17,16,17,17,17,17,17,17,17,17,17,17,17,17,17,17,17,17,17,17,17,17,17,17,17,17,17,17,17,17,17,17,17,17,17,17,17,17,17,17,17,17,17,17,17,17,17,17,17,17,17,17,17,17,17,17,16,17,17,17,17,17,17,17,17,17,17,17,17,17,17,17,17,17,17,17,17,17,17,17,17,17,17,17,17,17,17,17,17,16,17,17,17,17,17,17,17,17,17,17,17]","105","600","250","false","20","20","black","1","false","1","1","1200","660","response","f","yes","other",""
"","","","","","html-keyboard-response","154","8040524","0.0-5.0-1.0-0.0-3.0-0.0-0.0-1.0-0.36","null","fixation","null","<p style='font-size: 48px; color: white'>+</p >","","","","","","","","","","","","","","","","","","","","","","","","","","","","","","","","","","","","","","","","","","","","","","",""
"","","","","","rdk","155","8042442","0.0-5.0-1.0-0.0-3.0-0.0-0.0-1.0-1.36","912","match_RDK","j","","true","[""f"",""j""]","[""j""]","3000","true","2","[80,20]","1","0","0","0","5","1","-1","3","500","500","hsla(225, 50%, 50%, 70%)","hsla(0, 50%, 50%, 70%)","[""hsla(0, 50%, 50%, 70%)"",""hsla(225, 50%, 50%, 70%)""]","10","11","circle","black","3","2","2","16.654545454545456","[7,16,17,17,17,17,17,17,17,17,17,17,16,17,16,17,17,17,17,17,17,17,17,17,17,16,17,17,17,17,17,16,17,17,17,16,17,17,17,17,17,16,16,17,17,17,17,17,17,16,17,17,17,17,17]","55","600","250","false","20","20","black","1","false","1","1","1200","660","response","j","no","other",""
"","","","","","html-keyboard-response","156","8043457","0.0-5.0-1.0-0.0-3.0-0.0-0.0-1.0-0.37","null","fixation","null","<p style='font-size: 48px; color: white'>+</p >","","","","","","","","","","","","","","","","","","","","","","","","","","","","","","","","","","","","","","","","","","","","","","",""
"","","","","","rdk","157","8045434","0.0-5.0-1.0-0.0-3.0-0.0-0.0-1.0-1.37","975","match_RDK","f","","true","[""f"",""j""]","[""f""]","3000","true","2","[80,20]","1","0","0","0","5","1","-1","3","500","500","hsla(225, 50%, 50%, 70%)","hsla(0, 50%, 50%, 70%)","[""hsla(0, 50%, 50%, 70%)"",""hsla(225, 50%, 50%, 70%)""]","10","11","circle","black","3","2","2","16.82758620689655","[11,17,17,17,17,17,17,16,17,17,17,17,17,17,17,17,17,17,17,17,17,17,17,17,17,17,17,17,17,17,17,17,17,17,17,17,16,17,17,17,16,17,17,17,17,17,17,17,17,17,17,16,17,17,17,17,17,17]","58","600","250","false","20","20","black","1","false","1","1","1200","660","response","f","yes","self",""
"","","","","","html-keyboard-response","158","8046457","0.0-5.0-1.0-0.0-3.0-0.0-0.0-1.0-0.38","null","fixation","null","<p style='font-size: 48px; color: white'>+</p >","","","","","","","","","","","","","","","","","","","","","","","","","","","","","","","","","","","","","","","","","","","","","","",""
"","","","","","rdk","159","8048155","0.0-5.0-1.0-0.0-3.0-0.0-0.0-1.0-1.38","680","match_RDK","j","","false","[""f"",""j""]","[""f""]","3000","true","2","[80,20]","1","0","0","0","5","1","-1","3","500","500","hsla(225, 50%, 50%, 70%)","hsla(0, 50%, 50%, 70%)","[""hsla(225, 50%, 50%, 70%)"",""hsla(0, 50%, 50%, 70%)""]","10","11","circle","black","3","2","2","16.725","[12,17,17,17,17,17,17,17,16,17,17,17,17,17,17,17,16,17,17,17,17,17,16,17,17,17,17,17,17,16,17,17,17,16,17,17,17,17,16,17]","40","600","250","false","20","20","black","1","false","1","1","1200","660","response","f","yes","other",""
"","","","","","html-keyboard-response","160","8049174","0.0-5.0-1.0-0.0-3.0-0.0-0.0-1.0-0.39","null","fixation","null","<p style='font-size: 48px; color: white'>+</p >","","","","","","","","","","","","","","","","","","","","","","","","","","","","","","","","","","","","","","","","","","","","","","",""
"","","","","","rdk","161","8051018","0.0-5.0-1.0-0.0-3.0-0.0-0.0-1.0-1.39","842","match_RDK","j","","true","[""f"",""j""]","[""j""]","3000","true","2","[20,80]","1","0","0","0","5","1","-1","3","500","500","hsla(225, 50%, 50%, 70%)","hsla(0, 50%, 50%, 70%)","[""hsla(0, 50%, 50%, 70%)"",""hsla(225, 50%, 50%, 70%)""]","10","11","circle","black","3","2","2","16.84","[12,17,17,17,17,17,16,17,17,17,17,17,17,17,17,16,17,17,17,17,17,17,17,17,17,17,17,17,17,17,17,17,17,17,17,17,17,17,16,17,17,17,17,17,17,17,17,17,17,17]","50","600","250","false","20","20","black","1","false","1","1","1200","660","response","j","no","self",""
"","","","","","html-keyboard-response","162","8054541","0.0-5.0-1.0-0.0-3.0-0.0-0.0-2.0","null","","null","<p style='font-size: 35px; color: white'>这组测试中，您正确回答了： 90% 的试次。平均反应时为：978毫秒。</p>","","","","","","","","","","","","","","","","","","","","","","","","","","","","","","","","","","","","","","","","","","","","","","",""
"","","","","","html-keyboard-response","163","8062122","0.0-5.0-1.0-0.0-3.0-0.0-0.0-3.0","6564","instruction_rest"," ","
    <div style=""text-align: center; color: white; padding: 35px; font-size: 35px"">
      <p>请休息一下，若准备好可按空格键继续</p >
    </div>
    ","","","","","","","","","","","","","","","","","","","","","","","","","","","","","","","","","","","","","","","","","","","","","","",""
"","","","","","html-keyboard-response","164","8063641","0.0-5.0-1.0-0.0-3.0-0.0-0.0-4.0-0.0","null","fixation","null","<p style='font-size: 48px; color: white'>+</p >","","","","","","","","","","","","","","","","","","","","","","","","","","","","","","","","","","","","","","","","","","","","","","",""
"","","","","","rdk","165","8065594","0.0-5.0-1.0-0.0-3.0-0.0-0.0-4.0-1.0","950","match_RDK","f","","true","[""f"",""j""]","[""f""]","3000","true","2","[80,20]","1","0","0","0","5","1","-1","3","500","500","hsla(225, 50%, 50%, 70%)","hsla(0, 50%, 50%, 70%)","[""hsla(0, 50%, 50%, 70%)"",""hsla(225, 50%, 50%, 70%)""]","10","11","circle","black","3","2","2","16.596491228070175","[10,17,16,17,17,17,17,17,17,17,17,17,17,17,17,17,17,16,17,16,17,17,16,17,16,17,17,17,16,17,17,16,16,17,17,17,16,17,17,17,16,17,17,16,17,17,16,17,16,17,16,17,17,17,16,17,16]","57","600","250","false","20","20","black","1","false","1","1","1200","660","response","f","yes","self",""
"","","","","","html-keyboard-response","166","8066624","0.0-5.0-1.0-0.0-3.0-0.0-0.0-4.0-0.1","null","fixation","null","<p style='font-size: 48px; color: white'>+</p >","","","","","","","","","","","","","","","","","","","","","","","","","","","","","","","","","","","","","","","","","","","","","","",""
"","","","","","rdk","167","8068539","0.0-5.0-1.0-0.0-3.0-0.0-0.0-4.0-1.1","912","match_RDK","f","","true","[""f"",""j""]","[""f""]","3000","true","2","[80,20]","1","0","0","0","5","1","-1","3","500","500","hsla(225, 50%, 50%, 70%)","hsla(0, 50%, 50%, 70%)","[""hsla(225, 50%, 50%, 70%)"",""hsla(0, 50%, 50%, 70%)""]","10","11","circle","black","3","2","2","16.685185185185187","[10,18,17,17,17,16,17,17,17,17,17,17,17,16,17,17,17,17,16,17,16,17,17,17,17,16,17,17,17,17,17,17,17,17,17,16,17,16,17,17,16,17,17,17,17,16,17,17,17,16,17,17,16,17]","54","600","250","false","20","20","black","1","false","1","1","1200","660","response","f","yes","other",""
"","","","","","html-keyboard-response","168","8069557","0.0-5.0-1.0-0.0-3.0-0.0-0.0-4.0-0.2","null","fixation","null","<p style='font-size: 48px; color: white'>+</p >","","","","","","","","","","","","","","","","","","","","","","","","","","","","","","","","","","","","","","","","","","","","","","",""
"","","","","","rdk","169","8071546","0.0-5.0-1.0-0.0-3.0-0.0-0.0-4.0-1.2","971","match_RDK","f","","false","[""f"",""j""]","[""j""]","3000","true","2","[20,80]","1","0","0","0","5","1","-1","3","500","500","hsla(225, 50%, 50%, 70%)","hsla(0, 50%, 50%, 70%)","[""hsla(0, 50%, 50%, 70%)"",""hsla(225, 50%, 50%, 70%)""]","10","11","circle","black","3","2","2","16.913793103448278","[12,17,17,17,17,17,17,17,17,17,17,17,17,17,17,17,17,17,17,17,17,17,17,17,17,17,17,17,17,17,17,17,17,17,17,17,17,17,17,17,17,17,17,17,17,17,17,17,17,17,17,17,17,17,17,17,17,17]","58","600","250","false","20","20","black","1","false","1","1","1200","660","response","j","no","self",""
"","","","","","html-keyboard-response","170","8072574","0.0-5.0-1.0-0.0-3.0-0.0-0.0-4.0-0.3","null","fixation","null","<p style='font-size: 48px; color: white'>+</p >","","","","","","","","","","","","","","","","","","","","","","","","","","","","","","","","","","","","","","","","","","","","","","",""
"","","","","","rdk","171","8074362","0.0-5.0-1.0-0.0-3.0-0.0-0.0-4.0-1.3","785","match_RDK","j","","true","[""f"",""j""]","[""j""]","3000","true","2","[80,20]","1","0","0","0","5","1","-1","3","500","500","hsla(225, 50%, 50%, 70%)","hsla(0, 50%, 50%, 70%)","[""hsla(0, 50%, 50%, 70%)"",""hsla(225, 50%, 50%, 70%)""]","10","11","circle","black","3","2","2","16.78723404255319","[10,17,17,17,17,16,17,17,17,17,17,17,17,17,17,17,17,17,17,17,17,17,16,17,17,17,17,17,17,17,17,17,17,17,17,17,17,17,17,17,17,17,17,17,16,17,17]","47","600","250","false","20","20","black","1","false","1","1","1200","660","response","j","no","other",""
"","","","","","html-keyboard-response","172","8075390","0.0-5.0-1.0-0.0-3.0-0.0-0.0-4.0-0.4","null","fixation","null","<p style='font-size: 48px; color: white'>+</p >","","","","","","","","","","","","","","","","","","","","","","","","","","","","","","","","","","","","","","","","","","","","","","",""
"","","","","","rdk","173","8077324","0.0-5.0-1.0-0.0-3.0-0.0-0.0-4.0-1.4","931","match_RDK","f","","true","[""f"",""j""]","[""f""]","3000","true","2","[80,20]","1","0","0","0","5","1","-1","3","500","500","hsla(225, 50%, 50%, 70%)","hsla(0, 50%, 50%, 70%)","[""hsla(225, 50%, 50%, 70%)"",""hsla(0, 50%, 50%, 70%)""]","10","11","circle","black","3","2","2","16.821428571428573","[12,17,16,17,17,17,17,16,17,17,17,17,17,17,17,17,17,17,17,17,16,17,17,17,17,17,17,17,17,17,17,17,17,17,16,17,17,17,17,17,17,17,17,16,17,17,17,17,17,17,17,17,17,16,17,18]","56","600","250","false","20","20","black","1","false","1","1","1200","660","response","f","yes","other",""
"","","","","","html-keyboard-response","174","8078341","0.0-5.0-1.0-0.0-3.0-0.0-0.0-4.0-0.5","null","fixation","null","<p style='font-size: 48px; color: white'>+</p >","","","","","","","","","","","","","","","","","","","","","","","","","","","","","","","","","","","","","","","","","","","","","","",""
"","","","","","rdk","175","8080186","0.0-5.0-1.0-0.0-3.0-0.0-0.0-4.0-1.5","843","match_RDK","f","","true","[""f"",""j""]","[""f""]","3000","true","2","[80,20]","1","0","0","0","5","1","-1","3","500","500","hsla(225, 50%, 50%, 70%)","hsla(0, 50%, 50%, 70%)","[""hsla(0, 50%, 50%, 70%)"",""hsla(225, 50%, 50%, 70%)""]","10","11","circle","black","3","2","2","16.68","[10,17,17,17,17,17,17,17,17,17,16,17,17,17,17,16,17,17,17,17,16,16,17,17,17,17,17,17,17,16,17,16,17,17,17,17,17,17,17,16,17,17,17,17,17,16,17,17,16,17]","50","600","250","false","20","20","black","1","false","1","1","1200","660","response","f","yes","self",""
"","","","","","html-keyboard-response","176","8081208","0.0-5.0-1.0-0.0-3.0-0.0-0.0-4.0-0.6","null","fixation","null","<p style='font-size: 48px; color: white'>+</p >","","","","","","","","","","","","","","","","","","","","","","","","","","","","","","","","","","","","","","","","","","","","","","",""
"","","","","","rdk","177","8082939","0.0-5.0-1.0-0.0-3.0-0.0-0.0-4.0-1.6","725","match_RDK","j","","true","[""f"",""j""]","[""j""]","3000","true","2","[20,80]","1","0","0","0","5","1","-1","3","500","500","hsla(225, 50%, 50%, 70%)","hsla(0, 50%, 50%, 70%)","[""hsla(0, 50%, 50%, 70%)"",""hsla(225, 50%, 50%, 70%)""]","10","11","circle","black","3","2","2","16.6046511627907","[7,17,17,17,17,16,17,17,17,17,17,16,17,17,16,17,17,16,17,17,17,17,17,17,17,17,17,17,17,17,17,16,17,17,17,17,16,17,17,16,17,17,17]","43","600","250","false","20","20","black","1","false","1","1","1200","660","response","j","no","self",""
"","","","","","html-keyboard-response","178","8083957","0.0-5.0-1.0-0.0-3.0-0.0-0.0-4.0-0.7","null","fixation","null","<p style='font-size: 48px; color: white'>+</p >","","","","","","","","","","","","","","","","","","","","","","","","","","","","","","","","","","","","","","","","","","","","","","",""
"","","","","","rdk","179","8085898","0.0-5.0-1.0-0.0-3.0-0.0-0.0-4.0-1.7","928","match_RDK","f","","false","[""f"",""j""]","[""j""]","3000","true","2","[80,20]","1","0","0","0","5","1","-1","3","500","500","hsla(225, 50%, 50%, 70%)","hsla(0, 50%, 50%, 70%)","[""hsla(0, 50%, 50%, 70%)"",""hsla(225, 50%, 50%, 70%)""]","10","11","circle","black","3","2","2","16.553571428571427","[2,15,17,16,17,17,17,17,17,17,17,17,17,17,16,17,17,17,17,17,17,17,17,16,17,16,16,17,17,16,17,17,17,16,17,17,17,17,16,17,17,17,17,17,17,17,17,17,17,17,17,17,17,17,17,17]","56","600","250","false","20","20","black","1","false","1","1","1200","660","response","j","no","other",""
"","","","","","html-keyboard-response","180","8086925","0.0-5.0-1.0-0.0-3.0-0.0-0.0-4.0-0.8","null","fixation","null","<p style='font-size: 48px; color: white'>+</p >","","","","","","","","","","","","","","","","","","","","","","","","","","","","","","","","","","","","","","","","","","","","","","",""
"","","","","","rdk","181","8089018","0.0-5.0-1.0-0.0-3.0-0.0-0.0-4.0-1.8","1076","match_RDK","f","","true","[""f"",""j""]","[""f""]","3000","true","2","[80,20]","1","0","0","0","5","1","-1","3","500","500","hsla(225, 50%, 50%, 70%)","hsla(0, 50%, 50%, 70%)","[""hsla(225, 50%, 50%, 70%)"",""hsla(0, 50%, 50%, 70%)""]","10","11","circle","black","3","2","2","16.75","[11,17,17,17,17,17,17,17,17,17,17,17,16,17,17,16,17,17,17,16,17,16,17,16,17,17,17,16,17,16,16,17,17,17,17,17,17,17,17,17,17,17,17,17,17,16,17,17,17,17,17,16,17,17,17,17,17,17,17,17,17,17,17,17]","64","600","250","false","20","20","black","1","false","1","1","1200","660","response","f","yes","other",""
"","","","","","html-keyboard-response","182","8090041","0.0-5.0-1.0-0.0-3.0-0.0-0.0-4.0-0.9","null","fixation","null","<p style='font-size: 48px; color: white'>+</p >","","","","","","","","","","","","","","","","","","","","","","","","","","","","","","","","","","","","","","","","","","","","","","",""
"","","","","","rdk","183","8092218","0.0-5.0-1.0-0.0-3.0-0.0-0.0-4.0-1.9","1175","match_RDK","j","","true","[""f"",""j""]","[""j""]","3000","true","2","[20,80]","1","0","0","0","5","1","-1","3","500","500","hsla(225, 50%, 50%, 70%)","hsla(0, 50%, 50%, 70%)","[""hsla(0, 50%, 50%, 70%)"",""hsla(225, 50%, 50%, 70%)""]","10","11","circle","black","3","2","2","16.814285714285713","[10,17,16,17,17,17,17,17,17,17,17,16,17,17,17,17,17,17,17,17,17,16,17,17,17,17,18,17,17,17,17,17,17,17,17,17,17,17,17,17,16,17,17,17,17,16,17,17,17,17,17,17,17,17,17,17,17,17,17,17,17,16,17,17,17,17,17,17,16,17]","70","600","250","false","20","20","black","1","false","1","1","1200","660","response","j","no","self",""
"","","","","","html-keyboard-response","184","8093241","0.0-5.0-1.0-0.0-3.0-0.0-0.0-4.0-0.10","null","fixation","null","<p style='font-size: 48px; color: white'>+</p >","","","","","","","","","","","","","","","","","","","","","","","","","","","","","","","","","","","","","","","","","","","","","","",""
"","","","","","rdk","185","8095402","0.0-5.0-1.0-0.0-3.0-0.0-0.0-4.0-1.10","1144","match_RDK","j","","true","[""f"",""j""]","[""j""]","3000","true","2","[80,20]","1","0","0","0","5","1","-1","3","500","500","hsla(225, 50%, 50%, 70%)","hsla(0, 50%, 50%, 70%)","[""hsla(0, 50%, 50%, 70%)"",""hsla(225, 50%, 50%, 70%)""]","10","11","circle","black","3","2","2","16.808823529411764","[12,17,17,17,17,17,17,17,17,17,17,17,17,17,16,17,17,17,17,17,17,17,17,17,17,17,17,17,17,17,17,17,16,17,17,17,17,17,16,17,16,17,17,17,17,17,17,17,16,17,17,17,17,17,16,17,17,16,17,17,17,16,17,17,17,17,17,17]","68","600","250","false","20","20","black","1","false","1","1","1200","660","response","j","no","other",""
"","","","","","html-keyboard-response","186","8096424","0.0-5.0-1.0-0.0-3.0-0.0-0.0-4.0-0.11","null","fixation","null","<p style='font-size: 48px; color: white'>+</p >","","","","","","","","","","","","","","","","","","","","","","","","","","","","","","","","","","","","","","","","","","","","","","",""
"","","","","","rdk","187","8098202","0.0-5.0-1.0-0.0-3.0-0.0-0.0-4.0-1.11","776","match_RDK","f","","true","[""f"",""j""]","[""f""]","3000","true","2","[80,20]","1","0","0","0","5","1","-1","3","500","500","hsla(225, 50%, 50%, 70%)","hsla(0, 50%, 50%, 70%)","[""hsla(0, 50%, 50%, 70%)"",""hsla(225, 50%, 50%, 70%)""]","10","11","circle","black","3","2","2","16.695652173913043","[10,17,16,17,17,17,17,17,17,17,17,16,17,17,17,17,16,17,17,17,17,17,17,16,17,17,17,16,17,17,17,17,17,17,17,17,17,17,16,17,17,17,16,17,17,17]","46","600","250","false","20","20","black","1","false","1","1","1200","660","response","f","yes","self",""
"","","","","","html-keyboard-response","188","8099225","0.0-5.0-1.0-0.0-3.0-0.0-0.0-4.0-0.12","null","fixation","null","<p style='font-size: 48px; color: white'>+</p >","","","","","","","","","","","","","","","","","","","","","","","","","","","","","","","","","","","","","","","","","","","","","","",""
"","","","","","rdk","189","8101626","0.0-5.0-1.0-0.0-3.0-0.0-0.0-4.0-1.12","1400","match_RDK","f","","true","[""f"",""j""]","[""f""]","3000","true","2","[80,20]","1","0","0","0","5","1","-1","3","500","500","hsla(225, 50%, 50%, 70%)","hsla(0, 50%, 50%, 70%)","[""hsla(225, 50%, 50%, 70%)"",""hsla(0, 50%, 50%, 70%)""]","10","11","circle","black","3","2","2","16.833333333333332","[11,17,17,17,17,17,17,17,17,17,16,17,17,17,17,17,16,17,17,17,17,17,17,17,17,17,17,17,17,17,17,17,17,17,17,17,17,17,17,16,17,17,17,16,17,17,17,16,17,17,17,17,17,17,17,17,17,17,17,17,17,17,17,17,17,17,17,17,17,17,16,17,17,16,17,17,17,17,16,17,17,17,17,17]","84","600","250","false","20","20","black","1","false","1","1","1200","660","response","f","yes","other",""
"","","","","","html-keyboard-response","190","8102657","0.0-5.0-1.0-0.0-3.0-0.0-0.0-4.0-0.13","null","fixation","null","<p style='font-size: 48px; color: white'>+</p >","","","","","","","","","","","","","","","","","","","","","","","","","","","","","","","","","","","","","","","","","","","","","","",""
"","","","","","rdk","191","8105179","0.0-5.0-1.0-0.0-3.0-0.0-0.0-4.0-1.13","1504","match_RDK","j","","true","[""f"",""j""]","[""j""]","3000","true","2","[80,20]","1","0","0","0","5","1","-1","3","500","500","hsla(225, 50%, 50%, 70%)","hsla(0, 50%, 50%, 70%)","[""hsla(0, 50%, 50%, 70%)"",""hsla(225, 50%, 50%, 70%)""]","10","11","circle","black","3","2","2","16.877777777777776","[12,17,17,17,17,17,17,16,17,17,17,17,17,17,17,17,17,16,17,17,17,17,17,17,17,17,17,17,17,17,17,17,17,17,17,16,17,17,17,17,17,17,17,17,17,17,17,17,17,17,17,17,16,17,17,17,17,17,17,17,17,17,16,17,17,17,17,17,17,17,17,16,17,17,17,17,17,17,17,17,17,17,17,17,17,17,17,17,17,17]","90","600","250","false","20","20","black","1","false","1","1","1200","660","response","j","no","other",""
"","","","","","html-keyboard-response","192","8106207","0.0-5.0-1.0-0.0-3.0-0.0-0.0-4.0-0.14","null","fixation","null","<p style='font-size: 48px; color: white'>+</p >","","","","","","","","","","","","","","","","","","","","","","","","","","","","","","","","","","","","","","","","","","","","","","",""
"","","","","","rdk","193","8108570","0.0-5.0-1.0-0.0-3.0-0.0-0.0-4.0-1.14","1360","match_RDK","f","","true","[""f"",""j""]","[""f""]","3000","true","2","[80,20]","1","0","0","0","5","1","-1","3","500","500","hsla(225, 50%, 50%, 70%)","hsla(0, 50%, 50%, 70%)","[""hsla(0, 50%, 50%, 70%)"",""hsla(225, 50%, 50%, 70%)""]","10","11","circle","black","3","2","2","16.839506172839506","[11,17,17,17,17,17,17,17,17,16,17,17,17,17,17,17,17,17,17,17,16,17,17,17,17,17,17,17,17,17,17,17,16,17,17,16,17,17,16,17,16,17,17,17,17,17,17,17,17,17,17,17,17,17,17,17,17,17,17,17,17,17,17,17,17,17,17,17,17,17,17,17,17,16,17,17,17,17,17,17,17]","81","600","250","false","20","20","black","1","false","1","1","1200","660","response","f","yes","self",""
"","","","","","html-keyboard-response","194","8109590","0.0-5.0-1.0-0.0-3.0-0.0-0.0-4.0-0.15","null","fixation","null","<p style='font-size: 48px; color: white'>+</p >","","","","","","","","","","","","","","","","","","","","","","","","","","","","","","","","","","","","","","","","","","","","","","",""
"","","","","","rdk","195","8111674","0.0-5.0-1.0-0.0-3.0-0.0-0.0-4.0-1.15","1075","match_RDK","j","","true","[""f"",""j""]","[""j""]","3000","true","2","[20,80]","1","0","0","0","5","1","-1","3","500","500","hsla(225, 50%, 50%, 70%)","hsla(0, 50%, 50%, 70%)","[""hsla(0, 50%, 50%, 70%)"",""hsla(225, 50%, 50%, 70%)""]","10","11","circle","black","3","2","2","16.70769230769231","[6,17,17,17,17,17,17,17,17,17,17,16,17,17,17,17,16,17,17,17,17,17,16,17,17,17,17,17,17,17,17,17,17,17,17,17,17,16,17,17,17,17,16,17,17,17,17,16,17,16,17,17,17,17,17,16,17,17,17,17,17,17,17,17,17]","65","600","250","false","20","20","black","1","false","1","1","1200","660","response","j","no","self",""
"","","","","","html-keyboard-response","196","8112691","0.0-5.0-1.0-0.0-3.0-0.0-0.0-4.0-0.16","null","fixation","null","<p style='font-size: 48px; color: white'>+</p >","","","","","","","","","","","","","","","","","","","","","","","","","","","","","","","","","","","","","","","","","","","","","","",""
"","","","","","rdk","197","8114650","0.0-5.0-1.0-0.0-3.0-0.0-0.0-4.0-1.16","956","match_RDK","f","","true","[""f"",""j""]","[""f""]","3000","true","2","[80,20]","1","0","0","0","5","1","-1","3","500","500","hsla(225, 50%, 50%, 70%)","hsla(0, 50%, 50%, 70%)","[""hsla(0, 50%, 50%, 70%)"",""hsla(225, 50%, 50%, 70%)""]","10","11","circle","black","3","2","2","16.666666666666668","[10,17,17,17,17,17,17,17,17,17,17,16,17,17,17,17,16,16,17,17,16,17,17,17,17,17,17,17,17,17,17,17,16,17,17,16,17,17,17,16,17,17,16,16,17,17,17,16,17,17,17,17,16,16,17,17,17]","57","600","250","false","20","20","black","1","false","1","1","1200","660","response","f","yes","self",""
"","","","","","html-keyboard-response","198","8115674","0.0-5.0-1.0-0.0-3.0-0.0-0.0-4.0-0.17","null","fixation","null","<p style='font-size: 48px; color: white'>+</p >","","","","","","","","","","","","","","","","","","","","","","","","","","","","","","","","","","","","","","","","","","","","","","",""
"","","","","","rdk","199","8117754","0.0-5.0-1.0-0.0-3.0-0.0-0.0-4.0-1.17","1078","match_RDK","j","","true","[""f"",""j""]","[""j""]","3000","true","2","[80,20]","1","0","0","0","5","1","-1","3","500","500","hsla(225, 50%, 50%, 70%)","hsla(0, 50%, 50%, 70%)","[""hsla(0, 50%, 50%, 70%)"",""hsla(225, 50%, 50%, 70%)""]","10","11","circle","black","3","2","2","16.75","[11,17,17,17,16,17,17,17,17,17,17,17,17,17,17,17,17,16,17,17,17,16,17,17,17,17,17,17,17,17,17,17,17,16,17,17,17,17,17,17,16,17,16,17,17,17,17,17,17,17,17,16,17,17,16,17,17,17,16,17,17,17,17,16]","64","600","250","false","20","20","black","1","false","1","1","1200","660","response","j","no","other",""
"","","","","","html-keyboard-response","200","8118775","0.0-5.0-1.0-0.0-3.0-0.0-0.0-4.0-0.18","null","fixation","null","<p style='font-size: 48px; color: white'>+</p >","","","","","","","","","","","","","","","","","","","","","","","","","","","","","","","","","","","","","","","","","","","","","","",""
"","","","","","rdk","201","8121050","0.0-5.0-1.0-0.0-3.0-0.0-0.0-4.0-1.18","1270","match_RDK","j","","true","[""f"",""j""]","[""j""]","3000","true","2","[20,80]","1","0","0","0","5","1","-1","3","500","500","hsla(225, 50%, 50%, 70%)","hsla(0, 50%, 50%, 70%)","[""hsla(0, 50%, 50%, 70%)"",""hsla(225, 50%, 50%, 70%)""]","10","11","circle","black","3","2","2","16.710526315789473","[7,17,17,16,17,18,17,17,17,17,17,17,17,17,17,17,16,17,17,17,17,17,17,16,17,17,17,17,17,17,16,17,17,17,16,17,17,17,17,17,17,16,17,17,17,17,17,17,16,17,16,17,16,17,17,17,17,17,17,16,16,17,17,17,17,17,17,17,17,17,17,16,17,17,16,17]","76","600","250","false","20","20","black","1","false","1","1","1200","660","response","j","no","self",""
"","","","","","html-keyboard-response","202","8122074","0.0-5.0-1.0-0.0-3.0-0.0-0.0-4.0-0.19","null","fixation","null","<p style='font-size: 48px; color: white'>+</p >","","","","","","","","","","","","","","","","","","","","","","","","","","","","","","","","","","","","","","","","","","","","","","",""
"","","","","","rdk","203","8124009","0.0-5.0-1.0-0.0-3.0-0.0-0.0-4.0-1.19","933","match_RDK","f","","true","[""f"",""j""]","[""f""]","3000","true","2","[80,20]","1","0","0","0","5","1","-1","3","500","500","hsla(225, 50%, 50%, 70%)","hsla(0, 50%, 50%, 70%)","[""hsla(225, 50%, 50%, 70%)"",""hsla(0, 50%, 50%, 70%)""]","10","11","circle","black","3","2","2","16.696428571428573","[11,17,17,17,17,17,17,17,17,17,17,17,17,17,16,17,17,17,17,16,17,17,17,16,17,16,17,17,17,17,17,17,17,16,16,17,17,17,17,17,17,17,17,16,17,16,17,16,17,17,16,17,17,17,16,17]","56","600","250","false","20","20","black","1","false","1","1","1200","660","response","f","yes","other",""
"","","","","","html-keyboard-response","204","8125025","0.0-5.0-1.0-0.0-3.0-0.0-0.0-4.0-0.20","null","fixation","null","<p style='font-size: 48px; color: white'>+</p >","","","","","","","","","","","","","","","","","","","","","","","","","","","","","","","","","","","","","","","","","","","","","","",""
"","","","","","rdk","205","8127066","0.0-5.0-1.0-0.0-3.0-0.0-0.0-4.0-1.20","1039","match_RDK","j","","true","[""f"",""j""]","[""j""]","3000","true","2","[80,20]","1","0","0","0","5","1","-1","3","500","500","hsla(225, 50%, 50%, 70%)","hsla(0, 50%, 50%, 70%)","[""hsla(0, 50%, 50%, 70%)"",""hsla(225, 50%, 50%, 70%)""]","10","11","circle","black","3","2","2","16.725806451612904","[10,16,17,17,17,17,17,17,17,17,17,17,17,16,17,16,17,16,17,17,17,16,17,17,17,17,17,17,17,17,16,17,17,16,17,17,17,17,17,17,17,17,17,17,17,17,16,17,17,17,17,17,17,16,17,17,17,17,17,17,16,17]","62","600","250","false","20","20","black","1","false","1","1","1200","660","response","j","no","other",""
"","","","","","html-keyboard-response","206","8128091","0.0-5.0-1.0-0.0-3.0-0.0-0.0-4.0-0.21","null","fixation","null","<p style='font-size: 48px; color: white'>+</p >","","","","","","","","","","","","","","","","","","","","","","","","","","","","","","","","","","","","","","","","","","","","","","",""
