"success","rt","trial_type","trial_index","plugin_version","time_elapsed","subj_id","stimulus","response","trail_tag","task","ismatch","target","correct_key","correct","response_key"
"true","1262743","fullscreen","0","2.0.0","1263757","23","","","","","","","","",""
"","9675","html-keynbutton-response","1","2.0.0","1273434","23","
        <div class=""jp px-2 xxs:px-5 mx-auto"">
        <p class=""text-center text-red-600 text-[1.2em] pb-5"">欢迎您参加知觉
          <strong>匹配实验。</strong>
        </p>
        <p>接下来的任务中您将看到一排图形。</p>
        <p>(圆形●或方形■)</p><p>您需要专注于中间的图形，判断中间的图形和两侧的图形<strong>是否匹配</strong>。</p>
        <p>如果图形不匹配，请按“q”；</p>
        <p>如果图形匹配，请按“p”。</p>
        <p>请尽量又快又准地做出反应。</p>
      <p>请按空格键开始练习。</p>
      </div>"," ","","","","","","",""
"","null","html-keynbutton-response","2","2.0.0","1276643","23","<count-down title=""""></count-down>","null","countDown_trial","","","","","",""
"","null","html-keynbutton-response","3","2.0.0","1277146","23","<div class=""pb-14 text-7xl"">+</div>","null","fixation","","","","","",""
"","1744","html-keynbutton-response","4","2.0.0","1278891","23","<div class=""flex flex-row stim-length pb-8 md:pd-20 justify-evenly items-center""><div class=""square""></div><div class=""circle""></div><div class=""square""></div></div>","q","","matchness_practice","mismatch","圆","q","true","mismatch"
"","null","html-keynbutton-response","5","2.0.0","1279398","23","<span class='text-yellow-500 text-4xl md:text-5xl lg:text-6xl'>太慢!</span>","null","trial_feedback","","","","","",""
"","null","html-keynbutton-response","6","2.0.0","1279912","23","<div class=""pb-14 text-7xl"">+</div>","null","fixation","","","","","",""
"","801","html-keynbutton-response","7","2.0.0","1280715","23","<div class=""flex flex-row stim-length pb-8 md:pd-20 justify-evenly items-center""><div class=""square""></div><div class=""square""></div><div class=""square""></div></div>","q","","matchness_practice","match","方","p","false","mismatch"
"","null","html-keynbutton-response","8","2.0.0","1281228","23","<span class='text-red-500 text-4xl md:text-5xl lg:text-6xl'>错误!</span>","null","trial_feedback","","","","","",""
"","null","html-keynbutton-response","9","2.0.0","1281744","23","<div class=""pb-14 text-7xl"">+</div>","null","fixation","","","","","",""
"","666","html-keynbutton-response","10","2.0.0","1282411","23","<div class=""flex flex-row stim-length pb-8 md:pd-20 justify-evenly items-center""><div class=""circle""></div><div class=""square""></div><div class=""circle""></div></div>","p","","matchness_practice","mismatch","方","q","false","match"
"","null","html-keynbutton-response","11","2.0.0","1282912","23","<span class='text-red-500 text-4xl md:text-5xl lg:text-6xl'>错误!</span>","null","trial_feedback","","","","","",""
"","null","html-keynbutton-response","12","2.0.0","1283428","23","<div class=""pb-14 text-7xl"">+</div>","null","fixation","","","","","",""
"","597","html-keynbutton-response","13","2.0.0","1284027","23","<div class=""flex flex-row stim-length pb-8 md:pd-20 justify-evenly items-center""><div class=""circle""></div><div class=""circle""></div><div class=""circle""></div></div>","q","","matchness_practice","match","圆","p","false","mismatch"
"","null","html-keynbutton-response","14","2.0.0","1284529","23","<span class='text-red-500 text-4xl md:text-5xl lg:text-6xl'>错误!</span>","null","trial_feedback","","","","","",""
"","null","html-keynbutton-response","15","2.0.0","1285045","23","<div class=""pb-14 text-7xl"">+</div>","null","fixation","","","","","",""
"","837","html-keynbutton-response","16","2.0.0","1285883","23","<div class=""flex flex-row stim-length pb-8 md:pd-20 justify-evenly items-center""><div class=""circle""></div><div class=""circle""></div><div class=""circle""></div></div>","q","","matchness_practice","match","圆","p","false","mismatch"
"","null","html-keynbutton-response","17","2.0.0","1286395","23","<span class='text-red-500 text-4xl md:text-5xl lg:text-6xl'>错误!</span>","null","trial_feedback","","","","","",""
"","null","html-keynbutton-response","18","2.0.0","1286912","23","<div class=""pb-14 text-7xl"">+</div>","null","fixation","","","","","",""
"","682","html-keynbutton-response","19","2.0.0","1287595","23","<div class=""flex flex-row stim-length pb-8 md:pd-20 justify-evenly items-center""><div class=""square""></div><div class=""circle""></div><div class=""square""></div></div>","p","","matchness_practice","mismatch","圆","q","false","match"
"","null","html-keynbutton-response","20","2.0.0","1288096","23","<span class='text-red-500 text-4xl md:text-5xl lg:text-6xl'>错误!</span>","null","trial_feedback","","","","","",""
"","null","html-keynbutton-response","21","2.0.0","1288611","23","<div class=""pb-14 text-7xl"">+</div>","null","fixation","","","","","",""
"","710","html-keynbutton-response","22","2.0.0","1289323","23","<div class=""flex flex-row stim-length pb-8 md:pd-20 justify-evenly items-center""><div class=""circle""></div><div class=""square""></div><div class=""circle""></div></div>","q","","matchness_practice","mismatch","方","q","true","mismatch"
"","null","html-keynbutton-response","23","2.0.0","1289829","23","<span class='text-green-400 text-4xl md:text-5xl lg:text-6xl'>正确!</span>","null","trial_feedback","","","","","",""
"","null","html-keynbutton-response","24","2.0.0","1290345","23","<div class=""pb-14 text-7xl"">+</div>","null","fixation","","","","","",""
"","817","html-keynbutton-response","25","2.0.0","1291163","23","<div class=""flex flex-row stim-length pb-8 md:pd-20 justify-evenly items-center""><div class=""square""></div><div class=""square""></div><div class=""square""></div></div>","p","","matchness_practice","match","方","p","true","match"
"","null","html-keynbutton-response","26","2.0.0","1291679","23","<span class='text-green-400 text-4xl md:text-5xl lg:text-6xl'>正确!</span>","null","trial_feedback","","","","","",""
"","null","html-keynbutton-response","27","2.0.0","1292195","23","<div class=""pb-14 text-7xl"">+</div>","null","fixation","","","","","",""
"","695","html-keynbutton-response","28","2.0.0","1292891","23","<div class=""flex flex-row stim-length pb-8 md:pd-20 justify-evenly items-center""><div class=""square""></div><div class=""square""></div><div class=""square""></div></div>","p","","matchness_practice","match","方","p","true","match"
"","null","html-keynbutton-response","29","2.0.0","1293397","23","<span class='text-green-400 text-4xl md:text-5xl lg:text-6xl'>正确!</span>","null","trial_feedback","","","","","",""
"","null","html-keynbutton-response","30","2.0.0","1293912","23","<div class=""pb-14 text-7xl"">+</div>","null","fixation","","","","","",""
"","659","html-keynbutton-response","31","2.0.0","1294572","23","<div class=""flex flex-row stim-length pb-8 md:pd-20 justify-evenly items-center""><div class=""circle""></div><div class=""circle""></div><div class=""circle""></div></div>","q","","matchness_practice","match","圆","p","false","mismatch"
"","null","html-keynbutton-response","32","2.0.0","1295078","23","<span class='text-red-500 text-4xl md:text-5xl lg:text-6xl'>错误!</span>","null","trial_feedback","","","","","",""
"","null","html-keynbutton-response","33","2.0.0","1295579","23","<div class=""pb-14 text-7xl"">+</div>","null","fixation","","","","","",""
"","734","html-keynbutton-response","34","2.0.0","1296315","23","<div class=""flex flex-row stim-length pb-8 md:pd-20 justify-evenly items-center""><div class=""square""></div><div class=""circle""></div><div class=""square""></div></div>","q","","matchness_practice","mismatch","圆","q","true","mismatch"
"","null","html-keynbutton-response","35","2.0.0","1296828","23","<span class='text-green-400 text-4xl md:text-5xl lg:text-6xl'>正确!</span>","null","trial_feedback","","","","","",""
"","null","html-keynbutton-response","36","2.0.0","1297329","23","<div class=""pb-14 text-7xl"">+</div>","null","fixation","","","","","",""
"","649","html-keynbutton-response","37","2.0.0","1297979","23","<div class=""flex flex-row stim-length pb-8 md:pd-20 justify-evenly items-center""><div class=""circle""></div><div class=""square""></div><div class=""circle""></div></div>","p","","matchness_practice","mismatch","方","q","false","match"
"","null","html-keynbutton-response","38","2.0.0","1298495","23","<span class='text-red-500 text-4xl md:text-5xl lg:text-6xl'>错误!</span>","null","trial_feedback","","","","","",""
"","null","html-keynbutton-response","39","2.0.0","1298996","23","<div class=""pb-14 text-7xl"">+</div>","null","fixation","","","","","",""
"","902","html-keynbutton-response","40","2.0.0","1299899","23","<div class=""flex flex-row stim-length pb-8 md:pd-20 justify-evenly items-center""><div class=""square""></div><div class=""square""></div><div class=""square""></div></div>","q","","matchness_practice","match","方","p","false","mismatch"
"","null","html-keynbutton-response","41","2.0.0","1300412","23","<span class='text-red-500 text-4xl md:text-5xl lg:text-6xl'>错误!</span>","null","trial_feedback","","","","","",""
"","null","html-keynbutton-response","42","2.0.0","1300928","23","<div class=""pb-14 text-7xl"">+</div>","null","fixation","","","","","",""
"","793","html-keynbutton-response","43","2.0.0","1301723","23","<div class=""flex flex-row stim-length pb-8 md:pd-20 justify-evenly items-center""><div class=""circle""></div><div class=""square""></div><div class=""circle""></div></div>","q","","matchness_practice","mismatch","方","q","true","mismatch"
"","null","html-keynbutton-response","44","2.0.0","1302230","23","<span class='text-green-400 text-4xl md:text-5xl lg:text-6xl'>正确!</span>","null","trial_feedback","","","","","",""
"","null","html-keynbutton-response","45","2.0.0","1302745","23","<div class=""pb-14 text-7xl"">+</div>","null","fixation","","","","","",""
"","656","html-keynbutton-response","46","2.0.0","1303402","23","<div class=""flex flex-row stim-length pb-8 md:pd-20 justify-evenly items-center""><div class=""square""></div><div class=""circle""></div><div class=""square""></div></div>","q","","matchness_practice","mismatch","圆","q","true","mismatch"
"","null","html-keynbutton-response","47","2.0.0","1303912","23","<span class='text-green-400 text-4xl md:text-5xl lg:text-6xl'>正确!</span>","null","trial_feedback","","","","","",""
"","null","html-keynbutton-response","48","2.0.0","1304429","23","<div class=""pb-14 text-7xl"">+</div>","null","fixation","","","","","",""
"","557","html-keynbutton-response","49","2.0.0","1304987","23","<div class=""flex flex-row stim-length pb-8 md:pd-20 justify-evenly items-center""><div class=""circle""></div><div class=""circle""></div><div class=""circle""></div></div>","p","","matchness_practice","match","圆","p","true","match"
"","null","html-keynbutton-response","50","2.0.0","1305495","23","<span class='text-green-400 text-4xl md:text-5xl lg:text-6xl'>正确!</span>","null","trial_feedback","","","","","",""
"","null","html-keynbutton-response","51","2.0.0","1306011","23","<div class=""pb-14 text-7xl"">+</div>","null","fixation","","","","","",""
"","686","html-keynbutton-response","52","2.0.0","1306699","23","<div class=""flex flex-row stim-length pb-8 md:pd-20 justify-evenly items-center""><div class=""circle""></div><div class=""square""></div><div class=""circle""></div></div>","q","","matchness_practice","mismatch","方","q","true","mismatch"
"","null","html-keynbutton-response","53","2.0.0","1307214","23","<span class='text-green-400 text-4xl md:text-5xl lg:text-6xl'>正确!</span>","null","trial_feedback","","","","","",""
"","null","html-keynbutton-response","54","2.0.0","1307729","23","<div class=""pb-14 text-7xl"">+</div>","null","fixation","","","","","",""
"","377","html-keynbutton-response","55","2.0.0","1308107","23","<div class=""flex flex-row stim-length pb-8 md:pd-20 justify-evenly items-center""><div class=""circle""></div><div class=""circle""></div><div class=""circle""></div></div>","p","","matchness_practice","match","圆","p","true","match"
"","null","html-keynbutton-response","56","2.0.0","1308613","23","<span class='text-green-400 text-4xl md:text-5xl lg:text-6xl'>正确!</span>","null","trial_feedback","","","","","",""
"","null","html-keynbutton-response","57","2.0.0","1309129","23","<div class=""pb-14 text-7xl"">+</div>","null","fixation","","","","","",""
"","449","html-keynbutton-response","58","2.0.0","1309579","23","<div class=""flex flex-row stim-length pb-8 md:pd-20 justify-evenly items-center""><div class=""square""></div><div class=""circle""></div><div class=""square""></div></div>","q","","matchness_practice","mismatch","圆","q","true","mismatch"
"","null","html-keynbutton-response","59","2.0.0","1310095","23","<span class='text-green-400 text-4xl md:text-5xl lg:text-6xl'>正确!</span>","null","trial_feedback","","","","","",""
"","null","html-keynbutton-response","60","2.0.0","1310597","23","<div class=""pb-14 text-7xl"">+</div>","null","fixation","","","","","",""
"","404","html-keynbutton-response","61","2.0.0","1311002","23","<div class=""flex flex-row stim-length pb-8 md:pd-20 justify-evenly items-center""><div class=""square""></div><div class=""square""></div><div class=""square""></div></div>","p","","matchness_practice","match","方","p","true","match"
"","null","html-keynbutton-response","62","2.0.0","1311512","23","<span class='text-green-400 text-4xl md:text-5xl lg:text-6xl'>正确!</span>","null","trial_feedback","","","","","",""
"","1566","html-keynbutton-response","63","2.0.0","1313081","23","<div class=""jp""><p>您的正确率60%低于最低标准85%！</p><p>请重复进行练习</p><div>"," ","loop_feedback","","","","","",""
"","null","html-keynbutton-response","64","2.0.0","1316292","23","<count-down title=""""></count-down>","null","countDown_trial","","","","","",""
"","null","html-keynbutton-response","65","2.0.0","1316796","23","<div class=""pb-14 text-7xl"">+</div>","null","fixation","","","","","",""
"","574","html-keynbutton-response","66","2.0.0","1317371","23","<div class=""flex flex-row stim-length pb-8 md:pd-20 justify-evenly items-center""><div class=""square""></div><div class=""square""></div><div class=""square""></div></div>","q","","matchness_practice_1","match","方","p","false","mismatch"
"","null","html-keynbutton-response","67","2.0.0","1317878","23","<span class='text-red-500 text-4xl md:text-5xl lg:text-6xl'>错误!</span>","null","trial_feedback","","","","","",""
"","null","html-keynbutton-response","68","2.0.0","1318379","23","<div class=""pb-14 text-7xl"">+</div>","null","fixation","","","","","",""
"","655","html-keynbutton-response","69","2.0.0","1319035","23","<div class=""flex flex-row stim-length pb-8 md:pd-20 justify-evenly items-center""><div class=""circle""></div><div class=""circle""></div><div class=""circle""></div></div>","p","","matchness_practice_1","match","圆","p","true","match"
"","null","html-keynbutton-response","70","2.0.0","1319545","23","<span class='text-green-400 text-4xl md:text-5xl lg:text-6xl'>正确!</span>","null","trial_feedback","","","","","",""
"","null","html-keynbutton-response","71","2.0.0","1320047","23","<div class=""pb-14 text-7xl"">+</div>","null","fixation","","","","","",""
"","539","html-keynbutton-response","72","2.0.0","1320587","23","<div class=""flex flex-row stim-length pb-8 md:pd-20 justify-evenly items-center""><div class=""square""></div><div class=""circle""></div><div class=""square""></div></div>","q","","matchness_practice_1","mismatch","圆","q","true","mismatch"
"","null","html-keynbutton-response","73","2.0.0","1321095","23","<span class='text-green-400 text-4xl md:text-5xl lg:text-6xl'>正确!</span>","null","trial_feedback","","","","","",""
"","null","html-keynbutton-response","74","2.0.0","1321597","23","<div class=""pb-14 text-7xl"">+</div>","null","fixation","","","","","",""
"","461","html-keynbutton-response","75","2.0.0","1322059","23","<div class=""flex flex-row stim-length pb-8 md:pd-20 justify-evenly items-center""><div class=""circle""></div><div class=""square""></div><div class=""circle""></div></div>","p","","matchness_practice_1","mismatch","方","q","false","match"
"","null","html-keynbutton-response","76","2.0.0","1322563","23","<span class='text-red-500 text-4xl md:text-5xl lg:text-6xl'>错误!</span>","null","trial_feedback","","","","","",""
"","null","html-keynbutton-response","77","2.0.0","1323079","23","<div class=""pb-14 text-7xl"">+</div>","null","fixation","","","","","",""
"","964","html-keynbutton-response","78","2.0.0","1324043","23","<div class=""flex flex-row stim-length pb-8 md:pd-20 justify-evenly items-center""><div class=""square""></div><div class=""square""></div><div class=""square""></div></div>","p","","matchness_practice_1","match","方","p","true","match"
"","null","html-keynbutton-response","79","2.0.0","1324546","23","<span class='text-green-400 text-4xl md:text-5xl lg:text-6xl'>正确!</span>","null","trial_feedback","","","","","",""
"","null","html-keynbutton-response","80","2.0.0","1325047","23","<div class=""pb-14 text-7xl"">+</div>","null","fixation","","","","","",""
"","563","html-keynbutton-response","81","2.0.0","1325611","23","<div class=""flex flex-row stim-length pb-8 md:pd-20 justify-evenly items-center""><div class=""circle""></div><div class=""square""></div><div class=""circle""></div></div>","q","","matchness_practice_1","mismatch","方","q","true","mismatch"
"","null","html-keynbutton-response","82","2.0.0","1326113","23","<span class='text-green-400 text-4xl md:text-5xl lg:text-6xl'>正确!</span>","null","trial_feedback","","","","","",""
"","null","html-keynbutton-response","83","2.0.0","1326629","23","<div class=""pb-14 text-7xl"">+</div>","null","fixation","","","","","",""
"","597","html-keynbutton-response","84","2.0.0","1327227","23","<div class=""flex flex-row stim-length pb-8 md:pd-20 justify-evenly items-center""><div class=""square""></div><div class=""circle""></div><div class=""square""></div></div>","q","","matchness_practice_1","mismatch","圆","q","true","mismatch"
"","null","html-keynbutton-response","85","2.0.0","1327730","23","<span class='text-green-400 text-4xl md:text-5xl lg:text-6xl'>正确!</span>","null","trial_feedback","","","","","",""
"","null","html-keynbutton-response","86","2.0.0","1328245","23","<div class=""pb-14 text-7xl"">+</div>","null","fixation","","","","","",""
"","773","html-keynbutton-response","87","2.0.0","1329019","23","<div class=""flex flex-row stim-length pb-8 md:pd-20 justify-evenly items-center""><div class=""circle""></div><div class=""circle""></div><div class=""circle""></div></div>","p","","matchness_practice_1","match","圆","p","true","match"
"","null","html-keynbutton-response","88","2.0.0","1329528","23","<span class='text-green-400 text-4xl md:text-5xl lg:text-6xl'>正确!</span>","null","trial_feedback","","","","","",""
"","null","html-keynbutton-response","89","2.0.0","1330030","23","<div class=""pb-14 text-7xl"">+</div>","null","fixation","","","","","",""
"","604","html-keynbutton-response","90","2.0.0","1330635","23","<div class=""flex flex-row stim-length pb-8 md:pd-20 justify-evenly items-center""><div class=""square""></div><div class=""circle""></div><div class=""square""></div></div>","q","","matchness_practice_1","mismatch","圆","q","true","mismatch"
"","null","html-keynbutton-response","91","2.0.0","1331146","23","<span class='text-green-400 text-4xl md:text-5xl lg:text-6xl'>正确!</span>","null","trial_feedback","","","","","",""
"","null","html-keynbutton-response","92","2.0.0","1331647","23","<div class=""pb-14 text-7xl"">+</div>","null","fixation","","","","","",""
"","539","html-keynbutton-response","93","2.0.0","1332187","23","<div class=""flex flex-row stim-length pb-8 md:pd-20 justify-evenly items-center""><div class=""circle""></div><div class=""circle""></div><div class=""circle""></div></div>","p","","matchness_practice_1","match","圆","p","true","match"
"","null","html-keynbutton-response","94","2.0.0","1332701","23","<span class='text-green-400 text-4xl md:text-5xl lg:text-6xl'>正确!</span>","null","trial_feedback","","","","","",""
"","null","html-keynbutton-response","95","2.0.0","1333212","23","<div class=""pb-14 text-7xl"">+</div>","null","fixation","","","","","",""
"","478","html-keynbutton-response","96","2.0.0","1333691","23","<div class=""flex flex-row stim-length pb-8 md:pd-20 justify-evenly items-center""><div class=""circle""></div><div class=""square""></div><div class=""circle""></div></div>","p","","matchness_practice_1","mismatch","方","q","false","match"
"","null","html-keynbutton-response","97","2.0.0","1334197","23","<span class='text-red-500 text-4xl md:text-5xl lg:text-6xl'>错误!</span>","null","trial_feedback","","","","","",""
"","null","html-keynbutton-response","98","2.0.0","1334712","23","<div class=""pb-14 text-7xl"">+</div>","null","fixation","","","","","",""
"","498","html-keynbutton-response","99","2.0.0","1335211","23","<div class=""flex flex-row stim-length pb-8 md:pd-20 justify-evenly items-center""><div class=""square""></div><div class=""square""></div><div class=""square""></div></div>","p","","matchness_practice_1","match","方","p","true","match"
"","null","html-keynbutton-response","100","2.0.0","1335713","23","<span class='text-green-400 text-4xl md:text-5xl lg:text-6xl'>正确!</span>","null","trial_feedback","","","","","",""
"","null","html-keynbutton-response","101","2.0.0","1336229","23","<div class=""pb-14 text-7xl"">+</div>","null","fixation","","","","","",""
"","821","html-keynbutton-response","102","2.0.0","1337051","23","<div class=""flex flex-row stim-length pb-8 md:pd-20 justify-evenly items-center""><div class=""square""></div><div class=""square""></div><div class=""square""></div></div>","p","","matchness_practice_1","match","方","p","true","match"
"","null","html-keynbutton-response","103","2.0.0","1337561","23","<span class='text-green-400 text-4xl md:text-5xl lg:text-6xl'>正确!</span>","null","trial_feedback","","","","","",""
"","null","html-keynbutton-response","104","2.0.0","1338063","23","<div class=""pb-14 text-7xl"">+</div>","null","fixation","","","","","",""
"","522","html-keynbutton-response","105","2.0.0","1338586","23","<div class=""flex flex-row stim-length pb-8 md:pd-20 justify-evenly items-center""><div class=""square""></div><div class=""circle""></div><div class=""square""></div></div>","q","","matchness_practice_1","mismatch","圆","q","true","mismatch"
"","null","html-keynbutton-response","106","2.0.0","1339095","23","<span class='text-green-400 text-4xl md:text-5xl lg:text-6xl'>正确!</span>","null","trial_feedback","","","","","",""
"","null","html-keynbutton-response","107","2.0.0","1339596","23","<div class=""pb-14 text-7xl"">+</div>","null","fixation","","","","","",""
"","479","html-keynbutton-response","108","2.0.0","1340075","23","<div class=""flex flex-row stim-length pb-8 md:pd-20 justify-evenly items-center""><div class=""circle""></div><div class=""circle""></div><div class=""circle""></div></div>","p","","matchness_practice_1","match","圆","p","true","match"
"","null","html-keynbutton-response","109","2.0.0","1340580","23","<span class='text-green-400 text-4xl md:text-5xl lg:text-6xl'>正确!</span>","null","trial_feedback","","","","","",""
"","null","html-keynbutton-response","110","2.0.0","1341096","23","<div class=""pb-14 text-7xl"">+</div>","null","fixation","","","","","",""
"","402","html-keynbutton-response","111","2.0.0","1341499","23","<div class=""flex flex-row stim-length pb-8 md:pd-20 justify-evenly items-center""><div class=""circle""></div><div class=""square""></div><div class=""circle""></div></div>","q","","matchness_practice_1","mismatch","方","q","true","mismatch"
"","null","html-keynbutton-response","112","2.0.0","1342013","23","<span class='text-green-400 text-4xl md:text-5xl lg:text-6xl'>正确!</span>","null","trial_feedback","","","","","",""
"","null","html-keynbutton-response","113","2.0.0","1342529","23","<div class=""pb-14 text-7xl"">+</div>","null","fixation","","","","","",""
"","457","html-keynbutton-response","114","2.0.0","1342987","23","<div class=""flex flex-row stim-length pb-8 md:pd-20 justify-evenly items-center""><div class=""square""></div><div class=""circle""></div><div class=""square""></div></div>","q","","matchness_practice_1","mismatch","圆","q","true","mismatch"
"","null","html-keynbutton-response","115","2.0.0","1343494","23","<span class='text-green-400 text-4xl md:text-5xl lg:text-6xl'>正确!</span>","null","trial_feedback","","","","","",""
"","null","html-keynbutton-response","116","2.0.0","1343996","23","<div class=""pb-14 text-7xl"">+</div>","null","fixation","","","","","",""
"","446","html-keynbutton-response","117","2.0.0","1344443","23","<div class=""flex flex-row stim-length pb-8 md:pd-20 justify-evenly items-center""><div class=""square""></div><div class=""square""></div><div class=""square""></div></div>","p","","matchness_practice_1","match","方","p","true","match"
"","null","html-keynbutton-response","118","2.0.0","1344946","23","<span class='text-green-400 text-4xl md:text-5xl lg:text-6xl'>正确!</span>","null","trial_feedback","","","","","",""
"","null","html-keynbutton-response","119","2.0.0","1345462","23","<div class=""pb-14 text-7xl"">+</div>","null","fixation","","","","","",""
"","420","html-keynbutton-response","120","2.0.0","1345883","23","<div class=""flex flex-row stim-length pb-8 md:pd-20 justify-evenly items-center""><div class=""circle""></div><div class=""square""></div><div class=""circle""></div></div>","q","","matchness_practice_1","mismatch","方","q","true","mismatch"
"","null","html-keynbutton-response","121","2.0.0","1346395","23","<span class='text-green-400 text-4xl md:text-5xl lg:text-6xl'>正确!</span>","null","trial_feedback","","","","","",""
"","null","html-keynbutton-response","122","2.0.0","1346912","23","<div class=""pb-14 text-7xl"">+</div>","null","fixation","","","","","",""
"","506","html-keynbutton-response","123","2.0.0","1347419","23","<div class=""flex flex-row stim-length pb-8 md:pd-20 justify-evenly items-center""><div class=""circle""></div><div class=""circle""></div><div class=""circle""></div></div>","p","","matchness_practice_1","match","圆","p","true","match"
"","null","html-keynbutton-response","124","2.0.0","1347929","23","<span class='text-green-400 text-4xl md:text-5xl lg:text-6xl'>正确!</span>","null","trial_feedback","","","","","",""
"","1264","html-keynbutton-response","126","2.0.0","1349195","23","<div class=""jp"">
    <p>您的正确率是：85%</p>
    <p>您的平均反应时间是：565毫秒</p></div>"," ","block_feedback","","","","","",""
"","1485","html-keynbutton-response","127","2.0.0","1350682","23","
        <div class=""jp px-2 xxs:px-5 mx-auto"">
        <p class=""text-center text-red-600 text-[1.2em] pb-5"">练习结束，现在开始正式实验</p>
        <p>请注意：正式实验中将不再会呈现反馈。</p>
        </div>
        "," ","","","","","","",""
"","null","html-keynbutton-response","128","2.0.0","1353893","23","<count-down title=""""></count-down>","null","countDown_trial","","","","","",""
"","null","html-keynbutton-response","129","2.0.0","1354396","23","<div class=""pb-14 text-7xl"">+</div>","null","fixation","","","","","",""
"","702","html-keynbutton-response","130","2.0.0","1355099","23","<div class=""flex flex-row stim-length pb-8 md:pd-20 justify-evenly items-center""><div class=""square""></div><div class=""square""></div><div class=""square""></div></div>","p","","matchness_test","match","方","p","true","match"
"","null","html-keynbutton-response","131","2.0.0","1355612","23","<div class=""pb-14 text-7xl"">+</div>","null","fixation","","","","","",""
"","606","html-keynbutton-response","132","2.0.0","1356219","23","<div class=""flex flex-row stim-length pb-8 md:pd-20 justify-evenly items-center""><div class=""circle""></div><div class=""square""></div><div class=""circle""></div></div>","q","","matchness_test","mismatch","方","q","true","mismatch"
"","null","html-keynbutton-response","133","2.0.0","1356728","23","<div class=""pb-14 text-7xl"">+</div>","null","fixation","","","","","",""
"","450","html-keynbutton-response","134","2.0.0","1357179","23","<div class=""flex flex-row stim-length pb-8 md:pd-20 justify-evenly items-center""><div class=""square""></div><div class=""circle""></div><div class=""square""></div></div>","q","","matchness_test","mismatch","圆","q","true","mismatch"
"","null","html-keynbutton-response","135","2.0.0","1357695","23","<div class=""pb-14 text-7xl"">+</div>","null","fixation","","","","","",""
"","507","html-keynbutton-response","136","2.0.0","1358203","23","<div class=""flex flex-row stim-length pb-8 md:pd-20 justify-evenly items-center""><div class=""circle""></div><div class=""circle""></div><div class=""circle""></div></div>","p","","matchness_test","match","圆","p","true","match"
"","null","html-keynbutton-response","137","2.0.0","1358712","23","<div class=""pb-14 text-7xl"">+</div>","null","fixation","","","","","",""
"","595","html-keynbutton-response","138","2.0.0","1359307","23","<div class=""flex flex-row stim-length pb-8 md:pd-20 justify-evenly items-center""><div class=""square""></div><div class=""circle""></div><div class=""square""></div></div>","q","","matchness_test","mismatch","圆","q","true","mismatch"
"","null","html-keynbutton-response","139","2.0.0","1359813","23","<div class=""pb-14 text-7xl"">+</div>","null","fixation","","","","","",""
"","469","html-keynbutton-response","140","2.0.0","1360283","23","<div class=""flex flex-row stim-length pb-8 md:pd-20 justify-evenly items-center""><div class=""square""></div><div class=""square""></div><div class=""square""></div></div>","p","","matchness_test","match","方","p","true","match"
"","null","html-keynbutton-response","141","2.0.0","1360795","23","<div class=""pb-14 text-7xl"">+</div>","null","fixation","","","","","",""
"","415","html-keynbutton-response","142","2.0.0","1361211","23","<div class=""flex flex-row stim-length pb-8 md:pd-20 justify-evenly items-center""><div class=""circle""></div><div class=""square""></div><div class=""circle""></div></div>","q","","matchness_test","mismatch","方","q","true","mismatch"
"","null","html-keynbutton-response","143","2.0.0","1361713","23","<div class=""pb-14 text-7xl"">+</div>","null","fixation","","","","","",""
"","441","html-keynbutton-response","144","2.0.0","1362155","23","<div class=""flex flex-row stim-length pb-8 md:pd-20 justify-evenly items-center""><div class=""circle""></div><div class=""circle""></div><div class=""circle""></div></div>","q","","matchness_test","match","圆","p","false","mismatch"
"","null","html-keynbutton-response","145","2.0.0","1362663","23","<div class=""pb-14 text-7xl"">+</div>","null","fixation","","","","","",""
"","643","html-keynbutton-response","146","2.0.0","1363307","23","<div class=""flex flex-row stim-length pb-8 md:pd-20 justify-evenly items-center""><div class=""circle""></div><div class=""square""></div><div class=""circle""></div></div>","q","","matchness_test","mismatch","方","q","true","mismatch"
"","null","html-keynbutton-response","147","2.0.0","1363813","23","<div class=""pb-14 text-7xl"">+</div>","null","fixation","","","","","",""
"","389","html-keynbutton-response","148","2.0.0","1364203","23","<div class=""flex flex-row stim-length pb-8 md:pd-20 justify-evenly items-center""><div class=""circle""></div><div class=""circle""></div><div class=""circle""></div></div>","p","","matchness_test","match","圆","p","true","match"
"","null","html-keynbutton-response","149","2.0.0","1364711","23","<div class=""pb-14 text-7xl"">+</div>","null","fixation","","","","","",""
"","467","html-keynbutton-response","150","2.0.0","1365179","23","<div class=""flex flex-row stim-length pb-8 md:pd-20 justify-evenly items-center""><div class=""square""></div><div class=""square""></div><div class=""square""></div></div>","p","","matchness_test","match","方","p","true","match"
"","null","html-keynbutton-response","151","2.0.0","1365680","23","<div class=""pb-14 text-7xl"">+</div>","null","fixation","","","","","",""
"","506","html-keynbutton-response","152","2.0.0","1366187","23","<div class=""flex flex-row stim-length pb-8 md:pd-20 justify-evenly items-center""><div class=""square""></div><div class=""circle""></div><div class=""square""></div></div>","q","","matchness_test","mismatch","圆","q","true","mismatch"
"","null","html-keynbutton-response","153","2.0.0","1366694","23","<div class=""pb-14 text-7xl"">+</div>","null","fixation","","","","","",""
"","484","html-keynbutton-response","154","2.0.0","1367179","23","<div class=""flex flex-row stim-length pb-8 md:pd-20 justify-evenly items-center""><div class=""square""></div><div class=""square""></div><div class=""square""></div></div>","p","","matchness_test","match","方","p","true","match"
"","null","html-keynbutton-response","155","2.0.0","1367693","23","<div class=""pb-14 text-7xl"">+</div>","null","fixation","","","","","",""
"","574","html-keynbutton-response","156","2.0.0","1368267","23","<div class=""flex flex-row stim-length pb-8 md:pd-20 justify-evenly items-center""><div class=""circle""></div><div class=""circle""></div><div class=""circle""></div></div>","p","","matchness_test","match","圆","p","true","match"
"","null","html-keynbutton-response","157","2.0.0","1368779","23","<div class=""pb-14 text-7xl"">+</div>","null","fixation","","","","","",""
"","479","html-keynbutton-response","158","2.0.0","1369259","23","<div class=""flex flex-row stim-length pb-8 md:pd-20 justify-evenly items-center""><div class=""square""></div><div class=""circle""></div><div class=""square""></div></div>","q","","matchness_test","mismatch","圆","q","true","mismatch"
"","null","html-keynbutton-response","159","2.0.0","1369763","23","<div class=""pb-14 text-7xl"">+</div>","null","fixation","","","","","",""
"","583","html-keynbutton-response","160","2.0.0","1370347","23","<div class=""flex flex-row stim-length pb-8 md:pd-20 justify-evenly items-center""><div class=""circle""></div><div class=""square""></div><div class=""circle""></div></div>","q","","matchness_test","mismatch","方","q","true","mismatch"
"","null","html-keynbutton-response","161","2.0.0","1370862","23","<div class=""pb-14 text-7xl"">+</div>","null","fixation","","","","","",""
"","461","html-keynbutton-response","162","2.0.0","1371323","23","<div class=""flex flex-row stim-length pb-8 md:pd-20 justify-evenly items-center""><div class=""square""></div><div class=""circle""></div><div class=""square""></div></div>","q","","matchness_test","mismatch","圆","q","true","mismatch"
"","null","html-keynbutton-response","163","2.0.0","1371829","23","<div class=""pb-14 text-7xl"">+</div>","null","fixation","","","","","",""
"","485","html-keynbutton-response","164","2.0.0","1372315","23","<div class=""flex flex-row stim-length pb-8 md:pd-20 justify-evenly items-center""><div class=""circle""></div><div class=""circle""></div><div class=""circle""></div></div>","p","","matchness_test","match","圆","p","true","match"
"","null","html-keynbutton-response","165","2.0.0","1372829","23","<div class=""pb-14 text-7xl"">+</div>","null","fixation","","","","","",""
"","556","html-keynbutton-response","166","2.0.0","1373386","23","<div class=""flex flex-row stim-length pb-8 md:pd-20 justify-evenly items-center""><div class=""circle""></div><div class=""square""></div><div class=""circle""></div></div>","q","","matchness_test","mismatch","方","q","true","mismatch"
"","null","html-keynbutton-response","167","2.0.0","1373896","23","<div class=""pb-14 text-7xl"">+</div>","null","fixation","","","","","",""
"","498","html-keynbutton-response","168","2.0.0","1374395","23","<div class=""flex flex-row stim-length pb-8 md:pd-20 justify-evenly items-center""><div class=""square""></div><div class=""square""></div><div class=""square""></div></div>","p","","matchness_test","match","方","p","true","match"
"","null","html-keynbutton-response","169","2.0.0","1374897","23","<div class=""pb-14 text-7xl"">+</div>","null","fixation","","","","","",""
"","505","html-keynbutton-response","170","2.0.0","1375403","23","<div class=""flex flex-row stim-length pb-8 md:pd-20 justify-evenly items-center""><div class=""square""></div><div class=""square""></div><div class=""square""></div></div>","p","","matchness_test","match","方","p","true","match"
"","null","html-keynbutton-response","171","2.0.0","1375912","23","<div class=""pb-14 text-7xl"">+</div>","null","fixation","","","","","",""
"","419","html-keynbutton-response","172","2.0.0","1376331","23","<div class=""flex flex-row stim-length pb-8 md:pd-20 justify-evenly items-center""><div class=""square""></div><div class=""circle""></div><div class=""square""></div></div>","q","","matchness_test","mismatch","圆","q","true","mismatch"
"","null","html-keynbutton-response","173","2.0.0","1376845","23","<div class=""pb-14 text-7xl"">+</div>","null","fixation","","","","","",""
"","461","html-keynbutton-response","174","2.0.0","1377307","23","<div class=""flex flex-row stim-length pb-8 md:pd-20 justify-evenly items-center""><div class=""circle""></div><div class=""square""></div><div class=""circle""></div></div>","q","","matchness_test","mismatch","方","q","true","mismatch"
"","null","html-keynbutton-response","175","2.0.0","1377813","23","<div class=""pb-14 text-7xl"">+</div>","null","fixation","","","","","",""
"","533","html-keynbutton-response","176","2.0.0","1378347","23","<div class=""flex flex-row stim-length pb-8 md:pd-20 justify-evenly items-center""><div class=""circle""></div><div class=""circle""></div><div class=""circle""></div></div>","p","","matchness_test","match","圆","p","true","match"
"","null","html-keynbutton-response","177","2.0.0","1378862","23","<div class=""pb-14 text-7xl"">+</div>","null","fixation","","","","","",""
"","524","html-keynbutton-response","178","2.0.0","1379387","23","<div class=""flex flex-row stim-length pb-8 md:pd-20 justify-evenly items-center""><div class=""circle""></div><div class=""circle""></div><div class=""circle""></div></div>","p","","matchness_test","match","圆","p","true","match"
"","null","html-keynbutton-response","179","2.0.0","1379895","23","<div class=""pb-14 text-7xl"">+</div>","null","fixation","","","","","",""
"","547","html-keynbutton-response","180","2.0.0","1380443","23","<div class=""flex flex-row stim-length pb-8 md:pd-20 justify-evenly items-center""><div class=""square""></div><div class=""square""></div><div class=""square""></div></div>","p","","matchness_test","match","方","p","true","match"
"","null","html-keynbutton-response","181","2.0.0","1380947","23","<div class=""pb-14 text-7xl"">+</div>","null","fixation","","","","","",""
"","472","html-keynbutton-response","182","2.0.0","1381416","23","<div class=""flex flex-row stim-length pb-8 md:pd-20 justify-evenly items-center""><div class=""square""></div><div class=""circle""></div><div class=""square""></div></div>","q","","matchness_test","mismatch","圆","q","true","mismatch"
"","null","html-keynbutton-response","183","2.0.0","1381925","23","<div class=""pb-14 text-7xl"">+</div>","null","fixation","","","","","",""
"","402","html-keynbutton-response","184","2.0.0","1382328","23","<div class=""flex flex-row stim-length pb-8 md:pd-20 justify-evenly items-center""><div class=""circle""></div><div class=""square""></div><div class=""circle""></div></div>","q","","matchness_test","mismatch","方","q","true","mismatch"
"","null","html-keynbutton-response","185","2.0.0","1382842","23","<div class=""pb-14 text-7xl"">+</div>","null","fixation","","","","","",""
"","461","html-keynbutton-response","186","2.0.0","1383304","23","<div class=""flex flex-row stim-length pb-8 md:pd-20 justify-evenly items-center""><div class=""square""></div><div class=""circle""></div><div class=""square""></div></div>","q","","matchness_test","mismatch","圆","q","true","mismatch"
"","null","html-keynbutton-response","187","2.0.0","1383810","23","<div class=""pb-14 text-7xl"">+</div>","null","fixation","","","","","",""
"","454","html-keynbutton-response","188","2.0.0","1384265","23","<div class=""flex flex-row stim-length pb-8 md:pd-20 justify-evenly items-center""><div class=""circle""></div><div class=""square""></div><div class=""circle""></div></div>","q","","matchness_test","mismatch","方","q","true","mismatch"
"","null","html-keynbutton-response","189","2.0.0","1384776","23","<div class=""pb-14 text-7xl"">+</div>","null","fixation","","","","","",""
"","528","html-keynbutton-response","190","2.0.0","1385304","23","<div class=""flex flex-row stim-length pb-8 md:pd-20 justify-evenly items-center""><div class=""circle""></div><div class=""circle""></div><div class=""circle""></div></div>","p","","matchness_test","match","圆","p","true","match"
"","null","html-keynbutton-response","191","2.0.0","1385810","23","<div class=""pb-14 text-7xl"">+</div>","null","fixation","","","","","",""
"","709","html-keynbutton-response","192","2.0.0","1386520","23","<div class=""flex flex-row stim-length pb-8 md:pd-20 justify-evenly items-center""><div class=""square""></div><div class=""square""></div><div class=""square""></div></div>","p","","matchness_test","match","方","p","true","match"
"","null","html-keynbutton-response","193","2.0.0","1387026","23","<div class=""pb-14 text-7xl"">+</div>","null","fixation","","","","","",""
"","453","html-keynbutton-response","194","2.0.0","1387480","23","<div class=""flex flex-row stim-length pb-8 md:pd-20 justify-evenly items-center""><div class=""square""></div><div class=""circle""></div><div class=""square""></div></div>","q","","matchness_test","mismatch","圆","q","true","mismatch"
"","null","html-keynbutton-response","195","2.0.0","1387993","23","<div class=""pb-14 text-7xl"">+</div>","null","fixation","","","","","",""
"","431","html-keynbutton-response","196","2.0.0","1388424","23","<div class=""flex flex-row stim-length pb-8 md:pd-20 justify-evenly items-center""><div class=""circle""></div><div class=""square""></div><div class=""circle""></div></div>","p","","matchness_test","mismatch","方","q","false","match"
"","null","html-keynbutton-response","197","2.0.0","1388927","23","<div class=""pb-14 text-7xl"">+</div>","null","fixation","","","","","",""
"","584","html-keynbutton-response","198","2.0.0","1389512","23","<div class=""flex flex-row stim-length pb-8 md:pd-20 justify-evenly items-center""><div class=""circle""></div><div class=""circle""></div><div class=""circle""></div></div>","p","","matchness_test","match","圆","p","true","match"
"","null","html-keynbutton-response","199","2.0.0","1390026","23","<div class=""pb-14 text-7xl"">+</div>","null","fixation","","","","","",""
"","462","html-keynbutton-response","200","2.0.0","1390488","23","<div class=""flex flex-row stim-length pb-8 md:pd-20 justify-evenly items-center""><div class=""square""></div><div class=""square""></div><div class=""square""></div></div>","p","","matchness_test","match","方","p","true","match"
"","null","html-keynbutton-response","201","2.0.0","1390994","23","<div class=""pb-14 text-7xl"">+</div>","null","fixation","","","","","",""
"","406","html-keynbutton-response","202","2.0.0","1391400","23","<div class=""flex flex-row stim-length pb-8 md:pd-20 justify-evenly items-center""><div class=""circle""></div><div class=""circle""></div><div class=""circle""></div></div>","q","","matchness_test","match","圆","p","false","mismatch"
"","null","html-keynbutton-response","203","2.0.0","1391908","23","<div class=""pb-14 text-7xl"">+</div>","null","fixation","","","","","",""
"","531","html-keynbutton-response","204","2.0.0","1392440","23","<div class=""flex flex-row stim-length pb-8 md:pd-20 justify-evenly items-center""><div class=""square""></div><div class=""square""></div><div class=""square""></div></div>","p","","matchness_test","match","方","p","true","match"
"","null","html-keynbutton-response","205","2.0.0","1392943","23","<div class=""pb-14 text-7xl"">+</div>","null","fixation","","","","","",""
"","520","html-keynbutton-response","206","2.0.0","1393464","23","<div class=""flex flex-row stim-length pb-8 md:pd-20 justify-evenly items-center""><div class=""circle""></div><div class=""square""></div><div class=""circle""></div></div>","q","","matchness_test","mismatch","方","q","true","mismatch"
"","null","html-keynbutton-response","207","2.0.0","1393967","23","<div class=""pb-14 text-7xl"">+</div>","null","fixation","","","","","",""
"","520","html-keynbutton-response","208","2.0.0","1394488","23","<div class=""flex flex-row stim-length pb-8 md:pd-20 justify-evenly items-center""><div class=""square""></div><div class=""circle""></div><div class=""square""></div></div>","q","","matchness_test","mismatch","圆","q","true","mismatch"
"","1998","html-keynbutton-response","209","2.0.0","1396488","23","<div class=""jp""><p>您已完成1/10部分</p><p>请休息一会儿</p>
    <p>您的正确率是：93%</p>
    <p>您的平均反应时间是：506毫秒</p></div>"," ","block_feedback","","","","","",""
"","null","html-keynbutton-response","210","2.0.0","1399690","23","<count-down title=""""></count-down>","null","countDown_trial","","","","","",""
"","null","html-keynbutton-response","211","2.0.0","1400194","23","<div class=""pb-14 text-7xl"">+</div>","null","fixation","","","","","",""
"","549","html-keynbutton-response","212","2.0.0","1400744","23","<div class=""flex flex-row stim-length pb-8 md:pd-20 justify-evenly items-center""><div class=""circle""></div><div class=""square""></div><div class=""circle""></div></div>","q","","matchness_test_1","mismatch","方","q","true","mismatch"
"","null","html-keynbutton-response","213","2.0.0","1401259","23","<div class=""pb-14 text-7xl"">+</div>","null","fixation","","","","","",""
"","412","html-keynbutton-response","214","2.0.0","1401672","23","<div class=""flex flex-row stim-length pb-8 md:pd-20 justify-evenly items-center""><div class=""circle""></div><div class=""circle""></div><div class=""circle""></div></div>","p","","matchness_test_1","match","圆","p","true","match"
"","null","html-keynbutton-response","215","2.0.0","1402177","23","<div class=""pb-14 text-7xl"">+</div>","null","fixation","","","","","",""
"","567","html-keynbutton-response","216","2.0.0","1402744","23","<div class=""flex flex-row stim-length pb-8 md:pd-20 justify-evenly items-center""><div class=""square""></div><div class=""circle""></div><div class=""square""></div></div>","q","","matchness_test_1","mismatch","圆","q","true","mismatch"
"","null","html-keynbutton-response","217","2.0.0","1403260","23","<div class=""pb-14 text-7xl"">+</div>","null","fixation","","","","","",""
"","475","html-keynbutton-response","218","2.0.0","1403736","23","<div class=""flex flex-row stim-length pb-8 md:pd-20 justify-evenly items-center""><div class=""square""></div><div class=""square""></div><div class=""square""></div></div>","p","","matchness_test_1","match","方","p","true","match"
"","null","html-keynbutton-response","219","2.0.0","1404244","23","<div class=""pb-14 text-7xl"">+</div>","null","fixation","","","","","",""
"","435","html-keynbutton-response","220","2.0.0","1404680","23","<div class=""flex flex-row stim-length pb-8 md:pd-20 justify-evenly items-center""><div class=""square""></div><div class=""square""></div><div class=""square""></div></div>","p","","matchness_test_1","match","方","p","true","match"
"","null","html-keynbutton-response","221","2.0.0","1405192","23","<div class=""pb-14 text-7xl"">+</div>","null","fixation","","","","","",""
"","527","html-keynbutton-response","222","2.0.0","1405720","23","<div class=""flex flex-row stim-length pb-8 md:pd-20 justify-evenly items-center""><div class=""square""></div><div class=""circle""></div><div class=""square""></div></div>","q","","matchness_test_1","mismatch","圆","q","true","mismatch"
"","null","html-keynbutton-response","223","2.0.0","1406227","23","<div class=""pb-14 text-7xl"">+</div>","null","fixation","","","","","",""
"","1108","html-keynbutton-response","224","2.0.0","1407336","23","<div class=""flex flex-row stim-length pb-8 md:pd-20 justify-evenly items-center""><div class=""circle""></div><div class=""square""></div><div class=""circle""></div></div>","q","","matchness_test_1","mismatch","方","q","true","mismatch"
"","null","html-keynbutton-response","225","2.0.0","1407844","23","<div class=""pb-14 text-7xl"">+</div>","null","fixation","","","","","",""
"","484","html-keynbutton-response","226","2.0.0","1408328","23","<div class=""flex flex-row stim-length pb-8 md:pd-20 justify-evenly items-center""><div class=""circle""></div><div class=""circle""></div><div class=""circle""></div></div>","p","","matchness_test_1","match","圆","p","true","match"
"","null","html-keynbutton-response","227","2.0.0","1408842","23","<div class=""pb-14 text-7xl"">+</div>","null","fixation","","","","","",""
"","557","html-keynbutton-response","228","2.0.0","1409400","23","<div class=""flex flex-row stim-length pb-8 md:pd-20 justify-evenly items-center""><div class=""square""></div><div class=""circle""></div><div class=""square""></div></div>","q","","matchness_test_1","mismatch","圆","q","true","mismatch"
"","null","html-keynbutton-response","229","2.0.0","1409905","23","<div class=""pb-14 text-7xl"">+</div>","null","fixation","","","","","",""
"","518","html-keynbutton-response","230","2.0.0","1410424","23","<div class=""flex flex-row stim-length pb-8 md:pd-20 justify-evenly items-center""><div class=""circle""></div><div class=""square""></div><div class=""circle""></div></div>","q","","matchness_test_1","mismatch","方","q","true","mismatch"
"","null","html-keynbutton-response","231","2.0.0","1410927","23","<div class=""pb-14 text-7xl"">+</div>","null","fixation","","","","","",""
"","536","html-keynbutton-response","232","2.0.0","1411464","23","<div class=""flex flex-row stim-length pb-8 md:pd-20 justify-evenly items-center""><div class=""circle""></div><div class=""circle""></div><div class=""circle""></div></div>","p","","matchness_test_1","match","圆","p","true","match"
"","null","html-keynbutton-response","233","2.0.0","1411976","23","<div class=""pb-14 text-7xl"">+</div>","null","fixation","","","","","",""
"","447","html-keynbutton-response","234","2.0.0","1412424","23","<div class=""flex flex-row stim-length pb-8 md:pd-20 justify-evenly items-center""><div class=""square""></div><div class=""square""></div><div class=""square""></div></div>","p","","matchness_test_1","match","方","p","true","match"
"","null","html-keynbutton-response","235","2.0.0","1412928","23","<div class=""pb-14 text-7xl"">+</div>","null","fixation","","","","","",""
"","455","html-keynbutton-response","236","2.0.0","1413384","23","<div class=""flex flex-row stim-length pb-8 md:pd-20 justify-evenly items-center""><div class=""circle""></div><div class=""square""></div><div class=""circle""></div></div>","q","","matchness_test_1","mismatch","方","q","true","mismatch"
"","null","html-keynbutton-response","237","2.0.0","1413893","23","<div class=""pb-14 text-7xl"">+</div>","null","fixation","","","","","",""
"","354","html-keynbutton-response","238","2.0.0","1414247","23","<div class=""flex flex-row stim-length pb-8 md:pd-20 justify-evenly items-center""><div class=""square""></div><div class=""circle""></div><div class=""square""></div></div>","q","","matchness_test_1","mismatch","圆","q","true","mismatch"
"","null","html-keynbutton-response","239","2.0.0","1414760","23","<div class=""pb-14 text-7xl"">+</div>","null","fixation","","","","","",""
"","400","html-keynbutton-response","240","2.0.0","1415160","23","<div class=""flex flex-row stim-length pb-8 md:pd-20 justify-evenly items-center""><div class=""square""></div><div class=""square""></div><div class=""square""></div></div>","p","","matchness_test_1","match","方","p","true","match"
"","null","html-keynbutton-response","241","2.0.0","1415676","23","<div class=""pb-14 text-7xl"">+</div>","null","fixation","","","","","",""
"","476","html-keynbutton-response","242","2.0.0","1416152","23","<div class=""flex flex-row stim-length pb-8 md:pd-20 justify-evenly items-center""><div class=""circle""></div><div class=""circle""></div><div class=""circle""></div></div>","p","","matchness_test_1","match","圆","p","true","match"
"","null","html-keynbutton-response","243","2.0.0","1416658","23","<div class=""pb-14 text-7xl"">+</div>","null","fixation","","","","","",""
"","405","html-keynbutton-response","244","2.0.0","1417064","23","<div class=""flex flex-row stim-length pb-8 md:pd-20 justify-evenly items-center""><div class=""square""></div><div class=""square""></div><div class=""square""></div></div>","p","","matchness_test_1","match","方","p","true","match"
"","null","html-keynbutton-response","245","2.0.0","1417576","23","<div class=""pb-14 text-7xl"">+</div>","null","fixation","","","","","",""
"","351","html-keynbutton-response","246","2.0.0","1417928","23","<div class=""flex flex-row stim-length pb-8 md:pd-20 justify-evenly items-center""><div class=""square""></div><div class=""circle""></div><div class=""square""></div></div>","p","","matchness_test_1","mismatch","圆","q","false","match"
"","null","html-keynbutton-response","247","2.0.0","1418443","23","<div class=""pb-14 text-7xl"">+</div>","null","fixation","","","","","",""
"","492","html-keynbutton-response","248","2.0.0","1418936","23","<div class=""flex flex-row stim-length pb-8 md:pd-20 justify-evenly items-center""><div class=""circle""></div><div class=""square""></div><div class=""circle""></div></div>","q","","matchness_test_1","mismatch","方","q","true","mismatch"
"","null","html-keynbutton-response","249","2.0.0","1419444","23","<div class=""pb-14 text-7xl"">+</div>","null","fixation","","","","","",""
"","531","html-keynbutton-response","250","2.0.0","1419976","23","<div class=""flex flex-row stim-length pb-8 md:pd-20 justify-evenly items-center""><div class=""circle""></div><div class=""circle""></div><div class=""circle""></div></div>","p","","matchness_test_1","match","圆","p","true","match"
"","null","html-keynbutton-response","251","2.0.0","1420493","23","<div class=""pb-14 text-7xl"">+</div>","null","fixation","","","","","",""
"","506","html-keynbutton-response","252","2.0.0","1420999","23","<div class=""flex flex-row stim-length pb-8 md:pd-20 justify-evenly items-center""><div class=""square""></div><div class=""circle""></div><div class=""square""></div></div>","q","","matchness_test_1","mismatch","圆","q","true","mismatch"
"","null","html-keynbutton-response","253","2.0.0","1421510","23","<div class=""pb-14 text-7xl"">+</div>","null","fixation","","","","","",""
"","401","html-keynbutton-response","254","2.0.0","1421912","23","<div class=""flex flex-row stim-length pb-8 md:pd-20 justify-evenly items-center""><div class=""circle""></div><div class=""square""></div><div class=""circle""></div></div>","q","","matchness_test_1","mismatch","方","q","true","mismatch"
"","null","html-keynbutton-response","255","2.0.0","1422426","23","<div class=""pb-14 text-7xl"">+</div>","null","fixation","","","","","",""
"","444","html-keynbutton-response","256","2.0.0","1422871","23","<div class=""flex flex-row stim-length pb-8 md:pd-20 justify-evenly items-center""><div class=""square""></div><div class=""square""></div><div class=""square""></div></div>","p","","matchness_test_1","match","方","p","true","match"
"","null","html-keynbutton-response","257","2.0.0","1423377","23","<div class=""pb-14 text-7xl"">+</div>","null","fixation","","","","","",""
"","550","html-keynbutton-response","258","2.0.0","1423928","23","<div class=""flex flex-row stim-length pb-8 md:pd-20 justify-evenly items-center""><div class=""circle""></div><div class=""circle""></div><div class=""circle""></div></div>","p","","matchness_test_1","match","圆","p","true","match"
"","null","html-keynbutton-response","259","2.0.0","1424444","23","<div class=""pb-14 text-7xl"">+</div>","null","fixation","","","","","",""
"","491","html-keynbutton-response","260","2.0.0","1424936","23","<div class=""flex flex-row stim-length pb-8 md:pd-20 justify-evenly items-center""><div class=""square""></div><div class=""square""></div><div class=""square""></div></div>","p","","matchness_test_1","match","方","p","true","match"
"","null","html-keynbutton-response","261","2.0.0","1425443","23","<div class=""pb-14 text-7xl"">+</div>","null","fixation","","","","","",""
"","419","html-keynbutton-response","262","2.0.0","1425863","23","<div class=""flex flex-row stim-length pb-8 md:pd-20 justify-evenly items-center""><div class=""circle""></div><div class=""square""></div><div class=""circle""></div></div>","q","","matchness_test_1","mismatch","方","q","true","mismatch"
"","null","html-keynbutton-response","263","2.0.0","1426376","23","<div class=""pb-14 text-7xl"">+</div>","null","fixation","","","","","",""
"","383","html-keynbutton-response","264","2.0.0","1426760","23","<div class=""flex flex-row stim-length pb-8 md:pd-20 justify-evenly items-center""><div class=""square""></div><div class=""circle""></div><div class=""square""></div></div>","q","","matchness_test_1","mismatch","圆","q","true","mismatch"
"","null","html-keynbutton-response","265","2.0.0","1427276","23","<div class=""pb-14 text-7xl"">+</div>","null","fixation","","","","","",""
"","443","html-keynbutton-response","266","2.0.0","1427720","23","<div class=""flex flex-row stim-length pb-8 md:pd-20 justify-evenly items-center""><div class=""circle""></div><div class=""circle""></div><div class=""circle""></div></div>","p","","matchness_test_1","match","圆","p","true","match"
"","null","html-keynbutton-response","267","2.0.0","1428227","23","<div class=""pb-14 text-7xl"">+</div>","null","fixation","","","","","",""
"","501","html-keynbutton-response","268","2.0.0","1428728","23","<div class=""flex flex-row stim-length pb-8 md:pd-20 justify-evenly items-center""><div class=""square""></div><div class=""circle""></div><div class=""square""></div></div>","q","","matchness_test_1","mismatch","圆","q","true","mismatch"
"","null","html-keynbutton-response","269","2.0.0","1429243","23","<div class=""pb-14 text-7xl"">+</div>","null","fixation","","","","","",""
"","476","html-keynbutton-response","270","2.0.0","1429720","23","<div class=""flex flex-row stim-length pb-8 md:pd-20 justify-evenly items-center""><div class=""circle""></div><div class=""circle""></div><div class=""circle""></div></div>","q","","matchness_test_1","match","圆","p","false","mismatch"
"","null","html-keynbutton-response","271","2.0.0","1430227","23","<div class=""pb-14 text-7xl"">+</div>","null","fixation","","","","","",""
"","516","html-keynbutton-response","272","2.0.0","1430744","23","<div class=""flex flex-row stim-length pb-8 md:pd-20 justify-evenly items-center""><div class=""square""></div><div class=""square""></div><div class=""square""></div></div>","p","","matchness_test_1","match","方","p","true","match"
"","null","html-keynbutton-response","273","2.0.0","1431259","23","<div class=""pb-14 text-7xl"">+</div>","null","fixation","","","","","",""
"","460","html-keynbutton-response","274","2.0.0","1431720","23","<div class=""flex flex-row stim-length pb-8 md:pd-20 justify-evenly items-center""><div class=""circle""></div><div class=""square""></div><div class=""circle""></div></div>","q","","matchness_test_1","mismatch","方","q","true","mismatch"
"","null","html-keynbutton-response","275","2.0.0","1432227","23","<div class=""pb-14 text-7xl"">+</div>","null","fixation","","","","","",""
"","420","html-keynbutton-response","276","2.0.0","1432648","23","<div class=""flex flex-row stim-length pb-8 md:pd-20 justify-evenly items-center""><div class=""square""></div><div class=""circle""></div><div class=""square""></div></div>","q","","matchness_test_1","mismatch","圆","q","true","mismatch"
"","null","html-keynbutton-response","277","2.0.0","1433160","23","<div class=""pb-14 text-7xl"">+</div>","null","fixation","","","","","",""
"","320","html-keynbutton-response","278","2.0.0","1433480","23","<div class=""flex flex-row stim-length pb-8 md:pd-20 justify-evenly items-center""><div class=""circle""></div><div class=""square""></div><div class=""circle""></div></div>","q","","matchness_test_1","mismatch","方","q","true","mismatch"
"","null","html-keynbutton-response","279","2.0.0","1433993","23","<div class=""pb-14 text-7xl"">+</div>","null","fixation","","","","","",""
"","494","html-keynbutton-response","280","2.0.0","1434488","23","<div class=""flex flex-row stim-length pb-8 md:pd-20 justify-evenly items-center""><div class=""square""></div><div class=""square""></div><div class=""square""></div></div>","p","","matchness_test_1","match","方","p","true","match"
"","null","html-keynbutton-response","281","2.0.0","1434995","23","<div class=""pb-14 text-7xl"">+</div>","null","fixation","","","","","",""
"","500","html-keynbutton-response","282","2.0.0","1435496","23","<div class=""flex flex-row stim-length pb-8 md:pd-20 justify-evenly items-center""><div class=""circle""></div><div class=""circle""></div><div class=""circle""></div></div>","p","","matchness_test_1","match","圆","p","true","match"
"","null","html-keynbutton-response","283","2.0.0","1436009","23","<div class=""pb-14 text-7xl"">+</div>","null","fixation","","","","","",""
"","366","html-keynbutton-response","284","2.0.0","1436375","23","<div class=""flex flex-row stim-length pb-8 md:pd-20 justify-evenly items-center""><div class=""square""></div><div class=""square""></div><div class=""square""></div></div>","p","","matchness_test_1","match","方","p","true","match"
"","null","html-keynbutton-response","285","2.0.0","1436877","23","<div class=""pb-14 text-7xl"">+</div>","null","fixation","","","","","",""
"","442","html-keynbutton-response","286","2.0.0","1437320","23","<div class=""flex flex-row stim-length pb-8 md:pd-20 justify-evenly items-center""><div class=""square""></div><div class=""circle""></div><div class=""square""></div></div>","q","","matchness_test_1","mismatch","圆","q","true","mismatch"
"","null","html-keynbutton-response","287","2.0.0","1437826","23","<div class=""pb-14 text-7xl"">+</div>","null","fixation","","","","","",""
"","453","html-keynbutton-response","288","2.0.0","1438280","23","<div class=""flex flex-row stim-length pb-8 md:pd-20 justify-evenly items-center""><div class=""circle""></div><div class=""square""></div><div class=""circle""></div></div>","q","","matchness_test_1","mismatch","方","q","true","mismatch"
"","null","html-keynbutton-response","289","2.0.0","1438792","23","<div class=""pb-14 text-7xl"">+</div>","null","fixation","","","","","",""
"","431","html-keynbutton-response","290","2.0.0","1439224","23","<div class=""flex flex-row stim-length pb-8 md:pd-20 justify-evenly items-center""><div class=""circle""></div><div class=""circle""></div><div class=""circle""></div></div>","p","","matchness_test_1","match","圆","p","true","match"
"","1726","html-keynbutton-response","291","2.0.0","1440952","23","<div class=""jp""><p>您已完成2/10部分</p><p>请休息一会儿</p>
    <p>您的正确率是：95%</p>
    <p>您的平均反应时间是：477毫秒</p></div>"," ","block_feedback","","","","","",""
"","null","html-keynbutton-response","292","2.0.0","1444160","23","<count-down title=""""></count-down>","null","countDown_trial","","","","","",""
"","null","html-keynbutton-response","293","2.0.0","1444664","23","<div class=""pb-14 text-7xl"">+</div>","null","fixation","","","","","",""
"","515","html-keynbutton-response","294","2.0.0","1445180","23","<div class=""flex flex-row stim-length pb-8 md:pd-20 justify-evenly items-center""><div class=""square""></div><div class=""circle""></div><div class=""square""></div></div>","q","","matchness_test_2","mismatch","圆","q","true","mismatch"
"","null","html-keynbutton-response","295","2.0.0","1445696","23","<div class=""pb-14 text-7xl"">+</div>","null","fixation","","","","","",""
"","426","html-keynbutton-response","296","2.0.0","1446123","23","<div class=""flex flex-row stim-length pb-8 md:pd-20 justify-evenly items-center""><div class=""circle""></div><div class=""circle""></div><div class=""circle""></div></div>","p","","matchness_test_2","match","圆","p","true","match"
"","null","html-keynbutton-response","297","2.0.0","1446630","23","<div class=""pb-14 text-7xl"">+</div>","null","fixation","","","","","",""
"","404","html-keynbutton-response","298","2.0.0","1447035","23","<div class=""flex flex-row stim-length pb-8 md:pd-20 justify-evenly items-center""><div class=""square""></div><div class=""square""></div><div class=""square""></div></div>","p","","matchness_test_2","match","方","p","true","match"
"","null","html-keynbutton-response","299","2.0.0","1447546","23","<div class=""pb-14 text-7xl"">+</div>","null","fixation","","","","","",""
"","417","html-keynbutton-response","300","2.0.0","1447964","23","<div class=""flex flex-row stim-length pb-8 md:pd-20 justify-evenly items-center""><div class=""circle""></div><div class=""square""></div><div class=""circle""></div></div>","q","","matchness_test_2","mismatch","方","q","true","mismatch"
"","null","html-keynbutton-response","301","2.0.0","1448467","23","<div class=""pb-14 text-7xl"">+</div>","null","fixation","","","","","",""
"","487","html-keynbutton-response","302","2.0.0","1448955","23","<div class=""flex flex-row stim-length pb-8 md:pd-20 justify-evenly items-center""><div class=""square""></div><div class=""square""></div><div class=""square""></div></div>","p","","matchness_test_2","match","方","p","true","match"
"","null","html-keynbutton-response","303","2.0.0","1449461","23","<div class=""pb-14 text-7xl"">+</div>","null","fixation","","","","","",""
"","357","html-keynbutton-response","304","2.0.0","1449820","23","<div class=""flex flex-row stim-length pb-8 md:pd-20 justify-evenly items-center""><div class=""circle""></div><div class=""square""></div><div class=""circle""></div></div>","p","","matchness_test_2","mismatch","方","q","false","match"
"","null","html-keynbutton-response","305","2.0.0","1450330","23","<div class=""pb-14 text-7xl"">+</div>","null","fixation","","","","","",""
"","480","html-keynbutton-response","306","2.0.0","1450811","23","<div class=""flex flex-row stim-length pb-8 md:pd-20 justify-evenly items-center""><div class=""circle""></div><div class=""circle""></div><div class=""circle""></div></div>","p","","matchness_test_2","match","圆","p","true","match"
"","null","html-keynbutton-response","307","2.0.0","1451314","23","<div class=""pb-14 text-7xl"">+</div>","null","fixation","","","","","",""
"","392","html-keynbutton-response","308","2.0.0","1451707","23","<div class=""flex flex-row stim-length pb-8 md:pd-20 justify-evenly items-center""><div class=""square""></div><div class=""circle""></div><div class=""square""></div></div>","q","","matchness_test_2","mismatch","圆","q","true","mismatch"
"","null","html-keynbutton-response","309","2.0.0","1452214","23","<div class=""pb-14 text-7xl"">+</div>","null","fixation","","","","","",""
"","436","html-keynbutton-response","310","2.0.0","1452651","23","<div class=""flex flex-row stim-length pb-8 md:pd-20 justify-evenly items-center""><div class=""square""></div><div class=""square""></div><div class=""square""></div></div>","p","","matchness_test_2","match","方","p","true","match"
"","null","html-keynbutton-response","311","2.0.0","1453163","23","<div class=""pb-14 text-7xl"">+</div>","null","fixation","","","","","",""
"","624","html-keynbutton-response","312","2.0.0","1453788","23","<div class=""flex flex-row stim-length pb-8 md:pd-20 justify-evenly items-center""><div class=""circle""></div><div class=""circle""></div><div class=""circle""></div></div>","p","","matchness_test_2","match","圆","p","true","match"
"","null","html-keynbutton-response","313","2.0.0","1454296","23","<div class=""pb-14 text-7xl"">+</div>","null","fixation","","","","","",""
"","419","html-keynbutton-response","314","2.0.0","1454716","23","<div class=""flex flex-row stim-length pb-8 md:pd-20 justify-evenly items-center""><div class=""circle""></div><div class=""square""></div><div class=""circle""></div></div>","q","","matchness_test_2","mismatch","方","q","true","mismatch"
"","null","html-keynbutton-response","315","2.0.0","1455230","23","<div class=""pb-14 text-7xl"">+</div>","null","fixation","","","","","",""
"","428","html-keynbutton-response","316","2.0.0","1455659","23","<div class=""flex flex-row stim-length pb-8 md:pd-20 justify-evenly items-center""><div class=""square""></div><div class=""circle""></div><div class=""square""></div></div>","q","","matchness_test_2","mismatch","圆","q","true","mismatch"
"","null","html-keynbutton-response","317","2.0.0","1456165","23","<div class=""pb-14 text-7xl"">+</div>","null","fixation","","","","","",""
"","358","html-keynbutton-response","318","2.0.0","1456524","23","<div class=""flex flex-row stim-length pb-8 md:pd-20 justify-evenly items-center""><div class=""circle""></div><div class=""square""></div><div class=""circle""></div></div>","q","","matchness_test_2","mismatch","方","q","true","mismatch"
"","null","html-keynbutton-response","319","2.0.0","1457030","23","<div class=""pb-14 text-7xl"">+</div>","null","fixation","","","","","",""
"","389","html-keynbutton-response","320","2.0.0","1457420","23","<div class=""flex flex-row stim-length pb-8 md:pd-20 justify-evenly items-center""><div class=""circle""></div><div class=""circle""></div><div class=""circle""></div></div>","p","","matchness_test_2","match","圆","p","true","match"
"","null","html-keynbutton-response","321","2.0.0","1457928","23","<div class=""pb-14 text-7xl"">+</div>","null","fixation","","","","","",""
"","386","html-keynbutton-response","322","2.0.0","1458316","23","<div class=""flex flex-row stim-length pb-8 md:pd-20 justify-evenly items-center""><div class=""square""></div><div class=""circle""></div><div class=""square""></div></div>","p","","matchness_test_2","mismatch","圆","q","false","match"
"","null","html-keynbutton-response","323","2.0.0","1458830","23","<div class=""pb-14 text-7xl"">+</div>","null","fixation","","","","","",""
"","477","html-keynbutton-response","324","2.0.0","1459308","23","<div class=""flex flex-row stim-length pb-8 md:pd-20 justify-evenly items-center""><div class=""square""></div><div class=""square""></div><div class=""square""></div></div>","p","","matchness_test_2","match","方","p","true","match"
"","null","html-keynbutton-response","325","2.0.0","1459814","23","<div class=""pb-14 text-7xl"">+</div>","null","fixation","","","","","",""
"","484","html-keynbutton-response","326","2.0.0","1460299","23","<div class=""flex flex-row stim-length pb-8 md:pd-20 justify-evenly items-center""><div class=""circle""></div><div class=""square""></div><div class=""circle""></div></div>","q","","matchness_test_2","mismatch","方","q","true","mismatch"
"","null","html-keynbutton-response","327","2.0.0","1460814","23","<div class=""pb-14 text-7xl"">+</div>","null","fixation","","","","","",""
"","493","html-keynbutton-response","328","2.0.0","1461307","23","<div class=""flex flex-row stim-length pb-8 md:pd-20 justify-evenly items-center""><div class=""square""></div><div class=""square""></div><div class=""square""></div></div>","p","","matchness_test_2","match","方","p","true","match"
"","null","html-keynbutton-response","329","2.0.0","1461813","23","<div class=""pb-14 text-7xl"">+</div>","null","fixation","","","","","",""
"","470","html-keynbutton-response","330","2.0.0","1462284","23","<div class=""flex flex-row stim-length pb-8 md:pd-20 justify-evenly items-center""><div class=""circle""></div><div class=""circle""></div><div class=""circle""></div></div>","p","","matchness_test_2","match","圆","p","true","match"
"","null","html-keynbutton-response","331","2.0.0","1462796","23","<div class=""pb-14 text-7xl"">+</div>","null","fixation","","","","","",""
"","350","html-keynbutton-response","332","2.0.0","1463147","23","<div class=""flex flex-row stim-length pb-8 md:pd-20 justify-evenly items-center""><div class=""square""></div><div class=""circle""></div><div class=""square""></div></div>","q","","matchness_test_2","mismatch","圆","q","true","mismatch"
"","null","html-keynbutton-response","333","2.0.0","1463662","23","<div class=""pb-14 text-7xl"">+</div>","null","fixation","","","","","",""
"","428","html-keynbutton-response","334","2.0.0","1464092","23","<div class=""flex flex-row stim-length pb-8 md:pd-20 justify-evenly items-center""><div class=""square""></div><div class=""square""></div><div class=""square""></div></div>","p","","matchness_test_2","match","方","p","true","match"
"","null","html-keynbutton-response","335","2.0.0","1464598","23","<div class=""pb-14 text-7xl"">+</div>","null","fixation","","","","","",""
"","420","html-keynbutton-response","336","2.0.0","1465020","23","<div class=""flex flex-row stim-length pb-8 md:pd-20 justify-evenly items-center""><div class=""circle""></div><div class=""square""></div><div class=""circle""></div></div>","q","","matchness_test_2","mismatch","方","q","true","mismatch"
"","null","html-keynbutton-response","337","2.0.0","1465528","23","<div class=""pb-14 text-7xl"">+</div>","null","fixation","","","","","",""
"","466","html-keynbutton-response","338","2.0.0","1465994","23","<div class=""flex flex-row stim-length pb-8 md:pd-20 justify-evenly items-center""><div class=""square""></div><div class=""circle""></div><div class=""square""></div></div>","q","","matchness_test_2","mismatch","圆","q","true","mismatch"
"","null","html-keynbutton-response","339","2.0.0","1466497","23","<div class=""pb-14 text-7xl"">+</div>","null","fixation","","","","","",""
"","473","html-keynbutton-response","340","2.0.0","1466970","23","<div class=""flex flex-row stim-length pb-8 md:pd-20 justify-evenly items-center""><div class=""circle""></div><div class=""circle""></div><div class=""circle""></div></div>","p","","matchness_test_2","match","圆","p","true","match"
"","null","html-keynbutton-response","341","2.0.0","1467479","23","<div class=""pb-14 text-7xl"">+</div>","null","fixation","","","","","",""
"","467","html-keynbutton-response","342","2.0.0","1467947","23","<div class=""flex flex-row stim-length pb-8 md:pd-20 justify-evenly items-center""><div class=""circle""></div><div class=""circle""></div><div class=""circle""></div></div>","p","","matchness_test_2","match","圆","p","true","match"
"","null","html-keynbutton-response","343","2.0.0","1468463","23","<div class=""pb-14 text-7xl"">+</div>","null","fixation","","","","","",""
"","492","html-keynbutton-response","344","2.0.0","1468956","23","<div class=""flex flex-row stim-length pb-8 md:pd-20 justify-evenly items-center""><div class=""square""></div><div class=""circle""></div><div class=""square""></div></div>","q","","matchness_test_2","mismatch","圆","q","true","mismatch"
"","null","html-keynbutton-response","345","2.0.0","1469462","23","<div class=""pb-14 text-7xl"">+</div>","null","fixation","","","","","",""
"","468","html-keynbutton-response","346","2.0.0","1469931","23","<div class=""flex flex-row stim-length pb-8 md:pd-20 justify-evenly items-center""><div class=""square""></div><div class=""square""></div><div class=""square""></div></div>","p","","matchness_test_2","match","方","p","true","match"
"","null","html-keynbutton-response","347","2.0.0","1470446","23","<div class=""pb-14 text-7xl"">+</div>","null","fixation","","","","","",""
"","428","html-keynbutton-response","348","2.0.0","1470875","23","<div class=""flex flex-row stim-length pb-8 md:pd-20 justify-evenly items-center""><div class=""circle""></div><div class=""square""></div><div class=""circle""></div></div>","q","","matchness_test_2","mismatch","方","q","true","mismatch"
"","null","html-keynbutton-response","349","2.0.0","1471382","23","<div class=""pb-14 text-7xl"">+</div>","null","fixation","","","","","",""
"","404","html-keynbutton-response","350","2.0.0","1471787","23","<div class=""flex flex-row stim-length pb-8 md:pd-20 justify-evenly items-center""><div class=""square""></div><div class=""circle""></div><div class=""square""></div></div>","q","","matchness_test_2","mismatch","圆","q","true","mismatch"
"","null","html-keynbutton-response","351","2.0.0","1472296","23","<div class=""pb-14 text-7xl"">+</div>","null","fixation","","","","","",""
"","418","html-keynbutton-response","352","2.0.0","1472716","23","<div class=""flex flex-row stim-length pb-8 md:pd-20 justify-evenly items-center""><div class=""square""></div><div class=""square""></div><div class=""square""></div></div>","p","","matchness_test_2","match","方","p","true","match"
"","null","html-keynbutton-response","353","2.0.0","1473227","23","<div class=""pb-14 text-7xl"">+</div>","null","fixation","","","","","",""
"","416","html-keynbutton-response","354","2.0.0","1473643","23","<div class=""flex flex-row stim-length pb-8 md:pd-20 justify-evenly items-center""><div class=""circle""></div><div class=""square""></div><div class=""circle""></div></div>","q","","matchness_test_2","mismatch","方","q","true","mismatch"
"","null","html-keynbutton-response","355","2.0.0","1474147","23","<div class=""pb-14 text-7xl"">+</div>","null","fixation","","","","","",""
"","568","html-keynbutton-response","356","2.0.0","1474716","23","<div class=""flex flex-row stim-length pb-8 md:pd-20 justify-evenly items-center""><div class=""circle""></div><div class=""circle""></div><div class=""circle""></div></div>","p","","matchness_test_2","match","圆","p","true","match"
"","null","html-keynbutton-response","357","2.0.0","1475229","23","<div class=""pb-14 text-7xl"">+</div>","null","fixation","","","","","",""
"","445","html-keynbutton-response","358","2.0.0","1475675","23","<div class=""flex flex-row stim-length pb-8 md:pd-20 justify-evenly items-center""><div class=""square""></div><div class=""square""></div><div class=""square""></div></div>","p","","matchness_test_2","match","方","p","true","match"
"","null","html-keynbutton-response","359","2.0.0","1476181","23","<div class=""pb-14 text-7xl"">+</div>","null","fixation","","","","","",""
"","389","html-keynbutton-response","360","2.0.0","1476571","23","<div class=""flex flex-row stim-length pb-8 md:pd-20 justify-evenly items-center""><div class=""square""></div><div class=""circle""></div><div class=""square""></div></div>","q","","matchness_test_2","mismatch","圆","q","true","mismatch"
"","null","html-keynbutton-response","361","2.0.0","1477079","23","<div class=""pb-14 text-7xl"">+</div>","null","fixation","","","","","",""
"","404","html-keynbutton-response","362","2.0.0","1477483","23","<div class=""flex flex-row stim-length pb-8 md:pd-20 justify-evenly items-center""><div class=""circle""></div><div class=""square""></div><div class=""circle""></div></div>","q","","matchness_test_2","mismatch","方","q","true","mismatch"
"","null","html-keynbutton-response","363","2.0.0","1477996","23","<div class=""pb-14 text-7xl"">+</div>","null","fixation","","","","","",""
"","303","html-keynbutton-response","364","2.0.0","1478300","23","<div class=""flex flex-row stim-length pb-8 md:pd-20 justify-evenly items-center""><div class=""circle""></div><div class=""circle""></div><div class=""circle""></div></div>","q","","matchness_test_2","match","圆","p","false","mismatch"
"","null","html-keynbutton-response","365","2.0.0","1478813","23","<div class=""pb-14 text-7xl"">+</div>","null","fixation","","","","","",""
"","606","html-keynbutton-response","366","2.0.0","1479419","23","<div class=""flex flex-row stim-length pb-8 md:pd-20 justify-evenly items-center""><div class=""square""></div><div class=""square""></div><div class=""square""></div></div>","p","","matchness_test_2","match","方","p","true","match"
"","null","html-keynbutton-response","367","2.0.0","1479929","23","<div class=""pb-14 text-7xl"">+</div>","null","fixation","","","","","",""
"","449","html-keynbutton-response","368","2.0.0","1480380","23","<div class=""flex flex-row stim-length pb-8 md:pd-20 justify-evenly items-center""><div class=""square""></div><div class=""circle""></div><div class=""square""></div></div>","q","","matchness_test_2","mismatch","圆","q","true","mismatch"
"","null","html-keynbutton-response","369","2.0.0","1480896","23","<div class=""pb-14 text-7xl"">+</div>","null","fixation","","","","","",""
"","507","html-keynbutton-response","370","2.0.0","1481403","23","<div class=""flex flex-row stim-length pb-8 md:pd-20 justify-evenly items-center""><div class=""circle""></div><div class=""circle""></div><div class=""circle""></div></div>","q","","matchness_test_2","match","圆","p","false","mismatch"
"","null","html-keynbutton-response","371","2.0.0","1481911","23","<div class=""pb-14 text-7xl"">+</div>","null","fixation","","","","","",""
"","435","html-keynbutton-response","372","2.0.0","1482348","23","<div class=""flex flex-row stim-length pb-8 md:pd-20 justify-evenly items-center""><div class=""circle""></div><div class=""square""></div><div class=""circle""></div></div>","q","","matchness_test_2","mismatch","方","q","true","mismatch"
"","1454","html-keynbutton-response","373","2.0.0","1483804","23","<div class=""jp""><p>您已完成3/10部分</p><p>请休息一会儿</p>
    <p>您的正确率是：90%</p>
    <p>您的平均反应时间是：444毫秒</p></div>"," ","block_feedback","","","","","",""
"","null","html-keynbutton-response","374","2.0.0","1487010","23","<count-down title=""""></count-down>","null","countDown_trial","","","","","",""
"","null","html-keynbutton-response","375","2.0.0","1487514","23","<div class=""pb-14 text-7xl"">+</div>","null","fixation","","","","","",""
"","561","html-keynbutton-response","376","2.0.0","1488075","23","<div class=""flex flex-row stim-length pb-8 md:pd-20 justify-evenly items-center""><div class=""circle""></div><div class=""circle""></div><div class=""circle""></div></div>","p","","matchness_test_3","match","圆","p","true","match"
"","null","html-keynbutton-response","377","2.0.0","1488581","23","<div class=""pb-14 text-7xl"">+</div>","null","fixation","","","","","",""
"","453","html-keynbutton-response","378","2.0.0","1489035","23","<div class=""flex flex-row stim-length pb-8 md:pd-20 justify-evenly items-center""><div class=""square""></div><div class=""circle""></div><div class=""square""></div></div>","q","","matchness_test_3","mismatch","圆","q","true","mismatch"
"","null","html-keynbutton-response","379","2.0.0","1489546","23","<div class=""pb-14 text-7xl"">+</div>","null","fixation","","","","","",""
"","432","html-keynbutton-response","380","2.0.0","1489979","23","<div class=""flex flex-row stim-length pb-8 md:pd-20 justify-evenly items-center""><div class=""circle""></div><div class=""square""></div><div class=""circle""></div></div>","q","","matchness_test_3","mismatch","方","q","true","mismatch"
"","null","html-keynbutton-response","381","2.0.0","1490480","23","<div class=""pb-14 text-7xl"">+</div>","null","fixation","","","","","",""
"","459","html-keynbutton-response","382","2.0.0","1490939","23","<div class=""flex flex-row stim-length pb-8 md:pd-20 justify-evenly items-center""><div class=""square""></div><div class=""square""></div><div class=""square""></div></div>","p","","matchness_test_3","match","方","p","true","match"
"","null","html-keynbutton-response","383","2.0.0","1491447","23","<div class=""pb-14 text-7xl"">+</div>","null","fixation","","","","","",""
"","562","html-keynbutton-response","384","2.0.0","1492010","23","<div class=""flex flex-row stim-length pb-8 md:pd-20 justify-evenly items-center""><div class=""square""></div><div class=""circle""></div><div class=""square""></div></div>","q","","matchness_test_3","mismatch","圆","q","true","mismatch"
"","null","html-keynbutton-response","385","2.0.0","1492514","23","<div class=""pb-14 text-7xl"">+</div>","null","fixation","","","","","",""
"","616","html-keynbutton-response","386","2.0.0","1493132","23","<div class=""flex flex-row stim-length pb-8 md:pd-20 justify-evenly items-center""><div class=""circle""></div><div class=""circle""></div><div class=""circle""></div></div>","p","","matchness_test_3","match","圆","p","true","match"
"","null","html-keynbutton-response","387","2.0.0","1493646","23","<div class=""pb-14 text-7xl"">+</div>","null","fixation","","","","","",""
"","412","html-keynbutton-response","388","2.0.0","1494058","23","<div class=""flex flex-row stim-length pb-8 md:pd-20 justify-evenly items-center""><div class=""circle""></div><div class=""square""></div><div class=""circle""></div></div>","q","","matchness_test_3","mismatch","方","q","true","mismatch"
"","null","html-keynbutton-response","389","2.0.0","1494564","23","<div class=""pb-14 text-7xl"">+</div>","null","fixation","","","","","",""
"","534","html-keynbutton-response","390","2.0.0","1495100","23","<div class=""flex flex-row stim-length pb-8 md:pd-20 justify-evenly items-center""><div class=""square""></div><div class=""square""></div><div class=""square""></div></div>","p","","matchness_test_3","match","方","p","true","match"
"","null","html-keynbutton-response","391","2.0.0","1495613","23","<div class=""pb-14 text-7xl"">+</div>","null","fixation","","","","","",""
"","413","html-keynbutton-response","392","2.0.0","1496027","23","<div class=""flex flex-row stim-length pb-8 md:pd-20 justify-evenly items-center""><div class=""circle""></div><div class=""square""></div><div class=""circle""></div></div>","q","","matchness_test_3","mismatch","方","q","true","mismatch"
"","null","html-keynbutton-response","393","2.0.0","1496531","23","<div class=""pb-14 text-7xl"">+</div>","null","fixation","","","","","",""
"","728","html-keynbutton-response","394","2.0.0","1497260","23","<div class=""flex flex-row stim-length pb-8 md:pd-20 justify-evenly items-center""><div class=""circle""></div><div class=""circle""></div><div class=""circle""></div></div>","p","","matchness_test_3","match","圆","p","true","match"
"","null","html-keynbutton-response","395","2.0.0","1497764","23","<div class=""pb-14 text-7xl"">+</div>","null","fixation","","","","","",""
"","454","html-keynbutton-response","396","2.0.0","1498219","23","<div class=""flex flex-row stim-length pb-8 md:pd-20 justify-evenly items-center""><div class=""square""></div><div class=""square""></div><div class=""square""></div></div>","p","","matchness_test_3","match","方","p","true","match"
"","null","html-keynbutton-response","397","2.0.0","1498730","23","<div class=""pb-14 text-7xl"">+</div>","null","fixation","","","","","",""
"","464","html-keynbutton-response","398","2.0.0","1499196","23","<div class=""flex flex-row stim-length pb-8 md:pd-20 justify-evenly items-center""><div class=""square""></div><div class=""circle""></div><div class=""square""></div></div>","q","","matchness_test_3","mismatch","圆","q","true","mismatch"
"","null","html-keynbutton-response","399","2.0.0","1499698","23","<div class=""pb-14 text-7xl"">+</div>","null","fixation","","","","","",""
"","457","html-keynbutton-response","400","2.0.0","1500156","23","<div class=""flex flex-row stim-length pb-8 md:pd-20 justify-evenly items-center""><div class=""circle""></div><div class=""circle""></div><div class=""circle""></div></div>","p","","matchness_test_3","match","圆","p","true","match"
"","null","html-keynbutton-response","401","2.0.0","1500663","23","<div class=""pb-14 text-7xl"">+</div>","null","fixation","","","","","",""
"","403","html-keynbutton-response","402","2.0.0","1501067","23","<div class=""flex flex-row stim-length pb-8 md:pd-20 justify-evenly items-center""><div class=""square""></div><div class=""square""></div><div class=""square""></div></div>","p","","matchness_test_3","match","方","p","true","match"
"","null","html-keynbutton-response","403","2.0.0","1501580","23","<div class=""pb-14 text-7xl"">+</div>","null","fixation","","","","","",""
"","431","html-keynbutton-response","404","2.0.0","1502011","23","<div class=""flex flex-row stim-length pb-8 md:pd-20 justify-evenly items-center""><div class=""square""></div><div class=""circle""></div><div class=""square""></div></div>","q","","matchness_test_3","mismatch","圆","q","true","mismatch"
"","null","html-keynbutton-response","405","2.0.0","1502514","23","<div class=""pb-14 text-7xl"">+</div>","null","fixation","","","","","",""
"","473","html-keynbutton-response","406","2.0.0","1502987","23","<div class=""flex flex-row stim-length pb-8 md:pd-20 justify-evenly items-center""><div class=""circle""></div><div class=""square""></div><div class=""circle""></div></div>","q","","matchness_test_3","mismatch","方","q","true","mismatch"
"","null","html-keynbutton-response","407","2.0.0","1503495","23","<div class=""pb-14 text-7xl"">+</div>","null","fixation","","","","","",""
"","483","html-keynbutton-response","408","2.0.0","1503979","23","<div class=""flex flex-row stim-length pb-8 md:pd-20 justify-evenly items-center""><div class=""square""></div><div class=""square""></div><div class=""square""></div></div>","p","","matchness_test_3","match","方","p","true","match"
"","null","html-keynbutton-response","409","2.0.0","1504480","23","<div class=""pb-14 text-7xl"">+</div>","null","fixation","","","","","",""
"","394","html-keynbutton-response","410","2.0.0","1504875","23","<div class=""flex flex-row stim-length pb-8 md:pd-20 justify-evenly items-center""><div class=""square""></div><div class=""circle""></div><div class=""square""></div></div>","q","","matchness_test_3","mismatch","圆","q","true","mismatch"
"","null","html-keynbutton-response","411","2.0.0","1505382","23","<div class=""pb-14 text-7xl"">+</div>","null","fixation","","","","","",""
"","484","html-keynbutton-response","412","2.0.0","1505867","23","<div class=""flex flex-row stim-length pb-8 md:pd-20 justify-evenly items-center""><div class=""circle""></div><div class=""square""></div><div class=""circle""></div></div>","q","","matchness_test_3","mismatch","方","q","true","mismatch"
"","null","html-keynbutton-response","413","2.0.0","1506379","23","<div class=""pb-14 text-7xl"">+</div>","null","fixation","","","","","",""
"","559","html-keynbutton-response","414","2.0.0","1506939","23","<div class=""flex flex-row stim-length pb-8 md:pd-20 justify-evenly items-center""><div class=""circle""></div><div class=""circle""></div><div class=""circle""></div></div>","p","","matchness_test_3","match","圆","p","true","match"
"","null","html-keynbutton-response","415","2.0.0","1507447","23","<div class=""pb-14 text-7xl"">+</div>","null","fixation","","","","","",""
"","404","html-keynbutton-response","416","2.0.0","1507851","23","<div class=""flex flex-row stim-length pb-8 md:pd-20 justify-evenly items-center""><div class=""circle""></div><div class=""circle""></div><div class=""circle""></div></div>","p","","matchness_test_3","match","圆","p","true","match"
"","null","html-keynbutton-response","417","2.0.0","1508362","23","<div class=""pb-14 text-7xl"">+</div>","null","fixation","","","","","",""
"","432","html-keynbutton-response","418","2.0.0","1508795","23","<div class=""flex flex-row stim-length pb-8 md:pd-20 justify-evenly items-center""><div class=""square""></div><div class=""circle""></div><div class=""square""></div></div>","q","","matchness_test_3","mismatch","圆","q","true","mismatch"
"","null","html-keynbutton-response","419","2.0.0","1509298","23","<div class=""pb-14 text-7xl"">+</div>","null","fixation","","","","","",""
"","473","html-keynbutton-response","420","2.0.0","1509771","23","<div class=""flex flex-row stim-length pb-8 md:pd-20 justify-evenly items-center""><div class=""square""></div><div class=""square""></div><div class=""square""></div></div>","p","","matchness_test_3","match","方","p","true","match"
"","null","html-keynbutton-response","421","2.0.0","1510279","23","<div class=""pb-14 text-7xl"">+</div>","null","fixation","","","","","",""
"","371","html-keynbutton-response","422","2.0.0","1510651","23","<div class=""flex flex-row stim-length pb-8 md:pd-20 justify-evenly items-center""><div class=""circle""></div><div class=""square""></div><div class=""circle""></div></div>","q","","matchness_test_3","mismatch","方","q","true","mismatch"
"","null","html-keynbutton-response","423","2.0.0","1511162","23","<div class=""pb-14 text-7xl"">+</div>","null","fixation","","","","","",""
"","544","html-keynbutton-response","424","2.0.0","1511707","23","<div class=""flex flex-row stim-length pb-8 md:pd-20 justify-evenly items-center""><div class=""square""></div><div class=""circle""></div><div class=""square""></div></div>","q","","matchness_test_3","mismatch","圆","q","true","mismatch"
"","null","html-keynbutton-response","425","2.0.0","1512214","23","<div class=""pb-14 text-7xl"">+</div>","null","fixation","","","","","",""
"","405","html-keynbutton-response","426","2.0.0","1512620","23","<div class=""flex flex-row stim-length pb-8 md:pd-20 justify-evenly items-center""><div class=""circle""></div><div class=""square""></div><div class=""circle""></div></div>","q","","matchness_test_3","mismatch","方","q","true","mismatch"
"","null","html-keynbutton-response","427","2.0.0","1513129","23","<div class=""pb-14 text-7xl"">+</div>","null","fixation","","","","","",""
"","417","html-keynbutton-response","428","2.0.0","1513547","23","<div class=""flex flex-row stim-length pb-8 md:pd-20 justify-evenly items-center""><div class=""square""></div><div class=""square""></div><div class=""square""></div></div>","p","","matchness_test_3","match","方","p","true","match"
"","null","html-keynbutton-response","429","2.0.0","1514062","23","<div class=""pb-14 text-7xl"">+</div>","null","fixation","","","","","",""
"","412","html-keynbutton-response","430","2.0.0","1514475","23","<div class=""flex flex-row stim-length pb-8 md:pd-20 justify-evenly items-center""><div class=""circle""></div><div class=""circle""></div><div class=""circle""></div></div>","p","","matchness_test_3","match","圆","p","true","match"
"","null","html-keynbutton-response","431","2.0.0","1514982","23","<div class=""pb-14 text-7xl"">+</div>","null","fixation","","","","","",""
"","468","html-keynbutton-response","432","2.0.0","1515450","23","<div class=""flex flex-row stim-length pb-8 md:pd-20 justify-evenly items-center""><div class=""square""></div><div class=""circle""></div><div class=""square""></div></div>","q","","matchness_test_3","mismatch","圆","q","true","mismatch"
"","null","html-keynbutton-response","433","2.0.0","1515963","23","<div class=""pb-14 text-7xl"">+</div>","null","fixation","","","","","",""
"","431","html-keynbutton-response","434","2.0.0","1516395","23","<div class=""flex flex-row stim-length pb-8 md:pd-20 justify-evenly items-center""><div class=""circle""></div><div class=""square""></div><div class=""circle""></div></div>","q","","matchness_test_3","mismatch","方","q","true","mismatch"
"","null","html-keynbutton-response","435","2.0.0","1516897","23","<div class=""pb-14 text-7xl"">+</div>","null","fixation","","","","","",""
"","490","html-keynbutton-response","436","2.0.0","1517387","23","<div class=""flex flex-row stim-length pb-8 md:pd-20 justify-evenly items-center""><div class=""square""></div><div class=""square""></div><div class=""square""></div></div>","p","","matchness_test_3","match","方","p","true","match"
"","null","html-keynbutton-response","437","2.0.0","1517895","23","<div class=""pb-14 text-7xl"">+</div>","null","fixation","","","","","",""
"","388","html-keynbutton-response","438","2.0.0","1518283","23","<div class=""flex flex-row stim-length pb-8 md:pd-20 justify-evenly items-center""><div class=""circle""></div><div class=""circle""></div><div class=""circle""></div></div>","p","","matchness_test_3","match","圆","p","true","match"
"","null","html-keynbutton-response","439","2.0.0","1518796","23","<div class=""pb-14 text-7xl"">+</div>","null","fixation","","","","","",""
"","367","html-keynbutton-response","440","2.0.0","1519163","23","<div class=""flex flex-row stim-length pb-8 md:pd-20 justify-evenly items-center""><div class=""circle""></div><div class=""circle""></div><div class=""circle""></div></div>","p","","matchness_test_3","match","圆","p","true","match"
"","null","html-keynbutton-response","441","2.0.0","1519679","23","<div class=""pb-14 text-7xl"">+</div>","null","fixation","","","","","",""
"","347","html-keynbutton-response","442","2.0.0","1520027","23","<div class=""flex flex-row stim-length pb-8 md:pd-20 justify-evenly items-center""><div class=""circle""></div><div class=""square""></div><div class=""circle""></div></div>","q","","matchness_test_3","mismatch","方","q","true","mismatch"
"","null","html-keynbutton-response","443","2.0.0","1520530","23","<div class=""pb-14 text-7xl"">+</div>","null","fixation","","","","","",""
"","361","html-keynbutton-response","444","2.0.0","1520892","23","<div class=""flex flex-row stim-length pb-8 md:pd-20 justify-evenly items-center""><div class=""square""></div><div class=""square""></div><div class=""square""></div></div>","p","","matchness_test_3","match","方","p","true","match"
"","null","html-keynbutton-response","445","2.0.0","1521398","23","<div class=""pb-14 text-7xl"">+</div>","null","fixation","","","","","",""
"","309","html-keynbutton-response","446","2.0.0","1521707","23","<div class=""flex flex-row stim-length pb-8 md:pd-20 justify-evenly items-center""><div class=""square""></div><div class=""circle""></div><div class=""square""></div></div>","q","","matchness_test_3","mismatch","圆","q","true","mismatch"
"","null","html-keynbutton-response","447","2.0.0","1522214","23","<div class=""pb-14 text-7xl"">+</div>","null","fixation","","","","","",""
"","437","html-keynbutton-response","448","2.0.0","1522651","23","<div class=""flex flex-row stim-length pb-8 md:pd-20 justify-evenly items-center""><div class=""circle""></div><div class=""square""></div><div class=""circle""></div></div>","q","","matchness_test_3","mismatch","方","q","true","mismatch"
"","null","html-keynbutton-response","449","2.0.0","1523162","23","<div class=""pb-14 text-7xl"">+</div>","null","fixation","","","","","",""
"","384","html-keynbutton-response","450","2.0.0","1523547","23","<div class=""flex flex-row stim-length pb-8 md:pd-20 justify-evenly items-center""><div class=""square""></div><div class=""circle""></div><div class=""square""></div></div>","q","","matchness_test_3","mismatch","圆","q","true","mismatch"
"","null","html-keynbutton-response","451","2.0.0","1524063","23","<div class=""pb-14 text-7xl"">+</div>","null","fixation","","","","","",""
"","380","html-keynbutton-response","452","2.0.0","1524443","23","<div class=""flex flex-row stim-length pb-8 md:pd-20 justify-evenly items-center""><div class=""square""></div><div class=""square""></div><div class=""square""></div></div>","p","","matchness_test_3","match","方","p","true","match"
"","null","html-keynbutton-response","453","2.0.0","1524947","23","<div class=""pb-14 text-7xl"">+</div>","null","fixation","","","","","",""
"","375","html-keynbutton-response","454","2.0.0","1525322","23","<div class=""flex flex-row stim-length pb-8 md:pd-20 justify-evenly items-center""><div class=""circle""></div><div class=""circle""></div><div class=""circle""></div></div>","p","","matchness_test_3","match","圆","p","true","match"
"","1808","html-keynbutton-response","455","2.0.0","1527131","23","<div class=""jp""><p>您已完成4/10部分</p><p>请休息一会儿</p>
    <p>您的正确率是：100%</p>
    <p>您的平均反应时间是：449毫秒</p></div>"," ","block_feedback","","","","","",""
"","null","html-keynbutton-response","456","2.0.0","1530343","23","<count-down title=""""></count-down>","null","countDown_trial","","","","","",""
"","null","html-keynbutton-response","457","2.0.0","1530848","23","<div class=""pb-14 text-7xl"">+</div>","null","fixation","","","","","",""
"","443","html-keynbutton-response","458","2.0.0","1531291","23","<div class=""flex flex-row stim-length pb-8 md:pd-20 justify-evenly items-center""><div class=""circle""></div><div class=""circle""></div><div class=""circle""></div></div>","p","","matchness_test_4","match","圆","p","true","match"
"","null","html-keynbutton-response","459","2.0.0","1531798","23","<div class=""pb-14 text-7xl"">+</div>","null","fixation","","","","","",""
