"success","rt","trial_type","trial_index","plugin_version","time_elapsed","subj_id","stimulus","response","trail_tag","task","ismatch","target","correct_key","correct","response_key"
"true","1911349","fullscreen","0","2.0.0","1912362","13","","","","","","","","",""
"","14468","html-keynbutton-response","1","2.0.0","1926833","13","
        <div class=""jp px-2 xxs:px-5 mx-auto"">
        <p class=""text-center text-red-600 text-[1.2em] pb-5"">欢迎您参加知觉
          <strong>匹配实验。</strong>
        </p>
        <p>接下来的任务中您将看到一排图形。</p>
        <p>(圆形●或方形■)</p><p>您需要专注于中间的图形，判断中间的图形和两侧的图形<strong>是否匹配</strong>。</p>
        <p>如果图形不匹配，请按“q”；</p>
        <p>如果图形匹配，请按“p”。</p>
        <p>请尽量又快又准地做出反应。</p>
      <p>请按空格键开始练习。</p>
      </div>"," ","","","","","","",""
"","null","html-keynbutton-response","2","2.0.0","1930041","13","<count-down title=""""></count-down>","null","countDown_trial","","","","","",""
"","null","html-keynbutton-response","3","2.0.0","1930546","13","<div class=""pb-14 text-7xl"">+</div>","null","fixation","","","","","",""
"","1943","html-keynbutton-response","4","2.0.0","1932491","13","<div class=""flex flex-row stim-length pb-8 md:pd-20 justify-evenly items-center""><div class=""square""></div><div class=""circle""></div><div class=""square""></div></div>","q","","matchness_practice","mismatch","圆","q","true","mismatch"
"","null","html-keynbutton-response","5","2.0.0","1932995","13","<span class='text-yellow-500 text-4xl md:text-5xl lg:text-6xl'>太慢!</span>","null","trial_feedback","","","","","",""
"","null","html-keynbutton-response","6","2.0.0","1933510","13","<div class=""pb-14 text-7xl"">+</div>","null","fixation","","","","","",""
"","995","html-keynbutton-response","7","2.0.0","1934506","13","<div class=""flex flex-row stim-length pb-8 md:pd-20 justify-evenly items-center""><div class=""circle""></div><div class=""circle""></div><div class=""circle""></div></div>","q","","matchness_practice","match","圆","p","false","mismatch"
"","null","html-keynbutton-response","8","2.0.0","1935013","13","<span class='text-red-500 text-4xl md:text-5xl lg:text-6xl'>错误!</span>","null","trial_feedback","","","","","",""
"","null","html-keynbutton-response","9","2.0.0","1935527","13","<div class=""pb-14 text-7xl"">+</div>","null","fixation","","","","","",""
"","720","html-keynbutton-response","10","2.0.0","1936249","13","<div class=""flex flex-row stim-length pb-8 md:pd-20 justify-evenly items-center""><div class=""circle""></div><div class=""square""></div><div class=""circle""></div></div>","q","","matchness_practice","mismatch","方","q","true","mismatch"
"","null","html-keynbutton-response","11","2.0.0","1936760","13","<span class='text-green-400 text-4xl md:text-5xl lg:text-6xl'>正确!</span>","null","trial_feedback","","","","","",""
"","null","html-keynbutton-response","12","2.0.0","1937262","13","<div class=""pb-14 text-7xl"">+</div>","null","fixation","","","","","",""
"","923","html-keynbutton-response","13","2.0.0","1938186","13","<div class=""flex flex-row stim-length pb-8 md:pd-20 justify-evenly items-center""><div class=""square""></div><div class=""square""></div><div class=""square""></div></div>","q","","matchness_practice","match","方","p","false","mismatch"
"","null","html-keynbutton-response","14","2.0.0","1938693","13","<span class='text-red-500 text-4xl md:text-5xl lg:text-6xl'>错误!</span>","null","trial_feedback","","","","","",""
"","null","html-keynbutton-response","15","2.0.0","1939195","13","<div class=""pb-14 text-7xl"">+</div>","null","fixation","","","","","",""
"","894","html-keynbutton-response","16","2.0.0","1940090","13","<div class=""flex flex-row stim-length pb-8 md:pd-20 justify-evenly items-center""><div class=""circle""></div><div class=""circle""></div><div class=""circle""></div></div>","p","","matchness_practice","match","圆","p","true","match"
"","null","html-keynbutton-response","17","2.0.0","1940594","13","<span class='text-green-400 text-4xl md:text-5xl lg:text-6xl'>正确!</span>","null","trial_feedback","","","","","",""
"","null","html-keynbutton-response","18","2.0.0","1941110","13","<div class=""pb-14 text-7xl"">+</div>","null","fixation","","","","","",""
"","819","html-keynbutton-response","19","2.0.0","1941930","13","<div class=""flex flex-row stim-length pb-8 md:pd-20 justify-evenly items-center""><div class=""circle""></div><div class=""square""></div><div class=""circle""></div></div>","q","","matchness_practice","mismatch","方","q","true","mismatch"
"","null","html-keynbutton-response","20","2.0.0","1942444","13","<span class='text-green-400 text-4xl md:text-5xl lg:text-6xl'>正确!</span>","null","trial_feedback","","","","","",""
"","null","html-keynbutton-response","21","2.0.0","1942960","13","<div class=""pb-14 text-7xl"">+</div>","null","fixation","","","","","",""
"","521","html-keynbutton-response","22","2.0.0","1943482","13","<div class=""flex flex-row stim-length pb-8 md:pd-20 justify-evenly items-center""><div class=""square""></div><div class=""square""></div><div class=""square""></div></div>","p","","matchness_practice","match","方","p","true","match"
"","null","html-keynbutton-response","23","2.0.0","1943993","13","<span class='text-green-400 text-4xl md:text-5xl lg:text-6xl'>正确!</span>","null","trial_feedback","","","","","",""
"","null","html-keynbutton-response","24","2.0.0","1944510","13","<div class=""pb-14 text-7xl"">+</div>","null","fixation","","","","","",""
"","794","html-keynbutton-response","25","2.0.0","1945305","13","<div class=""flex flex-row stim-length pb-8 md:pd-20 justify-evenly items-center""><div class=""square""></div><div class=""circle""></div><div class=""square""></div></div>","q","","matchness_practice","mismatch","圆","q","true","mismatch"
"","null","html-keynbutton-response","26","2.0.0","1945811","13","<span class='text-green-400 text-4xl md:text-5xl lg:text-6xl'>正确!</span>","null","trial_feedback","","","","","",""
"","null","html-keynbutton-response","27","2.0.0","1946326","13","<div class=""pb-14 text-7xl"">+</div>","null","fixation","","","","","",""
"","546","html-keynbutton-response","28","2.0.0","1946874","13","<div class=""flex flex-row stim-length pb-8 md:pd-20 justify-evenly items-center""><div class=""square""></div><div class=""square""></div><div class=""square""></div></div>","p","","matchness_practice","match","方","p","true","match"
"","null","html-keynbutton-response","29","2.0.0","1947379","13","<span class='text-green-400 text-4xl md:text-5xl lg:text-6xl'>正确!</span>","null","trial_feedback","","","","","",""
"","null","html-keynbutton-response","30","2.0.0","1947893","13","<div class=""pb-14 text-7xl"">+</div>","null","fixation","","","","","",""
"","628","html-keynbutton-response","31","2.0.0","1948522","13","<div class=""flex flex-row stim-length pb-8 md:pd-20 justify-evenly items-center""><div class=""circle""></div><div class=""circle""></div><div class=""circle""></div></div>","p","","matchness_practice","match","圆","p","true","match"
"","null","html-keynbutton-response","32","2.0.0","1949028","13","<span class='text-green-400 text-4xl md:text-5xl lg:text-6xl'>正确!</span>","null","trial_feedback","","","","","",""
"","null","html-keynbutton-response","33","2.0.0","1949543","13","<div class=""pb-14 text-7xl"">+</div>","null","fixation","","","","","",""
"","562","html-keynbutton-response","34","2.0.0","1950106","13","<div class=""flex flex-row stim-length pb-8 md:pd-20 justify-evenly items-center""><div class=""square""></div><div class=""circle""></div><div class=""square""></div></div>","q","","matchness_practice","mismatch","圆","q","true","mismatch"
"","null","html-keynbutton-response","35","2.0.0","1950612","13","<span class='text-green-400 text-4xl md:text-5xl lg:text-6xl'>正确!</span>","null","trial_feedback","","","","","",""
"","null","html-keynbutton-response","36","2.0.0","1951126","13","<div class=""pb-14 text-7xl"">+</div>","null","fixation","","","","","",""
"","1202","html-keynbutton-response","37","2.0.0","1952330","13","<div class=""flex flex-row stim-length pb-8 md:pd-20 justify-evenly items-center""><div class=""circle""></div><div class=""square""></div><div class=""circle""></div></div>","q","","matchness_practice","mismatch","方","q","true","mismatch"
"","null","html-keynbutton-response","38","2.0.0","1952844","13","<span class='text-green-400 text-4xl md:text-5xl lg:text-6xl'>正确!</span>","null","trial_feedback","","","","","",""
"","null","html-keynbutton-response","39","2.0.0","1953360","13","<div class=""pb-14 text-7xl"">+</div>","null","fixation","","","","","",""
"","617","html-keynbutton-response","40","2.0.0","1953978","13","<div class=""flex flex-row stim-length pb-8 md:pd-20 justify-evenly items-center""><div class=""circle""></div><div class=""circle""></div><div class=""circle""></div></div>","p","","matchness_practice","match","圆","p","true","match"
"","null","html-keynbutton-response","41","2.0.0","1954493","13","<span class='text-green-400 text-4xl md:text-5xl lg:text-6xl'>正确!</span>","null","trial_feedback","","","","","",""
"","null","html-keynbutton-response","42","2.0.0","1955010","13","<div class=""pb-14 text-7xl"">+</div>","null","fixation","","","","","",""
"","1191","html-keynbutton-response","43","2.0.0","1956202","13","<div class=""flex flex-row stim-length pb-8 md:pd-20 justify-evenly items-center""><div class=""square""></div><div class=""circle""></div><div class=""square""></div></div>","q","","matchness_practice","mismatch","圆","q","true","mismatch"
"","null","html-keynbutton-response","44","2.0.0","1956709","13","<span class='text-green-400 text-4xl md:text-5xl lg:text-6xl'>正确!</span>","null","trial_feedback","","","","","",""
"","null","html-keynbutton-response","45","2.0.0","1957211","13","<div class=""pb-14 text-7xl"">+</div>","null","fixation","","","","","",""
"","621","html-keynbutton-response","46","2.0.0","1957834","13","<div class=""flex flex-row stim-length pb-8 md:pd-20 justify-evenly items-center""><div class=""circle""></div><div class=""square""></div><div class=""circle""></div></div>","q","","matchness_practice","mismatch","方","q","true","mismatch"
"","null","html-keynbutton-response","47","2.0.0","1958342","13","<span class='text-green-400 text-4xl md:text-5xl lg:text-6xl'>正确!</span>","null","trial_feedback","","","","","",""
"","null","html-keynbutton-response","48","2.0.0","1958844","13","<div class=""pb-14 text-7xl"">+</div>","null","fixation","","","","","",""
"","413","html-keynbutton-response","49","2.0.0","1959258","13","<div class=""flex flex-row stim-length pb-8 md:pd-20 justify-evenly items-center""><div class=""square""></div><div class=""square""></div><div class=""square""></div></div>","p","","matchness_practice","match","方","p","true","match"
"","null","html-keynbutton-response","50","2.0.0","1959761","13","<span class='text-green-400 text-4xl md:text-5xl lg:text-6xl'>正确!</span>","null","trial_feedback","","","","","",""
"","null","html-keynbutton-response","51","2.0.0","1960276","13","<div class=""pb-14 text-7xl"">+</div>","null","fixation","","","","","",""
"","420","html-keynbutton-response","52","2.0.0","1960697","13","<div class=""flex flex-row stim-length pb-8 md:pd-20 justify-evenly items-center""><div class=""circle""></div><div class=""square""></div><div class=""circle""></div></div>","q","","matchness_practice","mismatch","方","q","true","mismatch"
"","null","html-keynbutton-response","53","2.0.0","1961210","13","<span class='text-green-400 text-4xl md:text-5xl lg:text-6xl'>正确!</span>","null","trial_feedback","","","","","",""
"","null","html-keynbutton-response","54","2.0.0","1961715","13","<div class=""pb-14 text-7xl"">+</div>","null","fixation","","","","","",""
"","518","html-keynbutton-response","55","2.0.0","1962234","13","<div class=""flex flex-row stim-length pb-8 md:pd-20 justify-evenly items-center""><div class=""square""></div><div class=""circle""></div><div class=""square""></div></div>","q","","matchness_practice","mismatch","圆","q","true","mismatch"
"","null","html-keynbutton-response","56","2.0.0","1962744","13","<span class='text-green-400 text-4xl md:text-5xl lg:text-6xl'>正确!</span>","null","trial_feedback","","","","","",""
"","null","html-keynbutton-response","57","2.0.0","1963251","13","<div class=""pb-14 text-7xl"">+</div>","null","fixation","","","","","",""
"","341","html-keynbutton-response","58","2.0.0","1963594","13","<div class=""flex flex-row stim-length pb-8 md:pd-20 justify-evenly items-center""><div class=""circle""></div><div class=""circle""></div><div class=""circle""></div></div>","p","","matchness_practice","match","圆","p","true","match"
"","null","html-keynbutton-response","59","2.0.0","1964110","13","<span class='text-green-400 text-4xl md:text-5xl lg:text-6xl'>正确!</span>","null","trial_feedback","","","","","",""
"","null","html-keynbutton-response","60","2.0.0","1964611","13","<div class=""pb-14 text-7xl"">+</div>","null","fixation","","","","","",""
"","533","html-keynbutton-response","61","2.0.0","1965146","13","<div class=""flex flex-row stim-length pb-8 md:pd-20 justify-evenly items-center""><div class=""square""></div><div class=""square""></div><div class=""square""></div></div>","p","","matchness_practice","match","方","p","true","match"
"","null","html-keynbutton-response","62","2.0.0","1965660","13","<span class='text-green-400 text-4xl md:text-5xl lg:text-6xl'>正确!</span>","null","trial_feedback","","","","","",""
"","3257","html-keynbutton-response","64","2.0.0","1968922","13","<div class=""jp"">
    <p>您的正确率是：90%</p>
    <p>您的平均反应时间是：760毫秒</p></div>"," ","block_feedback","","","","","",""
"","3086","html-keynbutton-response","65","2.0.0","1972006","13","
        <div class=""jp px-2 xxs:px-5 mx-auto"">
        <p class=""text-center text-red-600 text-[1.2em] pb-5"">练习结束，现在开始正式实验</p>
        <p>请注意：正式实验中将不再会呈现反馈。</p>
        </div>
        "," ","","","","","","",""
"","null","html-keynbutton-response","66","2.0.0","1975220","13","<count-down title=""""></count-down>","null","countDown_trial","","","","","",""
"","null","html-keynbutton-response","67","2.0.0","1975723","13","<div class=""pb-14 text-7xl"">+</div>","null","fixation","","","","","",""
"","569","html-keynbutton-response","68","2.0.0","1976294","13","<div class=""flex flex-row stim-length pb-8 md:pd-20 justify-evenly items-center""><div class=""square""></div><div class=""circle""></div><div class=""square""></div></div>","q","","matchness_test","mismatch","圆","q","true","mismatch"
"","null","html-keynbutton-response","69","2.0.0","1976799","13","<div class=""pb-14 text-7xl"">+</div>","null","fixation","","","","","",""
"","453","html-keynbutton-response","70","2.0.0","1977254","13","<div class=""flex flex-row stim-length pb-8 md:pd-20 justify-evenly items-center""><div class=""square""></div><div class=""square""></div><div class=""square""></div></div>","p","","matchness_test","match","方","p","true","match"
"","null","html-keynbutton-response","71","2.0.0","1977758","13","<div class=""pb-14 text-7xl"">+</div>","null","fixation","","","","","",""
"","375","html-keynbutton-response","72","2.0.0","1978133","13","<div class=""flex flex-row stim-length pb-8 md:pd-20 justify-evenly items-center""><div class=""circle""></div><div class=""square""></div><div class=""circle""></div></div>","q","","matchness_test","mismatch","方","q","true","mismatch"
"","null","html-keynbutton-response","73","2.0.0","1978639","13","<div class=""pb-14 text-7xl"">+</div>","null","fixation","","","","","",""
"","390","html-keynbutton-response","74","2.0.0","1979030","13","<div class=""flex flex-row stim-length pb-8 md:pd-20 justify-evenly items-center""><div class=""circle""></div><div class=""circle""></div><div class=""circle""></div></div>","q","","matchness_test","match","圆","p","false","mismatch"
"","null","html-keynbutton-response","75","2.0.0","1979539","13","<div class=""pb-14 text-7xl"">+</div>","null","fixation","","","","","",""
"","546","html-keynbutton-response","76","2.0.0","1980086","13","<div class=""flex flex-row stim-length pb-8 md:pd-20 justify-evenly items-center""><div class=""square""></div><div class=""circle""></div><div class=""square""></div></div>","q","","matchness_test","mismatch","圆","q","true","mismatch"
"","null","html-keynbutton-response","77","2.0.0","1980592","13","<div class=""pb-14 text-7xl"">+</div>","null","fixation","","","","","",""
"","581","html-keynbutton-response","78","2.0.0","1981174","13","<div class=""flex flex-row stim-length pb-8 md:pd-20 justify-evenly items-center""><div class=""circle""></div><div class=""square""></div><div class=""circle""></div></div>","p","","matchness_test","mismatch","方","q","false","match"
"","null","html-keynbutton-response","79","2.0.0","1981690","13","<div class=""pb-14 text-7xl"">+</div>","null","fixation","","","","","",""
"","587","html-keynbutton-response","80","2.0.0","1982278","13","<div class=""flex flex-row stim-length pb-8 md:pd-20 justify-evenly items-center""><div class=""square""></div><div class=""square""></div><div class=""square""></div></div>","p","","matchness_test","match","方","p","true","match"
"","null","html-keynbutton-response","81","2.0.0","1982790","13","<div class=""pb-14 text-7xl"">+</div>","null","fixation","","","","","",""
"","495","html-keynbutton-response","82","2.0.0","1983286","13","<div class=""flex flex-row stim-length pb-8 md:pd-20 justify-evenly items-center""><div class=""circle""></div><div class=""circle""></div><div class=""circle""></div></div>","p","","matchness_test","match","圆","p","true","match"
"","null","html-keynbutton-response","83","2.0.0","1983791","13","<div class=""pb-14 text-7xl"">+</div>","null","fixation","","","","","",""
"","566","html-keynbutton-response","84","2.0.0","1984358","13","<div class=""flex flex-row stim-length pb-8 md:pd-20 justify-evenly items-center""><div class=""square""></div><div class=""circle""></div><div class=""square""></div></div>","q","","matchness_test","mismatch","圆","q","true","mismatch"
"","null","html-keynbutton-response","85","2.0.0","1984872","13","<div class=""pb-14 text-7xl"">+</div>","null","fixation","","","","","",""
"","492","html-keynbutton-response","86","2.0.0","1985365","13","<div class=""flex flex-row stim-length pb-8 md:pd-20 justify-evenly items-center""><div class=""square""></div><div class=""square""></div><div class=""square""></div></div>","p","","matchness_test","match","方","p","true","match"
"","null","html-keynbutton-response","87","2.0.0","1985873","13","<div class=""pb-14 text-7xl"">+</div>","null","fixation","","","","","",""
"","372","html-keynbutton-response","88","2.0.0","1986246","13","<div class=""flex flex-row stim-length pb-8 md:pd-20 justify-evenly items-center""><div class=""circle""></div><div class=""square""></div><div class=""circle""></div></div>","q","","matchness_test","mismatch","方","q","true","mismatch"
"","null","html-keynbutton-response","89","2.0.0","1986757","13","<div class=""pb-14 text-7xl"">+</div>","null","fixation","","","","","",""
"","416","html-keynbutton-response","90","2.0.0","1987174","13","<div class=""flex flex-row stim-length pb-8 md:pd-20 justify-evenly items-center""><div class=""circle""></div><div class=""circle""></div><div class=""circle""></div></div>","p","","matchness_test","match","圆","p","true","match"
"","null","html-keynbutton-response","91","2.0.0","1987689","13","<div class=""pb-14 text-7xl"">+</div>","null","fixation","","","","","",""
"","380","html-keynbutton-response","92","2.0.0","1988070","13","<div class=""flex flex-row stim-length pb-8 md:pd-20 justify-evenly items-center""><div class=""square""></div><div class=""square""></div><div class=""square""></div></div>","p","","matchness_test","match","方","p","true","match"
"","null","html-keynbutton-response","93","2.0.0","1988581","13","<div class=""pb-14 text-7xl"">+</div>","null","fixation","","","","","",""
"","431","html-keynbutton-response","94","2.0.0","1989014","13","<div class=""flex flex-row stim-length pb-8 md:pd-20 justify-evenly items-center""><div class=""square""></div><div class=""circle""></div><div class=""square""></div></div>","q","","matchness_test","mismatch","圆","q","true","mismatch"
"","null","html-keynbutton-response","95","2.0.0","1989523","13","<div class=""pb-14 text-7xl"">+</div>","null","fixation","","","","","",""
"","466","html-keynbutton-response","96","2.0.0","1989990","13","<div class=""flex flex-row stim-length pb-8 md:pd-20 justify-evenly items-center""><div class=""circle""></div><div class=""circle""></div><div class=""circle""></div></div>","p","","matchness_test","match","圆","p","true","match"
"","null","html-keynbutton-response","97","2.0.0","1990506","13","<div class=""pb-14 text-7xl"">+</div>","null","fixation","","","","","",""
"","619","html-keynbutton-response","98","2.0.0","1991126","13","<div class=""flex flex-row stim-length pb-8 md:pd-20 justify-evenly items-center""><div class=""circle""></div><div class=""square""></div><div class=""circle""></div></div>","q","","matchness_test","mismatch","方","q","true","mismatch"
"","null","html-keynbutton-response","99","2.0.0","1991639","13","<div class=""pb-14 text-7xl"">+</div>","null","fixation","","","","","",""
"","526","html-keynbutton-response","100","2.0.0","1992166","13","<div class=""flex flex-row stim-length pb-8 md:pd-20 justify-evenly items-center""><div class=""square""></div><div class=""square""></div><div class=""square""></div></div>","p","","matchness_test","match","方","p","true","match"
"","null","html-keynbutton-response","101","2.0.0","1992673","13","<div class=""pb-14 text-7xl"">+</div>","null","fixation","","","","","",""
"","436","html-keynbutton-response","102","2.0.0","1993110","13","<div class=""flex flex-row stim-length pb-8 md:pd-20 justify-evenly items-center""><div class=""square""></div><div class=""circle""></div><div class=""square""></div></div>","q","","matchness_test","mismatch","圆","q","true","mismatch"
"","null","html-keynbutton-response","103","2.0.0","1993626","13","<div class=""pb-14 text-7xl"">+</div>","null","fixation","","","","","",""
"","475","html-keynbutton-response","104","2.0.0","1994102","13","<div class=""flex flex-row stim-length pb-8 md:pd-20 justify-evenly items-center""><div class=""circle""></div><div class=""circle""></div><div class=""circle""></div></div>","p","","matchness_test","match","圆","p","true","match"
"","null","html-keynbutton-response","105","2.0.0","1994608","13","<div class=""pb-14 text-7xl"">+</div>","null","fixation","","","","","",""
"","549","html-keynbutton-response","106","2.0.0","1995158","13","<div class=""flex flex-row stim-length pb-8 md:pd-20 justify-evenly items-center""><div class=""circle""></div><div class=""square""></div><div class=""circle""></div></div>","q","","matchness_test","mismatch","方","q","true","mismatch"
"","null","html-keynbutton-response","107","2.0.0","1995673","13","<div class=""pb-14 text-7xl"">+</div>","null","fixation","","","","","",""
"","460","html-keynbutton-response","108","2.0.0","1996134","13","<div class=""flex flex-row stim-length pb-8 md:pd-20 justify-evenly items-center""><div class=""circle""></div><div class=""circle""></div><div class=""circle""></div></div>","p","","matchness_test","match","圆","p","true","match"
"","null","html-keynbutton-response","109","2.0.0","1996640","13","<div class=""pb-14 text-7xl"">+</div>","null","fixation","","","","","",""
"","532","html-keynbutton-response","110","2.0.0","1997173","13","<div class=""flex flex-row stim-length pb-8 md:pd-20 justify-evenly items-center""><div class=""circle""></div><div class=""square""></div><div class=""circle""></div></div>","q","","matchness_test","mismatch","方","q","true","mismatch"
"","null","html-keynbutton-response","111","2.0.0","1997689","13","<div class=""pb-14 text-7xl"">+</div>","null","fixation","","","","","",""
"","379","html-keynbutton-response","112","2.0.0","1998069","13","<div class=""flex flex-row stim-length pb-8 md:pd-20 justify-evenly items-center""><div class=""square""></div><div class=""circle""></div><div class=""square""></div></div>","q","","matchness_test","mismatch","圆","q","true","mismatch"
"","null","html-keynbutton-response","113","2.0.0","1998574","13","<div class=""pb-14 text-7xl"">+</div>","null","fixation","","","","","",""
"","407","html-keynbutton-response","114","2.0.0","1998983","13","<div class=""flex flex-row stim-length pb-8 md:pd-20 justify-evenly items-center""><div class=""square""></div><div class=""square""></div><div class=""square""></div></div>","p","","matchness_test","match","方","p","true","match"
"","null","html-keynbutton-response","115","2.0.0","1999489","13","<div class=""pb-14 text-7xl"">+</div>","null","fixation","","","","","",""
"","660","html-keynbutton-response","116","2.0.0","2000150","13","<div class=""flex flex-row stim-length pb-8 md:pd-20 justify-evenly items-center""><div class=""square""></div><div class=""circle""></div><div class=""square""></div></div>","q","","matchness_test","mismatch","圆","q","true","mismatch"
"","null","html-keynbutton-response","117","2.0.0","2000657","13","<div class=""pb-14 text-7xl"">+</div>","null","fixation","","","","","",""
"","516","html-keynbutton-response","118","2.0.0","2001174","13","<div class=""flex flex-row stim-length pb-8 md:pd-20 justify-evenly items-center""><div class=""square""></div><div class=""square""></div><div class=""square""></div></div>","p","","matchness_test","match","方","p","true","match"
"","null","html-keynbutton-response","119","2.0.0","2001689","13","<div class=""pb-14 text-7xl"">+</div>","null","fixation","","","","","",""
"","428","html-keynbutton-response","120","2.0.0","2002118","13","<div class=""flex flex-row stim-length pb-8 md:pd-20 justify-evenly items-center""><div class=""circle""></div><div class=""square""></div><div class=""circle""></div></div>","q","","matchness_test","mismatch","方","q","true","mismatch"
"","null","html-keynbutton-response","121","2.0.0","2002625","13","<div class=""pb-14 text-7xl"">+</div>","null","fixation","","","","","",""
"","436","html-keynbutton-response","122","2.0.0","2003062","13","<div class=""flex flex-row stim-length pb-8 md:pd-20 justify-evenly items-center""><div class=""circle""></div><div class=""circle""></div><div class=""circle""></div></div>","p","","matchness_test","match","圆","p","true","match"
"","null","html-keynbutton-response","123","2.0.0","2003572","13","<div class=""pb-14 text-7xl"">+</div>","null","fixation","","","","","",""
"","368","html-keynbutton-response","124","2.0.0","2003941","13","<div class=""flex flex-row stim-length pb-8 md:pd-20 justify-evenly items-center""><div class=""square""></div><div class=""square""></div><div class=""square""></div></div>","p","","matchness_test","match","方","p","true","match"
"","null","html-keynbutton-response","125","2.0.0","2004455","13","<div class=""pb-14 text-7xl"">+</div>","null","fixation","","","","","",""
"","397","html-keynbutton-response","126","2.0.0","2004853","13","<div class=""flex flex-row stim-length pb-8 md:pd-20 justify-evenly items-center""><div class=""square""></div><div class=""circle""></div><div class=""square""></div></div>","q","","matchness_test","mismatch","圆","q","true","mismatch"
"","null","html-keynbutton-response","127","2.0.0","2005357","13","<div class=""pb-14 text-7xl"">+</div>","null","fixation","","","","","",""
"","376","html-keynbutton-response","128","2.0.0","2005734","13","<div class=""flex flex-row stim-length pb-8 md:pd-20 justify-evenly items-center""><div class=""circle""></div><div class=""circle""></div><div class=""circle""></div></div>","p","","matchness_test","match","圆","p","true","match"
"","null","html-keynbutton-response","129","2.0.0","2006240","13","<div class=""pb-14 text-7xl"">+</div>","null","fixation","","","","","",""
"","389","html-keynbutton-response","130","2.0.0","2006630","13","<div class=""flex flex-row stim-length pb-8 md:pd-20 justify-evenly items-center""><div class=""circle""></div><div class=""square""></div><div class=""circle""></div></div>","q","","matchness_test","mismatch","方","q","true","mismatch"
"","null","html-keynbutton-response","131","2.0.0","2007140","13","<div class=""pb-14 text-7xl"">+</div>","null","fixation","","","","","",""
"","497","html-keynbutton-response","132","2.0.0","2007638","13","<div class=""flex flex-row stim-length pb-8 md:pd-20 justify-evenly items-center""><div class=""circle""></div><div class=""square""></div><div class=""circle""></div></div>","q","","matchness_test","mismatch","方","q","true","mismatch"
"","null","html-keynbutton-response","133","2.0.0","2008140","13","<div class=""pb-14 text-7xl"">+</div>","null","fixation","","","","","",""
"","408","html-keynbutton-response","134","2.0.0","2008550","13","<div class=""flex flex-row stim-length pb-8 md:pd-20 justify-evenly items-center""><div class=""circle""></div><div class=""circle""></div><div class=""circle""></div></div>","p","","matchness_test","match","圆","p","true","match"
"","null","html-keynbutton-response","135","2.0.0","2009057","13","<div class=""pb-14 text-7xl"">+</div>","null","fixation","","","","","",""
"","419","html-keynbutton-response","136","2.0.0","2009477","13","<div class=""flex flex-row stim-length pb-8 md:pd-20 justify-evenly items-center""><div class=""square""></div><div class=""square""></div><div class=""square""></div></div>","p","","matchness_test","match","方","p","true","match"
"","null","html-keynbutton-response","137","2.0.0","2009990","13","<div class=""pb-14 text-7xl"">+</div>","null","fixation","","","","","",""
"","368","html-keynbutton-response","138","2.0.0","2010358","13","<div class=""flex flex-row stim-length pb-8 md:pd-20 justify-evenly items-center""><div class=""square""></div><div class=""circle""></div><div class=""square""></div></div>","q","","matchness_test","mismatch","圆","q","true","mismatch"
"","null","html-keynbutton-response","139","2.0.0","2010872","13","<div class=""pb-14 text-7xl"">+</div>","null","fixation","","","","","",""
"","589","html-keynbutton-response","140","2.0.0","2011462","13","<div class=""flex flex-row stim-length pb-8 md:pd-20 justify-evenly items-center""><div class=""circle""></div><div class=""square""></div><div class=""circle""></div></div>","q","","matchness_test","mismatch","方","q","true","mismatch"
"","null","html-keynbutton-response","141","2.0.0","2011972","13","<div class=""pb-14 text-7xl"">+</div>","null","fixation","","","","","",""
"","433","html-keynbutton-response","142","2.0.0","2012406","13","<div class=""flex flex-row stim-length pb-8 md:pd-20 justify-evenly items-center""><div class=""circle""></div><div class=""circle""></div><div class=""circle""></div></div>","p","","matchness_test","match","圆","p","true","match"
"","null","html-keynbutton-response","143","2.0.0","2012907","13","<div class=""pb-14 text-7xl"">+</div>","null","fixation","","","","","",""
"","394","html-keynbutton-response","144","2.0.0","2013302","13","<div class=""flex flex-row stim-length pb-8 md:pd-20 justify-evenly items-center""><div class=""square""></div><div class=""circle""></div><div class=""square""></div></div>","q","","matchness_test","mismatch","圆","q","true","mismatch"
"","null","html-keynbutton-response","145","2.0.0","2013808","13","<div class=""pb-14 text-7xl"">+</div>","null","fixation","","","","","",""
"","501","html-keynbutton-response","146","2.0.0","2014310","13","<div class=""flex flex-row stim-length pb-8 md:pd-20 justify-evenly items-center""><div class=""square""></div><div class=""square""></div><div class=""square""></div></div>","p","","matchness_test","match","方","p","true","match"
"","3974","html-keynbutton-response","147","2.0.0","2018285","13","<div class=""jp""><p>您已完成1/10部分</p><p>请休息一会儿</p>
    <p>您的正确率是：95%</p>
    <p>您的平均反应时间是：467毫秒</p></div>"," ","block_feedback","","","","","",""
"","null","html-keynbutton-response","148","2.0.0","2021487","13","<count-down title=""""></count-down>","null","countDown_trial","","","","","",""
"","null","html-keynbutton-response","149","2.0.0","2021990","13","<div class=""pb-14 text-7xl"">+</div>","null","fixation","","","","","",""
"","463","html-keynbutton-response","150","2.0.0","2022454","13","<div class=""flex flex-row stim-length pb-8 md:pd-20 justify-evenly items-center""><div class=""circle""></div><div class=""square""></div><div class=""circle""></div></div>","q","","matchness_test_1","mismatch","方","q","true","mismatch"
"","null","html-keynbutton-response","151","2.0.0","2022957","13","<div class=""pb-14 text-7xl"">+</div>","null","fixation","","","","","",""
"","520","html-keynbutton-response","152","2.0.0","2023478","13","<div class=""flex flex-row stim-length pb-8 md:pd-20 justify-evenly items-center""><div class=""square""></div><div class=""circle""></div><div class=""square""></div></div>","q","","matchness_test_1","mismatch","圆","q","true","mismatch"
"","null","html-keynbutton-response","153","2.0.0","2023990","13","<div class=""pb-14 text-7xl"">+</div>","null","fixation","","","","","",""
"","367","html-keynbutton-response","154","2.0.0","2024358","13","<div class=""flex flex-row stim-length pb-8 md:pd-20 justify-evenly items-center""><div class=""circle""></div><div class=""circle""></div><div class=""circle""></div></div>","p","","matchness_test_1","match","圆","p","true","match"
"","null","html-keynbutton-response","155","2.0.0","2024860","13","<div class=""pb-14 text-7xl"">+</div>","null","fixation","","","","","",""
"","520","html-keynbutton-response","156","2.0.0","2025381","13","<div class=""flex flex-row stim-length pb-8 md:pd-20 justify-evenly items-center""><div class=""square""></div><div class=""square""></div><div class=""square""></div></div>","p","","matchness_test_1","match","方","p","true","match"
"","null","html-keynbutton-response","157","2.0.0","2025890","13","<div class=""pb-14 text-7xl"">+</div>","null","fixation","","","","","",""
"","419","html-keynbutton-response","158","2.0.0","2026310","13","<div class=""flex flex-row stim-length pb-8 md:pd-20 justify-evenly items-center""><div class=""circle""></div><div class=""circle""></div><div class=""circle""></div></div>","p","","matchness_test_1","match","圆","p","true","match"
"","null","html-keynbutton-response","159","2.0.0","2026823","13","<div class=""pb-14 text-7xl"">+</div>","null","fixation","","","","","",""
"","382","html-keynbutton-response","160","2.0.0","2027206","13","<div class=""flex flex-row stim-length pb-8 md:pd-20 justify-evenly items-center""><div class=""square""></div><div class=""circle""></div><div class=""square""></div></div>","p","","matchness_test_1","mismatch","圆","q","false","match"
"","null","html-keynbutton-response","161","2.0.0","2027708","13","<div class=""pb-14 text-7xl"">+</div>","null","fixation","","","","","",""
"","537","html-keynbutton-response","162","2.0.0","2028246","13","<div class=""flex flex-row stim-length pb-8 md:pd-20 justify-evenly items-center""><div class=""square""></div><div class=""square""></div><div class=""square""></div></div>","p","","matchness_test_1","match","方","p","true","match"
"","null","html-keynbutton-response","163","2.0.0","2028755","13","<div class=""pb-14 text-7xl"">+</div>","null","fixation","","","","","",""
"","434","html-keynbutton-response","164","2.0.0","2029190","13","<div class=""flex flex-row stim-length pb-8 md:pd-20 justify-evenly items-center""><div class=""circle""></div><div class=""square""></div><div class=""circle""></div></div>","q","","matchness_test_1","mismatch","方","q","true","mismatch"
"","null","html-keynbutton-response","165","2.0.0","2029706","13","<div class=""pb-14 text-7xl"">+</div>","null","fixation","","","","","",""
"","394","html-keynbutton-response","166","2.0.0","2030101","13","<div class=""flex flex-row stim-length pb-8 md:pd-20 justify-evenly items-center""><div class=""circle""></div><div class=""square""></div><div class=""circle""></div></div>","q","","matchness_test_1","mismatch","方","q","true","mismatch"
"","null","html-keynbutton-response","167","2.0.0","2030608","13","<div class=""pb-14 text-7xl"">+</div>","null","fixation","","","","","",""
"","405","html-keynbutton-response","168","2.0.0","2031014","13","<div class=""flex flex-row stim-length pb-8 md:pd-20 justify-evenly items-center""><div class=""square""></div><div class=""circle""></div><div class=""square""></div></div>","q","","matchness_test_1","mismatch","圆","q","true","mismatch"
"","null","html-keynbutton-response","169","2.0.0","2031523","13","<div class=""pb-14 text-7xl"">+</div>","null","fixation","","","","","",""
"","386","html-keynbutton-response","170","2.0.0","2031910","13","<div class=""flex flex-row stim-length pb-8 md:pd-20 justify-evenly items-center""><div class=""square""></div><div class=""square""></div><div class=""square""></div></div>","p","","matchness_test_1","match","方","p","true","match"
"","null","html-keynbutton-response","171","2.0.0","2032426","13","<div class=""pb-14 text-7xl"">+</div>","null","fixation","","","","","",""
"","558","html-keynbutton-response","172","2.0.0","2032985","13","<div class=""flex flex-row stim-length pb-8 md:pd-20 justify-evenly items-center""><div class=""circle""></div><div class=""circle""></div><div class=""circle""></div></div>","p","","matchness_test_1","match","圆","p","true","match"
"","null","html-keynbutton-response","173","2.0.0","2033493","13","<div class=""pb-14 text-7xl"">+</div>","null","fixation","","","","","",""
"","340","html-keynbutton-response","174","2.0.0","2033833","13","<div class=""flex flex-row stim-length pb-8 md:pd-20 justify-evenly items-center""><div class=""circle""></div><div class=""square""></div><div class=""circle""></div></div>","q","","matchness_test_1","mismatch","方","q","true","mismatch"
"","null","html-keynbutton-response","175","2.0.0","2034343","13","<div class=""pb-14 text-7xl"">+</div>","null","fixation","","","","","",""
"","418","html-keynbutton-response","176","2.0.0","2034761","13","<div class=""flex flex-row stim-length pb-8 md:pd-20 justify-evenly items-center""><div class=""square""></div><div class=""square""></div><div class=""square""></div></div>","p","","matchness_test_1","match","方","p","true","match"
"","null","html-keynbutton-response","177","2.0.0","2035276","13","<div class=""pb-14 text-7xl"">+</div>","null","fixation","","","","","",""
"","397","html-keynbutton-response","178","2.0.0","2035673","13","<div class=""flex flex-row stim-length pb-8 md:pd-20 justify-evenly items-center""><div class=""square""></div><div class=""circle""></div><div class=""square""></div></div>","q","","matchness_test_1","mismatch","圆","q","true","mismatch"
"","null","html-keynbutton-response","179","2.0.0","2036177","13","<div class=""pb-14 text-7xl"">+</div>","null","fixation","","","","","",""
"","408","html-keynbutton-response","180","2.0.0","2036586","13","<div class=""flex flex-row stim-length pb-8 md:pd-20 justify-evenly items-center""><div class=""circle""></div><div class=""circle""></div><div class=""circle""></div></div>","p","","matchness_test_1","match","圆","p","true","match"
"","null","html-keynbutton-response","181","2.0.0","2037094","13","<div class=""pb-14 text-7xl"">+</div>","null","fixation","","","","","",""
"","370","html-keynbutton-response","182","2.0.0","2037465","13","<div class=""flex flex-row stim-length pb-8 md:pd-20 justify-evenly items-center""><div class=""circle""></div><div class=""square""></div><div class=""circle""></div></div>","q","","matchness_test_1","mismatch","方","q","true","mismatch"
"","null","html-keynbutton-response","183","2.0.0","2037970","13","<div class=""pb-14 text-7xl"">+</div>","null","fixation","","","","","",""
"","423","html-keynbutton-response","184","2.0.0","2038393","13","<div class=""flex flex-row stim-length pb-8 md:pd-20 justify-evenly items-center""><div class=""square""></div><div class=""circle""></div><div class=""square""></div></div>","q","","matchness_test_1","mismatch","圆","q","true","mismatch"
"","null","html-keynbutton-response","185","2.0.0","2038909","13","<div class=""pb-14 text-7xl"">+</div>","null","fixation","","","","","",""
"","330","html-keynbutton-response","186","2.0.0","2039241","13","<div class=""flex flex-row stim-length pb-8 md:pd-20 justify-evenly items-center""><div class=""square""></div><div class=""square""></div><div class=""square""></div></div>","p","","matchness_test_1","match","方","p","true","match"
"","null","html-keynbutton-response","187","2.0.0","2039744","13","<div class=""pb-14 text-7xl"">+</div>","null","fixation","","","","","",""
"","377","html-keynbutton-response","188","2.0.0","2040121","13","<div class=""flex flex-row stim-length pb-8 md:pd-20 justify-evenly items-center""><div class=""circle""></div><div class=""circle""></div><div class=""circle""></div></div>","p","","matchness_test_1","match","圆","p","true","match"
"","null","html-keynbutton-response","189","2.0.0","2040631","13","<div class=""pb-14 text-7xl"">+</div>","null","fixation","","","","","",""
"","305","html-keynbutton-response","190","2.0.0","2040937","13","<div class=""flex flex-row stim-length pb-8 md:pd-20 justify-evenly items-center""><div class=""circle""></div><div class=""square""></div><div class=""circle""></div></div>","q","","matchness_test_1","mismatch","方","q","true","mismatch"
"","null","html-keynbutton-response","191","2.0.0","2041443","13","<div class=""pb-14 text-7xl"">+</div>","null","fixation","","","","","",""
"","453","html-keynbutton-response","192","2.0.0","2041897","13","<div class=""flex flex-row stim-length pb-8 md:pd-20 justify-evenly items-center""><div class=""square""></div><div class=""circle""></div><div class=""square""></div></div>","q","","matchness_test_1","mismatch","圆","q","true","mismatch"
"","null","html-keynbutton-response","193","2.0.0","2042410","13","<div class=""pb-14 text-7xl"">+</div>","null","fixation","","","","","",""
"","415","html-keynbutton-response","194","2.0.0","2042825","13","<div class=""flex flex-row stim-length pb-8 md:pd-20 justify-evenly items-center""><div class=""circle""></div><div class=""circle""></div><div class=""circle""></div></div>","p","","matchness_test_1","match","圆","p","true","match"
"","null","html-keynbutton-response","195","2.0.0","2043327","13","<div class=""pb-14 text-7xl"">+</div>","null","fixation","","","","","",""
"","409","html-keynbutton-response","196","2.0.0","2043737","13","<div class=""flex flex-row stim-length pb-8 md:pd-20 justify-evenly items-center""><div class=""square""></div><div class=""square""></div><div class=""square""></div></div>","p","","matchness_test_1","match","方","p","true","match"
"","null","html-keynbutton-response","197","2.0.0","2044244","13","<div class=""pb-14 text-7xl"">+</div>","null","fixation","","","","","",""
"","373","html-keynbutton-response","198","2.0.0","2044617","13","<div class=""flex flex-row stim-length pb-8 md:pd-20 justify-evenly items-center""><div class=""circle""></div><div class=""circle""></div><div class=""circle""></div></div>","p","","matchness_test_1","match","圆","p","true","match"
"","null","html-keynbutton-response","199","2.0.0","2045127","13","<div class=""pb-14 text-7xl"">+</div>","null","fixation","","","","","",""
"","321","html-keynbutton-response","200","2.0.0","2045449","13","<div class=""flex flex-row stim-length pb-8 md:pd-20 justify-evenly items-center""><div class=""square""></div><div class=""circle""></div><div class=""square""></div></div>","q","","matchness_test_1","mismatch","圆","q","true","mismatch"
"","null","html-keynbutton-response","201","2.0.0","2045960","13","<div class=""pb-14 text-7xl"">+</div>","null","fixation","","","","","",""
"","368","html-keynbutton-response","202","2.0.0","2046328","13","<div class=""flex flex-row stim-length pb-8 md:pd-20 justify-evenly items-center""><div class=""square""></div><div class=""square""></div><div class=""square""></div></div>","p","","matchness_test_1","match","方","p","true","match"
"","null","html-keynbutton-response","203","2.0.0","2046843","13","<div class=""pb-14 text-7xl"">+</div>","null","fixation","","","","","",""
"","381","html-keynbutton-response","204","2.0.0","2047225","13","<div class=""flex flex-row stim-length pb-8 md:pd-20 justify-evenly items-center""><div class=""circle""></div><div class=""square""></div><div class=""circle""></div></div>","q","","matchness_test_1","mismatch","方","q","true","mismatch"
"","null","html-keynbutton-response","205","2.0.0","2047728","13","<div class=""pb-14 text-7xl"">+</div>","null","fixation","","","","","",""
"","377","html-keynbutton-response","206","2.0.0","2048105","13","<div class=""flex flex-row stim-length pb-8 md:pd-20 justify-evenly items-center""><div class=""square""></div><div class=""square""></div><div class=""square""></div></div>","p","","matchness_test_1","match","方","p","true","match"
"","null","html-keynbutton-response","207","2.0.0","2048611","13","<div class=""pb-14 text-7xl"">+</div>","null","fixation","","","","","",""
"","485","html-keynbutton-response","208","2.0.0","2049097","13","<div class=""flex flex-row stim-length pb-8 md:pd-20 justify-evenly items-center""><div class=""circle""></div><div class=""circle""></div><div class=""circle""></div></div>","p","","matchness_test_1","match","圆","p","true","match"
"","null","html-keynbutton-response","209","2.0.0","2049610","13","<div class=""pb-14 text-7xl"">+</div>","null","fixation","","","","","",""
"","367","html-keynbutton-response","210","2.0.0","2049977","13","<div class=""flex flex-row stim-length pb-8 md:pd-20 justify-evenly items-center""><div class=""circle""></div><div class=""square""></div><div class=""circle""></div></div>","q","","matchness_test_1","mismatch","方","q","true","mismatch"
"","null","html-keynbutton-response","211","2.0.0","2050493","13","<div class=""pb-14 text-7xl"">+</div>","null","fixation","","","","","",""
"","491","html-keynbutton-response","212","2.0.0","2050985","13","<div class=""flex flex-row stim-length pb-8 md:pd-20 justify-evenly items-center""><div class=""square""></div><div class=""circle""></div><div class=""square""></div></div>","q","","matchness_test_1","mismatch","圆","q","true","mismatch"
"","null","html-keynbutton-response","213","2.0.0","2051492","13","<div class=""pb-14 text-7xl"">+</div>","null","fixation","","","","","",""
"","436","html-keynbutton-response","214","2.0.0","2051929","13","<div class=""flex flex-row stim-length pb-8 md:pd-20 justify-evenly items-center""><div class=""circle""></div><div class=""circle""></div><div class=""circle""></div></div>","p","","matchness_test_1","match","圆","p","true","match"
"","null","html-keynbutton-response","215","2.0.0","2052443","13","<div class=""pb-14 text-7xl"">+</div>","null","fixation","","","","","",""
"","398","html-keynbutton-response","216","2.0.0","2052841","13","<div class=""flex flex-row stim-length pb-8 md:pd-20 justify-evenly items-center""><div class=""circle""></div><div class=""square""></div><div class=""circle""></div></div>","q","","matchness_test_1","mismatch","方","q","true","mismatch"
"","null","html-keynbutton-response","217","2.0.0","2053344","13","<div class=""pb-14 text-7xl"">+</div>","null","fixation","","","","","",""
"","409","html-keynbutton-response","218","2.0.0","2053753","13","<div class=""flex flex-row stim-length pb-8 md:pd-20 justify-evenly items-center""><div class=""square""></div><div class=""circle""></div><div class=""square""></div></div>","p","","matchness_test_1","mismatch","圆","q","false","match"
"","null","html-keynbutton-response","219","2.0.0","2054264","13","<div class=""pb-14 text-7xl"">+</div>","null","fixation","","","","","",""
"","689","html-keynbutton-response","220","2.0.0","2054953","13","<div class=""flex flex-row stim-length pb-8 md:pd-20 justify-evenly items-center""><div class=""square""></div><div class=""square""></div><div class=""square""></div></div>","p","","matchness_test_1","match","方","p","true","match"
"","null","html-keynbutton-response","221","2.0.0","2055460","13","<div class=""pb-14 text-7xl"">+</div>","null","fixation","","","","","",""
"","468","html-keynbutton-response","222","2.0.0","2055929","13","<div class=""flex flex-row stim-length pb-8 md:pd-20 justify-evenly items-center""><div class=""circle""></div><div class=""square""></div><div class=""circle""></div></div>","q","","matchness_test_1","mismatch","方","q","true","mismatch"
"","null","html-keynbutton-response","223","2.0.0","2056434","13","<div class=""pb-14 text-7xl"">+</div>","null","fixation","","","","","",""
"","470","html-keynbutton-response","224","2.0.0","2056905","13","<div class=""flex flex-row stim-length pb-8 md:pd-20 justify-evenly items-center""><div class=""circle""></div><div class=""circle""></div><div class=""circle""></div></div>","p","","matchness_test_1","match","圆","p","true","match"
"","null","html-keynbutton-response","225","2.0.0","2057412","13","<div class=""pb-14 text-7xl"">+</div>","null","fixation","","","","","",""
"","452","html-keynbutton-response","226","2.0.0","2057864","13","<div class=""flex flex-row stim-length pb-8 md:pd-20 justify-evenly items-center""><div class=""square""></div><div class=""square""></div><div class=""square""></div></div>","p","","matchness_test_1","match","方","p","true","match"
"","null","html-keynbutton-response","227","2.0.0","2058376","13","<div class=""pb-14 text-7xl"">+</div>","null","fixation","","","","","",""
"","369","html-keynbutton-response","228","2.0.0","2058745","13","<div class=""flex flex-row stim-length pb-8 md:pd-20 justify-evenly items-center""><div class=""square""></div><div class=""circle""></div><div class=""square""></div></div>","p","","matchness_test_1","mismatch","圆","q","false","match"
"","3765","html-keynbutton-response","229","2.0.0","2062513","13","<div class=""jp""><p>您已完成2/10部分</p><p>请休息一会儿</p>
    <p>您的正确率是：93%</p>
    <p>您的平均反应时间是：422毫秒</p></div>"," ","block_feedback","","","","","",""
"","null","html-keynbutton-response","230","2.0.0","2065724","13","<count-down title=""""></count-down>","null","countDown_trial","","","","","",""
"","null","html-keynbutton-response","231","2.0.0","2066227","13","<div class=""pb-14 text-7xl"">+</div>","null","fixation","","","","","",""
"","501","html-keynbutton-response","232","2.0.0","2066729","13","<div class=""flex flex-row stim-length pb-8 md:pd-20 justify-evenly items-center""><div class=""circle""></div><div class=""circle""></div><div class=""circle""></div></div>","p","","matchness_test_2","match","圆","p","true","match"
"","null","html-keynbutton-response","233","2.0.0","2067243","13","<div class=""pb-14 text-7xl"">+</div>","null","fixation","","","","","",""
"","446","html-keynbutton-response","234","2.0.0","2067689","13","<div class=""flex flex-row stim-length pb-8 md:pd-20 justify-evenly items-center""><div class=""square""></div><div class=""circle""></div><div class=""square""></div></div>","q","","matchness_test_2","mismatch","圆","q","true","mismatch"
"","null","html-keynbutton-response","235","2.0.0","2068195","13","<div class=""pb-14 text-7xl"">+</div>","null","fixation","","","","","",""
"","549","html-keynbutton-response","236","2.0.0","2068745","13","<div class=""flex flex-row stim-length pb-8 md:pd-20 justify-evenly items-center""><div class=""circle""></div><div class=""square""></div><div class=""circle""></div></div>","q","","matchness_test_2","mismatch","方","q","true","mismatch"
"","null","html-keynbutton-response","237","2.0.0","2069248","13","<div class=""pb-14 text-7xl"">+</div>","null","fixation","","","","","",""
"","440","html-keynbutton-response","238","2.0.0","2069689","13","<div class=""flex flex-row stim-length pb-8 md:pd-20 justify-evenly items-center""><div class=""square""></div><div class=""square""></div><div class=""square""></div></div>","p","","matchness_test_2","match","方","p","true","match"
"","null","html-keynbutton-response","239","2.0.0","2070195","13","<div class=""pb-14 text-7xl"">+</div>","null","fixation","","","","","",""
"","502","html-keynbutton-response","240","2.0.0","2070697","13","<div class=""flex flex-row stim-length pb-8 md:pd-20 justify-evenly items-center""><div class=""square""></div><div class=""circle""></div><div class=""square""></div></div>","q","","matchness_test_2","mismatch","圆","q","true","mismatch"
"","null","html-keynbutton-response","241","2.0.0","2071209","13","<div class=""pb-14 text-7xl"">+</div>","null","fixation","","","","","",""
"","431","html-keynbutton-response","242","2.0.0","2071641","13","<div class=""flex flex-row stim-length pb-8 md:pd-20 justify-evenly items-center""><div class=""circle""></div><div class=""circle""></div><div class=""circle""></div></div>","p","","matchness_test_2","match","圆","p","true","match"
"","null","html-keynbutton-response","243","2.0.0","2072144","13","<div class=""pb-14 text-7xl"">+</div>","null","fixation","","","","","",""
"","407","html-keynbutton-response","244","2.0.0","2072552","13","<div class=""flex flex-row stim-length pb-8 md:pd-20 justify-evenly items-center""><div class=""circle""></div><div class=""square""></div><div class=""circle""></div></div>","q","","matchness_test_2","mismatch","方","q","true","mismatch"
"","null","html-keynbutton-response","245","2.0.0","2073063","13","<div class=""pb-14 text-7xl"">+</div>","null","fixation","","","","","",""
"","417","html-keynbutton-response","246","2.0.0","2073481","13","<div class=""flex flex-row stim-length pb-8 md:pd-20 justify-evenly items-center""><div class=""square""></div><div class=""square""></div><div class=""square""></div></div>","p","","matchness_test_2","match","方","p","true","match"
"","null","html-keynbutton-response","247","2.0.0","2073994","13","<div class=""pb-14 text-7xl"">+</div>","null","fixation","","","","","",""
"","399","html-keynbutton-response","248","2.0.0","2074393","13","<div class=""flex flex-row stim-length pb-8 md:pd-20 justify-evenly items-center""><div class=""circle""></div><div class=""circle""></div><div class=""circle""></div></div>","p","","matchness_test_2","match","圆","p","true","match"
"","null","html-keynbutton-response","249","2.0.0","2074909","13","<div class=""pb-14 text-7xl"">+</div>","null","fixation","","","","","",""
"","410","html-keynbutton-response","250","2.0.0","2075320","13","<div class=""flex flex-row stim-length pb-8 md:pd-20 justify-evenly items-center""><div class=""circle""></div><div class=""square""></div><div class=""circle""></div></div>","q","","matchness_test_2","mismatch","方","q","true","mismatch"
"","null","html-keynbutton-response","251","2.0.0","2075833","13","<div class=""pb-14 text-7xl"">+</div>","null","fixation","","","","","",""
"","352","html-keynbutton-response","252","2.0.0","2076185","13","<div class=""flex flex-row stim-length pb-8 md:pd-20 justify-evenly items-center""><div class=""square""></div><div class=""circle""></div><div class=""square""></div></div>","q","","matchness_test_2","mismatch","圆","q","true","mismatch"
"","null","html-keynbutton-response","253","2.0.0","2076693","13","<div class=""pb-14 text-7xl"">+</div>","null","fixation","","","","","",""
"","483","html-keynbutton-response","254","2.0.0","2077177","13","<div class=""flex flex-row stim-length pb-8 md:pd-20 justify-evenly items-center""><div class=""square""></div><div class=""square""></div><div class=""square""></div></div>","p","","matchness_test_2","match","方","p","true","match"
"","null","html-keynbutton-response","255","2.0.0","2077694","13","<div class=""pb-14 text-7xl"">+</div>","null","fixation","","","","","",""
"","427","html-keynbutton-response","256","2.0.0","2078121","13","<div class=""flex flex-row stim-length pb-8 md:pd-20 justify-evenly items-center""><div class=""square""></div><div class=""square""></div><div class=""square""></div></div>","p","","matchness_test_2","match","方","p","true","match"
"","null","html-keynbutton-response","257","2.0.0","2078627","13","<div class=""pb-14 text-7xl"">+</div>","null","fixation","","","","","",""
"","470","html-keynbutton-response","258","2.0.0","2079097","13","<div class=""flex flex-row stim-length pb-8 md:pd-20 justify-evenly items-center""><div class=""square""></div><div class=""circle""></div><div class=""square""></div></div>","q","","matchness_test_2","mismatch","圆","q","true","mismatch"
"","null","html-keynbutton-response","259","2.0.0","2079609","13","<div class=""pb-14 text-7xl"">+</div>","null","fixation","","","","","",""
"","384","html-keynbutton-response","260","2.0.0","2079993","13","<div class=""flex flex-row stim-length pb-8 md:pd-20 justify-evenly items-center""><div class=""circle""></div><div class=""square""></div><div class=""circle""></div></div>","q","","matchness_test_2","mismatch","方","q","true","mismatch"
"","null","html-keynbutton-response","261","2.0.0","2080509","13","<div class=""pb-14 text-7xl"">+</div>","null","fixation","","","","","",""
"","411","html-keynbutton-response","262","2.0.0","2080921","13","<div class=""flex flex-row stim-length pb-8 md:pd-20 justify-evenly items-center""><div class=""circle""></div><div class=""circle""></div><div class=""circle""></div></div>","p","","matchness_test_2","match","圆","p","true","match"
"","null","html-keynbutton-response","263","2.0.0","2081427","13","<div class=""pb-14 text-7xl"">+</div>","null","fixation","","","","","",""
"","503","html-keynbutton-response","264","2.0.0","2081931","13","<div class=""flex flex-row stim-length pb-8 md:pd-20 justify-evenly items-center""><div class=""square""></div><div class=""circle""></div><div class=""square""></div></div>","q","","matchness_test_2","mismatch","圆","q","true","mismatch"
"","null","html-keynbutton-response","265","2.0.0","2082443","13","<div class=""pb-14 text-7xl"">+</div>","null","fixation","","","","","",""
"","397","html-keynbutton-response","266","2.0.0","2082841","13","<div class=""flex flex-row stim-length pb-8 md:pd-20 justify-evenly items-center""><div class=""square""></div><div class=""square""></div><div class=""square""></div></div>","p","","matchness_test_2","match","方","p","true","match"
"","null","html-keynbutton-response","267","2.0.0","2083344","13","<div class=""pb-14 text-7xl"">+</div>","null","fixation","","","","","",""
"","712","html-keynbutton-response","268","2.0.0","2084057","13","<div class=""flex flex-row stim-length pb-8 md:pd-20 justify-evenly items-center""><div class=""circle""></div><div class=""circle""></div><div class=""circle""></div></div>","p","","matchness_test_2","match","圆","p","true","match"
"","null","html-keynbutton-response","269","2.0.0","2084567","13","<div class=""pb-14 text-7xl"">+</div>","null","fixation","","","","","",""
"","417","html-keynbutton-response","270","2.0.0","2084985","13","<div class=""flex flex-row stim-length pb-8 md:pd-20 justify-evenly items-center""><div class=""circle""></div><div class=""square""></div><div class=""circle""></div></div>","q","","matchness_test_2","mismatch","方","q","true","mismatch"
"","null","html-keynbutton-response","271","2.0.0","2085493","13","<div class=""pb-14 text-7xl"">+</div>","null","fixation","","","","","",""
"","516","html-keynbutton-response","272","2.0.0","2086009","13","<div class=""flex flex-row stim-length pb-8 md:pd-20 justify-evenly items-center""><div class=""square""></div><div class=""circle""></div><div class=""square""></div></div>","q","","matchness_test_2","mismatch","圆","q","true","mismatch"
"","null","html-keynbutton-response","273","2.0.0","2086512","13","<div class=""pb-14 text-7xl"">+</div>","null","fixation","","","","","",""
"","424","html-keynbutton-response","274","2.0.0","2086937","13","<div class=""flex flex-row stim-length pb-8 md:pd-20 justify-evenly items-center""><div class=""circle""></div><div class=""circle""></div><div class=""circle""></div></div>","p","","matchness_test_2","match","圆","p","true","match"
"","null","html-keynbutton-response","275","2.0.0","2087444","13","<div class=""pb-14 text-7xl"">+</div>","null","fixation","","","","","",""
"","437","html-keynbutton-response","276","2.0.0","2087881","13","<div class=""flex flex-row stim-length pb-8 md:pd-20 justify-evenly items-center""><div class=""square""></div><div class=""square""></div><div class=""square""></div></div>","p","","matchness_test_2","match","方","p","true","match"
"","null","html-keynbutton-response","277","2.0.0","2088393","13","<div class=""pb-14 text-7xl"">+</div>","null","fixation","","","","","",""
"","383","html-keynbutton-response","278","2.0.0","2088777","13","<div class=""flex flex-row stim-length pb-8 md:pd-20 justify-evenly items-center""><div class=""circle""></div><div class=""square""></div><div class=""circle""></div></div>","q","","matchness_test_2","mismatch","方","q","true","mismatch"
"","null","html-keynbutton-response","279","2.0.0","2089293","13","<div class=""pb-14 text-7xl"">+</div>","null","fixation","","","","","",""
"","460","html-keynbutton-response","280","2.0.0","2089753","13","<div class=""flex flex-row stim-length pb-8 md:pd-20 justify-evenly items-center""><div class=""square""></div><div class=""square""></div><div class=""square""></div></div>","p","","matchness_test_2","match","方","p","true","match"
"","null","html-keynbutton-response","281","2.0.0","2090260","13","<div class=""pb-14 text-7xl"">+</div>","null","fixation","","","","","",""
"","356","html-keynbutton-response","282","2.0.0","2090617","13","<div class=""flex flex-row stim-length pb-8 md:pd-20 justify-evenly items-center""><div class=""square""></div><div class=""circle""></div><div class=""square""></div></div>","q","","matchness_test_2","mismatch","圆","q","true","mismatch"
"","null","html-keynbutton-response","283","2.0.0","2091125","13","<div class=""pb-14 text-7xl"">+</div>","null","fixation","","","","","",""
"","404","html-keynbutton-response","284","2.0.0","2091529","13","<div class=""flex flex-row stim-length pb-8 md:pd-20 justify-evenly items-center""><div class=""circle""></div><div class=""circle""></div><div class=""circle""></div></div>","p","","matchness_test_2","match","圆","p","true","match"
"","null","html-keynbutton-response","285","2.0.0","2092032","13","<div class=""pb-14 text-7xl"">+</div>","null","fixation","","","","","",""
"","457","html-keynbutton-response","286","2.0.0","2092481","13","<div class=""flex flex-row stim-length pb-8 md:pd-20 justify-evenly items-center""><div class=""circle""></div><div class=""square""></div><div class=""circle""></div></div>","q","","matchness_test_2","mismatch","方","q","true","mismatch"
"","null","html-keynbutton-response","287","2.0.0","2092985","13","<div class=""pb-14 text-7xl"">+</div>","null","fixation","","","","","",""
"","582","html-keynbutton-response","288","2.0.0","2093567","13","<div class=""flex flex-row stim-length pb-8 md:pd-20 justify-evenly items-center""><div class=""circle""></div><div class=""square""></div><div class=""circle""></div></div>","q","","matchness_test_2","mismatch","方","q","true","mismatch"
"","null","html-keynbutton-response","289","2.0.0","2094069","13","<div class=""pb-14 text-7xl"">+</div>","null","fixation","","","","","",""
"","394","html-keynbutton-response","290","2.0.0","2094464","13","<div class=""flex flex-row stim-length pb-8 md:pd-20 justify-evenly items-center""><div class=""circle""></div><div class=""circle""></div><div class=""circle""></div></div>","p","","matchness_test_2","match","圆","p","true","match"
"","null","html-keynbutton-response","291","2.0.0","2094969","13","<div class=""pb-14 text-7xl"">+</div>","null","fixation","","","","","",""
"","374","html-keynbutton-response","292","2.0.0","2095343","13","<div class=""flex flex-row stim-length pb-8 md:pd-20 justify-evenly items-center""><div class=""square""></div><div class=""circle""></div><div class=""square""></div></div>","q","","matchness_test_2","mismatch","圆","q","true","mismatch"
"","null","html-keynbutton-response","293","2.0.0","2095851","13","<div class=""pb-14 text-7xl"">+</div>","null","fixation","","","","","",""
"","421","html-keynbutton-response","294","2.0.0","2096272","13","<div class=""flex flex-row stim-length pb-8 md:pd-20 justify-evenly items-center""><div class=""square""></div><div class=""square""></div><div class=""square""></div></div>","p","","matchness_test_2","match","方","p","true","match"
"","null","html-keynbutton-response","295","2.0.0","2096785","13","<div class=""pb-14 text-7xl"">+</div>","null","fixation","","","","","",""
"","495","html-keynbutton-response","296","2.0.0","2097280","13","<div class=""flex flex-row stim-length pb-8 md:pd-20 justify-evenly items-center""><div class=""circle""></div><div class=""circle""></div><div class=""circle""></div></div>","p","","matchness_test_2","match","圆","p","true","match"
"","null","html-keynbutton-response","297","2.0.0","2097786","13","<div class=""pb-14 text-7xl"">+</div>","null","fixation","","","","","",""
"","437","html-keynbutton-response","298","2.0.0","2098224","13","<div class=""flex flex-row stim-length pb-8 md:pd-20 justify-evenly items-center""><div class=""square""></div><div class=""square""></div><div class=""square""></div></div>","p","","matchness_test_2","match","方","p","true","match"
"","null","html-keynbutton-response","299","2.0.0","2098734","13","<div class=""pb-14 text-7xl"">+</div>","null","fixation","","","","","",""
"","418","html-keynbutton-response","300","2.0.0","2099153","13","<div class=""flex flex-row stim-length pb-8 md:pd-20 justify-evenly items-center""><div class=""circle""></div><div class=""square""></div><div class=""circle""></div></div>","q","","matchness_test_2","mismatch","方","q","true","mismatch"
"","null","html-keynbutton-response","301","2.0.0","2099668","13","<div class=""pb-14 text-7xl"">+</div>","null","fixation","","","","","",""
"","460","html-keynbutton-response","302","2.0.0","2100129","13","<div class=""flex flex-row stim-length pb-8 md:pd-20 justify-evenly items-center""><div class=""square""></div><div class=""circle""></div><div class=""square""></div></div>","q","","matchness_test_2","mismatch","圆","q","true","mismatch"
"","null","html-keynbutton-response","303","2.0.0","2100635","13","<div class=""pb-14 text-7xl"">+</div>","null","fixation","","","","","",""
"","356","html-keynbutton-response","304","2.0.0","2100993","13","<div class=""flex flex-row stim-length pb-8 md:pd-20 justify-evenly items-center""><div class=""square""></div><div class=""square""></div><div class=""square""></div></div>","p","","matchness_test_2","match","方","p","true","match"
"","null","html-keynbutton-response","305","2.0.0","2101500","13","<div class=""pb-14 text-7xl"">+</div>","null","fixation","","","","","",""
"","436","html-keynbutton-response","306","2.0.0","2101937","13","<div class=""flex flex-row stim-length pb-8 md:pd-20 justify-evenly items-center""><div class=""square""></div><div class=""circle""></div><div class=""square""></div></div>","q","","matchness_test_2","mismatch","圆","q","true","mismatch"
"","null","html-keynbutton-response","307","2.0.0","2102451","13","<div class=""pb-14 text-7xl"">+</div>","null","fixation","","","","","",""
"","461","html-keynbutton-response","308","2.0.0","2102913","13","<div class=""flex flex-row stim-length pb-8 md:pd-20 justify-evenly items-center""><div class=""circle""></div><div class=""square""></div><div class=""circle""></div></div>","q","","matchness_test_2","mismatch","方","q","true","mismatch"
"","null","html-keynbutton-response","309","2.0.0","2103419","13","<div class=""pb-14 text-7xl"">+</div>","null","fixation","","","","","",""
"","404","html-keynbutton-response","310","2.0.0","2103823","13","<div class=""flex flex-row stim-length pb-8 md:pd-20 justify-evenly items-center""><div class=""circle""></div><div class=""circle""></div><div class=""circle""></div></div>","q","","matchness_test_2","match","圆","p","false","mismatch"
"","2687","html-keynbutton-response","311","2.0.0","2106512","13","<div class=""jp""><p>您已完成3/10部分</p><p>请休息一会儿</p>
    <p>您的正确率是：98%</p>
    <p>您的平均反应时间是：443毫秒</p></div>"," ","block_feedback","","","","","",""
"","null","html-keynbutton-response","312","2.0.0","2109715","13","<count-down title=""""></count-down>","null","countDown_trial","","","","","",""
"","null","html-keynbutton-response","313","2.0.0","2110219","13","<div class=""pb-14 text-7xl"">+</div>","null","fixation","","","","","",""
"","613","html-keynbutton-response","314","2.0.0","2110833","13","<div class=""flex flex-row stim-length pb-8 md:pd-20 justify-evenly items-center""><div class=""square""></div><div class=""square""></div><div class=""square""></div></div>","p","","matchness_test_3","match","方","p","true","match"
"","null","html-keynbutton-response","315","2.0.0","2111340","13","<div class=""pb-14 text-7xl"">+</div>","null","fixation","","","","","",""
"","563","html-keynbutton-response","316","2.0.0","2111903","13","<div class=""flex flex-row stim-length pb-8 md:pd-20 justify-evenly items-center""><div class=""square""></div><div class=""circle""></div><div class=""square""></div></div>","q","","matchness_test_3","mismatch","圆","q","true","mismatch"
"","null","html-keynbutton-response","317","2.0.0","2112418","13","<div class=""pb-14 text-7xl"">+</div>","null","fixation","","","","","",""
"","477","html-keynbutton-response","318","2.0.0","2112896","13","<div class=""flex flex-row stim-length pb-8 md:pd-20 justify-evenly items-center""><div class=""circle""></div><div class=""circle""></div><div class=""circle""></div></div>","p","","matchness_test_3","match","圆","p","true","match"
"","null","html-keynbutton-response","319","2.0.0","2113403","13","<div class=""pb-14 text-7xl"">+</div>","null","fixation","","","","","",""
"","453","html-keynbutton-response","320","2.0.0","2113857","13","<div class=""flex flex-row stim-length pb-8 md:pd-20 justify-evenly items-center""><div class=""circle""></div><div class=""square""></div><div class=""circle""></div></div>","q","","matchness_test_3","mismatch","方","q","true","mismatch"
"","null","html-keynbutton-response","321","2.0.0","2114368","13","<div class=""pb-14 text-7xl"">+</div>","null","fixation","","","","","",""
"","400","html-keynbutton-response","322","2.0.0","2114769","13","<div class=""flex flex-row stim-length pb-8 md:pd-20 justify-evenly items-center""><div class=""circle""></div><div class=""circle""></div><div class=""circle""></div></div>","p","","matchness_test_3","match","圆","p","true","match"
"","null","html-keynbutton-response","323","2.0.0","2115284","13","<div class=""pb-14 text-7xl"">+</div>","null","fixation","","","","","",""
"","428","html-keynbutton-response","324","2.0.0","2115713","13","<div class=""flex flex-row stim-length pb-8 md:pd-20 justify-evenly items-center""><div class=""square""></div><div class=""circle""></div><div class=""square""></div></div>","q","","matchness_test_3","mismatch","圆","q","true","mismatch"
"","null","html-keynbutton-response","325","2.0.0","2116218","13","<div class=""pb-14 text-7xl"">+</div>","null","fixation","","","","","",""
"","405","html-keynbutton-response","326","2.0.0","2116625","13","<div class=""flex flex-row stim-length pb-8 md:pd-20 justify-evenly items-center""><div class=""square""></div><div class=""square""></div><div class=""square""></div></div>","p","","matchness_test_3","match","方","p","true","match"
"","null","html-keynbutton-response","327","2.0.0","2117134","13","<div class=""pb-14 text-7xl"">+</div>","null","fixation","","","","","",""
"","466","html-keynbutton-response","328","2.0.0","2117601","13","<div class=""flex flex-row stim-length pb-8 md:pd-20 justify-evenly items-center""><div class=""circle""></div><div class=""square""></div><div class=""circle""></div></div>","q","","matchness_test_3","mismatch","方","q","true","mismatch"
"","null","html-keynbutton-response","329","2.0.0","2118102","13","<div class=""pb-14 text-7xl"">+</div>","null","fixation","","","","","",""
"","553","html-keynbutton-response","330","2.0.0","2118657","13","<div class=""flex flex-row stim-length pb-8 md:pd-20 justify-evenly items-center""><div class=""square""></div><div class=""circle""></div><div class=""square""></div></div>","q","","matchness_test_3","mismatch","圆","q","true","mismatch"
"","null","html-keynbutton-response","331","2.0.0","2119168","13","<div class=""pb-14 text-7xl"">+</div>","null","fixation","","","","","",""
"","463","html-keynbutton-response","332","2.0.0","2119633","13","<div class=""flex flex-row stim-length pb-8 md:pd-20 justify-evenly items-center""><div class=""circle""></div><div class=""circle""></div><div class=""circle""></div></div>","p","","matchness_test_3","match","圆","p","true","match"
"","null","html-keynbutton-response","333","2.0.0","2120135","13","<div class=""pb-14 text-7xl"">+</div>","null","fixation","","","","","",""
"","408","html-keynbutton-response","334","2.0.0","2120545","13","<div class=""flex flex-row stim-length pb-8 md:pd-20 justify-evenly items-center""><div class=""circle""></div><div class=""square""></div><div class=""circle""></div></div>","q","","matchness_test_3","mismatch","方","q","true","mismatch"
"","null","html-keynbutton-response","335","2.0.0","2121052","13","<div class=""pb-14 text-7xl"">+</div>","null","fixation","","","","","",""
"","356","html-keynbutton-response","336","2.0.0","2121409","13","<div class=""flex flex-row stim-length pb-8 md:pd-20 justify-evenly items-center""><div class=""square""></div><div class=""square""></div><div class=""square""></div></div>","p","","matchness_test_3","match","方","p","true","match"
"","null","html-keynbutton-response","337","2.0.0","2121918","13","<div class=""pb-14 text-7xl"">+</div>","null","fixation","","","","","",""
"","417","html-keynbutton-response","338","2.0.0","2122337","13","<div class=""flex flex-row stim-length pb-8 md:pd-20 justify-evenly items-center""><div class=""square""></div><div class=""circle""></div><div class=""square""></div></div>","q","","matchness_test_3","mismatch","圆","q","true","mismatch"
"","null","html-keynbutton-response","339","2.0.0","2122851","13","<div class=""pb-14 text-7xl"">+</div>","null","fixation","","","","","",""
"","396","html-keynbutton-response","340","2.0.0","2123249","13","<div class=""flex flex-row stim-length pb-8 md:pd-20 justify-evenly items-center""><div class=""square""></div><div class=""square""></div><div class=""square""></div></div>","p","","matchness_test_3","match","方","p","true","match"
"","null","html-keynbutton-response","341","2.0.0","2123752","13","<div class=""pb-14 text-7xl"">+</div>","null","fixation","","","","","",""
"","615","html-keynbutton-response","342","2.0.0","2124369","13","<div class=""flex flex-row stim-length pb-8 md:pd-20 justify-evenly items-center""><div class=""circle""></div><div class=""circle""></div><div class=""circle""></div></div>","p","","matchness_test_3","match","圆","p","true","match"
"","null","html-keynbutton-response","343","2.0.0","2124885","13","<div class=""pb-14 text-7xl"">+</div>","null","fixation","","","","","",""
"","379","html-keynbutton-response","344","2.0.0","2125264","13","<div class=""flex flex-row stim-length pb-8 md:pd-20 justify-evenly items-center""><div class=""circle""></div><div class=""square""></div><div class=""circle""></div></div>","q","","matchness_test_3","mismatch","方","q","true","mismatch"
"","null","html-keynbutton-response","345","2.0.0","2125769","13","<div class=""pb-14 text-7xl"">+</div>","null","fixation","","","","","",""
"","423","html-keynbutton-response","346","2.0.0","2126192","13","<div class=""flex flex-row stim-length pb-8 md:pd-20 justify-evenly items-center""><div class=""square""></div><div class=""square""></div><div class=""square""></div></div>","p","","matchness_test_3","match","方","p","true","match"
"","null","html-keynbutton-response","347","2.0.0","2126700","13","<div class=""pb-14 text-7xl"">+</div>","null","fixation","","","","","",""
"","387","html-keynbutton-response","348","2.0.0","2127088","13","<div class=""flex flex-row stim-length pb-8 md:pd-20 justify-evenly items-center""><div class=""circle""></div><div class=""square""></div><div class=""circle""></div></div>","q","","matchness_test_3","mismatch","方","q","true","mismatch"
"","null","html-keynbutton-response","349","2.0.0","2127600","13","<div class=""pb-14 text-7xl"">+</div>","null","fixation","","","","","",""
"","479","html-keynbutton-response","350","2.0.0","2128080","13","<div class=""flex flex-row stim-length pb-8 md:pd-20 justify-evenly items-center""><div class=""square""></div><div class=""circle""></div><div class=""square""></div></div>","q","","matchness_test_3","mismatch","圆","q","true","mismatch"
"","null","html-keynbutton-response","351","2.0.0","2128595","13","<div class=""pb-14 text-7xl"">+</div>","null","fixation","","","","","",""
"","381","html-keynbutton-response","352","2.0.0","2128977","13","<div class=""flex flex-row stim-length pb-8 md:pd-20 justify-evenly items-center""><div class=""circle""></div><div class=""circle""></div><div class=""circle""></div></div>","p","","matchness_test_3","match","圆","p","true","match"
"","null","html-keynbutton-response","353","2.0.0","2129484","13","<div class=""pb-14 text-7xl"">+</div>","null","fixation","","","","","",""
"","467","html-keynbutton-response","354","2.0.0","2129952","13","<div class=""flex flex-row stim-length pb-8 md:pd-20 justify-evenly items-center""><div class=""circle""></div><div class=""square""></div><div class=""circle""></div></div>","q","","matchness_test_3","mismatch","方","q","true","mismatch"
"","null","html-keynbutton-response","355","2.0.0","2130452","13","<div class=""pb-14 text-7xl"">+</div>","null","fixation","","","","","",""
"","379","html-keynbutton-response","356","2.0.0","2130833","13","<div class=""flex flex-row stim-length pb-8 md:pd-20 justify-evenly items-center""><div class=""square""></div><div class=""square""></div><div class=""square""></div></div>","p","","matchness_test_3","match","方","p","true","match"
"","null","html-keynbutton-response","357","2.0.0","2131336","13","<div class=""pb-14 text-7xl"">+</div>","null","fixation","","","","","",""
"","583","html-keynbutton-response","358","2.0.0","2131920","13","<div class=""flex flex-row stim-length pb-8 md:pd-20 justify-evenly items-center""><div class=""circle""></div><div class=""circle""></div><div class=""circle""></div></div>","p","","matchness_test_3","match","圆","p","true","match"
"","null","html-keynbutton-response","359","2.0.0","2132434","13","<div class=""pb-14 text-7xl"">+</div>","null","fixation","","","","","",""
"","413","html-keynbutton-response","360","2.0.0","2132849","13","<div class=""flex flex-row stim-length pb-8 md:pd-20 justify-evenly items-center""><div class=""square""></div><div class=""circle""></div><div class=""square""></div></div>","q","","matchness_test_3","mismatch","圆","q","true","mismatch"
"","null","html-keynbutton-response","361","2.0.0","2133352","13","<div class=""pb-14 text-7xl"">+</div>","null","fixation","","","","","",""
"","487","html-keynbutton-response","362","2.0.0","2133840","13","<div class=""flex flex-row stim-length pb-8 md:pd-20 justify-evenly items-center""><div class=""square""></div><div class=""circle""></div><div class=""square""></div></div>","q","","matchness_test_3","mismatch","圆","q","true","mismatch"
"","null","html-keynbutton-response","363","2.0.0","2134351","13","<div class=""pb-14 text-7xl"">+</div>","null","fixation","","","","","",""
"","352","html-keynbutton-response","364","2.0.0","2134704","13","<div class=""flex flex-row stim-length pb-8 md:pd-20 justify-evenly items-center""><div class=""square""></div><div class=""square""></div><div class=""square""></div></div>","p","","matchness_test_3","match","方","p","true","match"
"","null","html-keynbutton-response","365","2.0.0","2135217","13","<div class=""pb-14 text-7xl"">+</div>","null","fixation","","","","","",""
"","430","html-keynbutton-response","366","2.0.0","2135648","13","<div class=""flex flex-row stim-length pb-8 md:pd-20 justify-evenly items-center""><div class=""circle""></div><div class=""circle""></div><div class=""circle""></div></div>","p","","matchness_test_3","match","圆","p","true","match"
"","null","html-keynbutton-response","367","2.0.0","2136156","13","<div class=""pb-14 text-7xl"">+</div>","null","fixation","","","","","",""
"","389","html-keynbutton-response","368","2.0.0","2136546","13","<div class=""flex flex-row stim-length pb-8 md:pd-20 justify-evenly items-center""><div class=""circle""></div><div class=""square""></div><div class=""circle""></div></div>","q","","matchness_test_3","mismatch","方","q","true","mismatch"
"","null","html-keynbutton-response","369","2.0.0","2137052","13","<div class=""pb-14 text-7xl"">+</div>","null","fixation","","","","","",""
"","436","html-keynbutton-response","370","2.0.0","2137489","13","<div class=""flex flex-row stim-length pb-8 md:pd-20 justify-evenly items-center""><div class=""circle""></div><div class=""circle""></div><div class=""circle""></div></div>","p","","matchness_test_3","match","圆","p","true","match"
"","null","html-keynbutton-response","371","2.0.0","2138001","13","<div class=""pb-14 text-7xl"">+</div>","null","fixation","","","","","",""
"","383","html-keynbutton-response","372","2.0.0","2138385","13","<div class=""flex flex-row stim-length pb-8 md:pd-20 justify-evenly items-center""><div class=""square""></div><div class=""circle""></div><div class=""square""></div></div>","q","","matchness_test_3","mismatch","圆","q","true","mismatch"
"","null","html-keynbutton-response","373","2.0.0","2138901","13","<div class=""pb-14 text-7xl"">+</div>","null","fixation","","","","","",""
"","395","html-keynbutton-response","374","2.0.0","2139297","13","<div class=""flex flex-row stim-length pb-8 md:pd-20 justify-evenly items-center""><div class=""square""></div><div class=""square""></div><div class=""square""></div></div>","p","","matchness_test_3","match","方","p","true","match"
"","null","html-keynbutton-response","375","2.0.0","2139803","13","<div class=""pb-14 text-7xl"">+</div>","null","fixation","","","","","",""
"","388","html-keynbutton-response","376","2.0.0","2140192","13","<div class=""flex flex-row stim-length pb-8 md:pd-20 justify-evenly items-center""><div class=""circle""></div><div class=""square""></div><div class=""circle""></div></div>","q","","matchness_test_3","mismatch","方","q","true","mismatch"
"","null","html-keynbutton-response","377","2.0.0","2140701","13","<div class=""pb-14 text-7xl"">+</div>","null","fixation","","","","","",""
"","371","html-keynbutton-response","378","2.0.0","2141073","13","<div class=""flex flex-row stim-length pb-8 md:pd-20 justify-evenly items-center""><div class=""circle""></div><div class=""circle""></div><div class=""circle""></div></div>","p","","matchness_test_3","match","圆","p","true","match"
"","null","html-keynbutton-response","379","2.0.0","2141584","13","<div class=""pb-14 text-7xl"">+</div>","null","fixation","","","","","",""
"","416","html-keynbutton-response","380","2.0.0","2142001","13","<div class=""flex flex-row stim-length pb-8 md:pd-20 justify-evenly items-center""><div class=""square""></div><div class=""circle""></div><div class=""square""></div></div>","q","","matchness_test_3","mismatch","圆","q","true","mismatch"
"","null","html-keynbutton-response","381","2.0.0","2142503","13","<div class=""pb-14 text-7xl"">+</div>","null","fixation","","","","","",""
"","601","html-keynbutton-response","382","2.0.0","2143105","13","<div class=""flex flex-row stim-length pb-8 md:pd-20 justify-evenly items-center""><div class=""circle""></div><div class=""square""></div><div class=""circle""></div></div>","q","","matchness_test_3","mismatch","方","q","true","mismatch"
"","null","html-keynbutton-response","383","2.0.0","2143620","13","<div class=""pb-14 text-7xl"">+</div>","null","fixation","","","","","",""
"","412","html-keynbutton-response","384","2.0.0","2144033","13","<div class=""flex flex-row stim-length pb-8 md:pd-20 justify-evenly items-center""><div class=""square""></div><div class=""square""></div><div class=""square""></div></div>","p","","matchness_test_3","match","方","p","true","match"
"","null","html-keynbutton-response","385","2.0.0","2144535","13","<div class=""pb-14 text-7xl"">+</div>","null","fixation","","","","","",""
"","440","html-keynbutton-response","386","2.0.0","2144977","13","<div class=""flex flex-row stim-length pb-8 md:pd-20 justify-evenly items-center""><div class=""circle""></div><div class=""square""></div><div class=""circle""></div></div>","q","","matchness_test_3","mismatch","方","q","true","mismatch"
"","null","html-keynbutton-response","387","2.0.0","2145484","13","<div class=""pb-14 text-7xl"">+</div>","null","fixation","","","","","",""
"","387","html-keynbutton-response","388","2.0.0","2145872","13","<div class=""flex flex-row stim-length pb-8 md:pd-20 justify-evenly items-center""><div class=""circle""></div><div class=""circle""></div><div class=""circle""></div></div>","p","","matchness_test_3","match","圆","p","true","match"
"","null","html-keynbutton-response","389","2.0.0","2146385","13","<div class=""pb-14 text-7xl"">+</div>","null","fixation","","","","","",""
"","463","html-keynbutton-response","390","2.0.0","2146849","13","<div class=""flex flex-row stim-length pb-8 md:pd-20 justify-evenly items-center""><div class=""square""></div><div class=""square""></div><div class=""square""></div></div>","p","","matchness_test_3","match","方","p","true","match"
"","null","html-keynbutton-response","391","2.0.0","2147352","13","<div class=""pb-14 text-7xl"">+</div>","null","fixation","","","","","",""
"","423","html-keynbutton-response","392","2.0.0","2147775","13","<div class=""flex flex-row stim-length pb-8 md:pd-20 justify-evenly items-center""><div class=""square""></div><div class=""circle""></div><div class=""square""></div></div>","q","","matchness_test_3","mismatch","圆","q","true","mismatch"
"","2360","html-keynbutton-response","393","2.0.0","2150136","13","<div class=""jp""><p>您已完成4/10部分</p><p>请休息一会儿</p>
    <p>您的正确率是：100%</p>
    <p>您的平均反应时间是：442毫秒</p></div>"," ","block_feedback","","","","","",""
"","null","html-keynbutton-response","394","2.0.0","2153357","13","<count-down title=""""></count-down>","null","countDown_trial","","","","","",""
"","null","html-keynbutton-response","395","2.0.0","2153861","13","<div class=""pb-14 text-7xl"">+</div>","null","fixation","","","","","",""
"","404","html-keynbutton-response","396","2.0.0","2154266","13","<div class=""flex flex-row stim-length pb-8 md:pd-20 justify-evenly items-center""><div class=""square""></div><div class=""circle""></div><div class=""square""></div></div>","q","","matchness_test_4","mismatch","圆","q","true","mismatch"
"","null","html-keynbutton-response","397","2.0.0","2154777","13","<div class=""pb-14 text-7xl"">+</div>","null","fixation","","","","","",""
"","512","html-keynbutton-response","398","2.0.0","2155290","13","<div class=""flex flex-row stim-length pb-8 md:pd-20 justify-evenly items-center""><div class=""circle""></div><div class=""square""></div><div class=""circle""></div></div>","q","","matchness_test_4","mismatch","方","q","true","mismatch"
"","null","html-keynbutton-response","399","2.0.0","2155796","13","<div class=""pb-14 text-7xl"">+</div>","null","fixation","","","","","",""
"","357","html-keynbutton-response","400","2.0.0","2156154","13","<div class=""flex flex-row stim-length pb-8 md:pd-20 justify-evenly items-center""><div class=""square""></div><div class=""square""></div><div class=""square""></div></div>","p","","matchness_test_4","match","方","p","true","match"
"","null","html-keynbutton-response","401","2.0.0","2156661","13","<div class=""pb-14 text-7xl"">+</div>","null","fixation","","","","","",""
"","403","html-keynbutton-response","402","2.0.0","2157066","13","<div class=""flex flex-row stim-length pb-8 md:pd-20 justify-evenly items-center""><div class=""circle""></div><div class=""circle""></div><div class=""circle""></div></div>","p","","matchness_test_4","match","圆","p","true","match"
"","null","html-keynbutton-response","403","2.0.0","2157577","13","<div class=""pb-14 text-7xl"">+</div>","null","fixation","","","","","",""
"","304","html-keynbutton-response","404","2.0.0","2157882","13","<div class=""flex flex-row stim-length pb-8 md:pd-20 justify-evenly items-center""><div class=""square""></div><div class=""circle""></div><div class=""square""></div></div>","q","","matchness_test_4","mismatch","圆","q","true","mismatch"
"","null","html-keynbutton-response","405","2.0.0","2158393","13","<div class=""pb-14 text-7xl"">+</div>","null","fixation","","","","","",""
"","432","html-keynbutton-response","406","2.0.0","2158826","13","<div class=""flex flex-row stim-length pb-8 md:pd-20 justify-evenly items-center""><div class=""circle""></div><div class=""circle""></div><div class=""circle""></div></div>","p","","matchness_test_4","match","圆","p","true","match"
"","null","html-keynbutton-response","407","2.0.0","2159329","13","<div class=""pb-14 text-7xl"">+</div>","null","fixation","","","","","",""
"","456","html-keynbutton-response","408","2.0.0","2159786","13","<div class=""flex flex-row stim-length pb-8 md:pd-20 justify-evenly items-center""><div class=""square""></div><div class=""square""></div><div class=""square""></div></div>","p","","matchness_test_4","match","方","p","true","match"
"","null","html-keynbutton-response","409","2.0.0","2160293","13","<div class=""pb-14 text-7xl"">+</div>","null","fixation","","","","","",""
"","484","html-keynbutton-response","410","2.0.0","2160778","13","<div class=""flex flex-row stim-length pb-8 md:pd-20 justify-evenly items-center""><div class=""circle""></div><div class=""square""></div><div class=""circle""></div></div>","q","","matchness_test_4","mismatch","方","q","true","mismatch"
"","null","html-keynbutton-response","411","2.0.0","2161293","13","<div class=""pb-14 text-7xl"">+</div>","null","fixation","","","","","",""
"","379","html-keynbutton-response","412","2.0.0","2161674","13","<div class=""flex flex-row stim-length pb-8 md:pd-20 justify-evenly items-center""><div class=""square""></div><div class=""circle""></div><div class=""square""></div></div>","q","","matchness_test_4","mismatch","圆","q","true","mismatch"
"","null","html-keynbutton-response","413","2.0.0","2162178","13","<div class=""pb-14 text-7xl"">+</div>","null","fixation","","","","","",""
"","439","html-keynbutton-response","414","2.0.0","2162618","13","<div class=""flex flex-row stim-length pb-8 md:pd-20 justify-evenly items-center""><div class=""circle""></div><div class=""square""></div><div class=""circle""></div></div>","q","","matchness_test_4","mismatch","方","q","true","mismatch"
"","null","html-keynbutton-response","415","2.0.0","2163128","13","<div class=""pb-14 text-7xl"">+</div>","null","fixation","","","","","",""
"","353","html-keynbutton-response","416","2.0.0","2163481","13","<div class=""flex flex-row stim-length pb-8 md:pd-20 justify-evenly items-center""><div class=""circle""></div><div class=""circle""></div><div class=""circle""></div></div>","p","","matchness_test_4","match","圆","p","true","match"
"","null","html-keynbutton-response","417","2.0.0","2163993","13","<div class=""pb-14 text-7xl"">+</div>","null","fixation","","","","","",""
"","336","html-keynbutton-response","418","2.0.0","2164330","13","<div class=""flex flex-row stim-length pb-8 md:pd-20 justify-evenly items-center""><div class=""square""></div><div class=""square""></div><div class=""square""></div></div>","p","","matchness_test_4","match","方","p","true","match"
"","null","html-keynbutton-response","419","2.0.0","2164831","13","<div class=""pb-14 text-7xl"">+</div>","null","fixation","","","","","",""
"","442","html-keynbutton-response","420","2.0.0","2165274","13","<div class=""flex flex-row stim-length pb-8 md:pd-20 justify-evenly items-center""><div class=""circle""></div><div class=""circle""></div><div class=""circle""></div></div>","p","","matchness_test_4","match","圆","p","true","match"
"","null","html-keynbutton-response","421","2.0.0","2165778","13","<div class=""pb-14 text-7xl"">+</div>","null","fixation","","","","","",""
"","343","html-keynbutton-response","422","2.0.0","2166122","13","<div class=""flex flex-row stim-length pb-8 md:pd-20 justify-evenly items-center""><div class=""square""></div><div class=""circle""></div><div class=""square""></div></div>","q","","matchness_test_4","mismatch","圆","q","true","mismatch"
"","null","html-keynbutton-response","423","2.0.0","2166628","13","<div class=""pb-14 text-7xl"">+</div>","null","fixation","","","","","",""
"","421","html-keynbutton-response","424","2.0.0","2167050","13","<div class=""flex flex-row stim-length pb-8 md:pd-20 justify-evenly items-center""><div class=""square""></div><div class=""square""></div><div class=""square""></div></div>","p","","matchness_test_4","match","方","p","true","match"
"","null","html-keynbutton-response","425","2.0.0","2167560","13","<div class=""pb-14 text-7xl"">+</div>","null","fixation","","","","","",""
"","529","html-keynbutton-response","426","2.0.0","2168090","13","<div class=""flex flex-row stim-length pb-8 md:pd-20 justify-evenly items-center""><div class=""circle""></div><div class=""square""></div><div class=""circle""></div></div>","q","","matchness_test_4","mismatch","方","q","true","mismatch"
"","null","html-keynbutton-response","427","2.0.0","2168595","13","<div class=""pb-14 text-7xl"">+</div>","null","fixation","","","","","",""
"","725","html-keynbutton-response","428","2.0.0","2169322","13","<div class=""flex flex-row stim-length pb-8 md:pd-20 justify-evenly items-center""><div class=""square""></div><div class=""square""></div><div class=""square""></div></div>","p","","matchness_test_4","match","方","p","true","match"
"","null","html-keynbutton-response","429","2.0.0","2169828","13","<div class=""pb-14 text-7xl"">+</div>","null","fixation","","","","","",""
"","485","html-keynbutton-response","430","2.0.0","2170314","13","<div class=""flex flex-row stim-length pb-8 md:pd-20 justify-evenly items-center""><div class=""circle""></div><div class=""square""></div><div class=""circle""></div></div>","q","","matchness_test_4","mismatch","方","q","true","mismatch"
"","null","html-keynbutton-response","431","2.0.0","2170827","13","<div class=""pb-14 text-7xl"">+</div>","null","fixation","","","","","",""
"","542","html-keynbutton-response","432","2.0.0","2171370","13","<div class=""flex flex-row stim-length pb-8 md:pd-20 justify-evenly items-center""><div class=""square""></div><div class=""circle""></div><div class=""square""></div></div>","q","","matchness_test_4","mismatch","圆","q","true","mismatch"
"","null","html-keynbutton-response","433","2.0.0","2171878","13","<div class=""pb-14 text-7xl"">+</div>","null","fixation","","","","","",""
"","435","html-keynbutton-response","434","2.0.0","2172314","13","<div class=""flex flex-row stim-length pb-8 md:pd-20 justify-evenly items-center""><div class=""circle""></div><div class=""circle""></div><div class=""circle""></div></div>","p","","matchness_test_4","match","圆","p","true","match"
"","null","html-keynbutton-response","435","2.0.0","2172827","13","<div class=""pb-14 text-7xl"">+</div>","null","fixation","","","","","",""
"","478","html-keynbutton-response","436","2.0.0","2173306","13","<div class=""flex flex-row stim-length pb-8 md:pd-20 justify-evenly items-center""><div class=""circle""></div><div class=""square""></div><div class=""circle""></div></div>","q","","matchness_test_4","mismatch","方","q","true","mismatch"
"","null","html-keynbutton-response","437","2.0.0","2173816","13","<div class=""pb-14 text-7xl"">+</div>","null","fixation","","","","","",""
"","481","html-keynbutton-response","438","2.0.0","2174298","13","<div class=""flex flex-row stim-length pb-8 md:pd-20 justify-evenly items-center""><div class=""square""></div><div class=""circle""></div><div class=""square""></div></div>","q","","matchness_test_4","mismatch","圆","q","true","mismatch"
"","null","html-keynbutton-response","439","2.0.0","2174810","13","<div class=""pb-14 text-7xl"">+</div>","null","fixation","","","","","",""
"","351","html-keynbutton-response","440","2.0.0","2175162","13","<div class=""flex flex-row stim-length pb-8 md:pd-20 justify-evenly items-center""><div class=""square""></div><div class=""square""></div><div class=""square""></div></div>","p","","matchness_test_4","match","方","p","true","match"
"","null","html-keynbutton-response","441","2.0.0","2175677","13","<div class=""pb-14 text-7xl"">+</div>","null","fixation","","","","","",""
"","316","html-keynbutton-response","442","2.0.0","2175994","13","<div class=""flex flex-row stim-length pb-8 md:pd-20 justify-evenly items-center""><div class=""circle""></div><div class=""circle""></div><div class=""circle""></div></div>","p","","matchness_test_4","match","圆","p","true","match"
"","null","html-keynbutton-response","443","2.0.0","2176510","13","<div class=""pb-14 text-7xl"">+</div>","null","fixation","","","","","",""
"","477","html-keynbutton-response","444","2.0.0","2176988","13","<div class=""flex flex-row stim-length pb-8 md:pd-20 justify-evenly items-center""><div class=""circle""></div><div class=""square""></div><div class=""circle""></div></div>","q","","matchness_test_4","mismatch","方","q","true","mismatch"
"","null","html-keynbutton-response","445","2.0.0","2177494","13","<div class=""pb-14 text-7xl"">+</div>","null","fixation","","","","","",""
"","739","html-keynbutton-response","446","2.0.0","2178234","13","<div class=""flex flex-row stim-length pb-8 md:pd-20 justify-evenly items-center""><div class=""square""></div><div class=""circle""></div><div class=""square""></div></div>","q","","matchness_test_4","mismatch","圆","q","true","mismatch"
"","null","html-keynbutton-response","447","2.0.0","2178744","13","<div class=""pb-14 text-7xl"">+</div>","null","fixation","","","","","",""
"","513","html-keynbutton-response","448","2.0.0","2179258","13","<div class=""flex flex-row stim-length pb-8 md:pd-20 justify-evenly items-center""><div class=""circle""></div><div class=""circle""></div><div class=""circle""></div></div>","p","","matchness_test_4","match","圆","p","true","match"
"","null","html-keynbutton-response","449","2.0.0","2179761","13","<div class=""pb-14 text-7xl"">+</div>","null","fixation","","","","","",""
"","487","html-keynbutton-response","450","2.0.0","2180250","13","<div class=""flex flex-row stim-length pb-8 md:pd-20 justify-evenly items-center""><div class=""square""></div><div class=""square""></div><div class=""square""></div></div>","p","","matchness_test_4","match","方","p","true","match"
"","null","html-keynbutton-response","451","2.0.0","2180760","13","<div class=""pb-14 text-7xl"">+</div>","null","fixation","","","","","",""
"","496","html-keynbutton-response","452","2.0.0","2181257","13","<div class=""flex flex-row stim-length pb-8 md:pd-20 justify-evenly items-center""><div class=""circle""></div><div class=""square""></div><div class=""circle""></div></div>","q","","matchness_test_4","mismatch","方","q","true","mismatch"
"","null","html-keynbutton-response","453","2.0.0","2181763","13","<div class=""pb-14 text-7xl"">+</div>","null","fixation","","","","","",""
"","470","html-keynbutton-response","454","2.0.0","2182234","13","<div class=""flex flex-row stim-length pb-8 md:pd-20 justify-evenly items-center""><div class=""circle""></div><div class=""circle""></div><div class=""circle""></div></div>","p","","matchness_test_4","match","圆","p","true","match"
"","null","html-keynbutton-response","455","2.0.0","2182743","13","<div class=""pb-14 text-7xl"">+</div>","null","fixation","","","","","",""
"","450","html-keynbutton-response","456","2.0.0","2183194","13","<div class=""flex flex-row stim-length pb-8 md:pd-20 justify-evenly items-center""><div class=""square""></div><div class=""square""></div><div class=""square""></div></div>","p","","matchness_test_4","match","方","p","true","match"
