"success","rt","trial_type","trial_index","plugin_version","time_elapsed","subj_id","stimulus","response","trail_tag","task","ismatch","target","correct_key","correct","response_key"
"true","34188","fullscreen","0","2.0.0","35198","7","","","","","","","","",""
"","12702","html-keynbutton-response","1","2.0.0","47904","7","
        <div class=""jp px-2 xxs:px-5 mx-auto"">
        <p class=""text-center text-red-600 text-[1.2em] pb-5"">欢迎您参加知觉
          <strong>匹配实验。</strong>
        </p>
        <p>接下来的任务中您将看到一排图形。</p>
        <p>(圆形●或方形■)</p><p>您需要专注于中间的图形，判断中间的图形和两侧的图形<strong>是否匹配</strong>。</p>
        <p>如果图形不匹配，请按“q”；</p>
        <p>如果图形匹配，请按“p”。</p>
        <p>请尽量又快又准地做出反应。</p>
      <p>请按空格键开始练习。</p>
      </div>"," ","","","","","","",""
"","null","html-keynbutton-response","2","2.0.0","51119","7","<count-down title=""""></count-down>","null","countDown_trial","","","","","",""
"","null","html-keynbutton-response","3","2.0.0","51624","7","<div class=""pb-14 text-7xl"">+</div>","null","fixation","","","","","",""
"","null","html-keynbutton-response","4","2.0.0","53629","7","<div class=""flex flex-row stim-length pb-8 md:pd-20 justify-evenly items-center""><div class=""circle""></div><div class=""circle""></div><div class=""circle""></div></div>","null","","matchness_practice","match","圆","p","false","null"
"","null","html-keynbutton-response","5","2.0.0","54140","7","<span class='text-yellow-500 text-4xl md:text-5xl lg:text-6xl'>太慢!</span>","null","trial_feedback","","","","","",""
"","null","html-keynbutton-response","6","2.0.0","54651","7","<div class=""pb-14 text-7xl"">+</div>","null","fixation","","","","","",""
"","995","html-keynbutton-response","7","2.0.0","55647","7","<div class=""flex flex-row stim-length pb-8 md:pd-20 justify-evenly items-center""><div class=""square""></div><div class=""square""></div><div class=""square""></div></div>","q","","matchness_practice","match","方","p","false","mismatch"
"","null","html-keynbutton-response","8","2.0.0","56156","7","<span class='text-red-500 text-4xl md:text-5xl lg:text-6xl'>错误!</span>","null","trial_feedback","","","","","",""
"","null","html-keynbutton-response","9","2.0.0","56659","7","<div class=""pb-14 text-7xl"">+</div>","null","fixation","","","","","",""
"","1547","html-keynbutton-response","10","2.0.0","58207","7","<div class=""flex flex-row stim-length pb-8 md:pd-20 justify-evenly items-center""><div class=""circle""></div><div class=""square""></div><div class=""circle""></div></div>","q","","matchness_practice","mismatch","方","q","true","mismatch"
"","null","html-keynbutton-response","11","2.0.0","58721","7","<span class='text-yellow-500 text-4xl md:text-5xl lg:text-6xl'>太慢!</span>","null","trial_feedback","","","","","",""
"","null","html-keynbutton-response","12","2.0.0","59238","7","<div class=""pb-14 text-7xl"">+</div>","null","fixation","","","","","",""
"","552","html-keynbutton-response","13","2.0.0","59790","7","<div class=""flex flex-row stim-length pb-8 md:pd-20 justify-evenly items-center""><div class=""square""></div><div class=""circle""></div><div class=""square""></div></div>","q","","matchness_practice","mismatch","圆","q","true","mismatch"
"","null","html-keynbutton-response","14","2.0.0","60304","7","<span class='text-green-400 text-4xl md:text-5xl lg:text-6xl'>正确!</span>","null","trial_feedback","","","","","",""
"","null","html-keynbutton-response","15","2.0.0","60821","7","<div class=""pb-14 text-7xl"">+</div>","null","fixation","","","","","",""
"","568","html-keynbutton-response","16","2.0.0","61390","7","<div class=""flex flex-row stim-length pb-8 md:pd-20 justify-evenly items-center""><div class=""circle""></div><div class=""square""></div><div class=""circle""></div></div>","q","","matchness_practice","mismatch","方","q","true","mismatch"
"","null","html-keynbutton-response","17","2.0.0","61894","7","<span class='text-green-400 text-4xl md:text-5xl lg:text-6xl'>正确!</span>","null","trial_feedback","","","","","",""
"","null","html-keynbutton-response","18","2.0.0","62404","7","<div class=""pb-14 text-7xl"">+</div>","null","fixation","","","","","",""
"","392","html-keynbutton-response","19","2.0.0","62797","7","<div class=""flex flex-row stim-length pb-8 md:pd-20 justify-evenly items-center""><div class=""circle""></div><div class=""circle""></div><div class=""circle""></div></div>","p","","matchness_practice","match","圆","p","true","match"
"","null","html-keynbutton-response","20","2.0.0","63304","7","<span class='text-green-400 text-4xl md:text-5xl lg:text-6xl'>正确!</span>","null","trial_feedback","","","","","",""
"","null","html-keynbutton-response","21","2.0.0","63805","7","<div class=""pb-14 text-7xl"">+</div>","null","fixation","","","","","",""
"","448","html-keynbutton-response","22","2.0.0","64254","7","<div class=""flex flex-row stim-length pb-8 md:pd-20 justify-evenly items-center""><div class=""square""></div><div class=""circle""></div><div class=""square""></div></div>","q","","matchness_practice","mismatch","圆","q","true","mismatch"
"","null","html-keynbutton-response","23","2.0.0","64771","7","<span class='text-green-400 text-4xl md:text-5xl lg:text-6xl'>正确!</span>","null","trial_feedback","","","","","",""
"","null","html-keynbutton-response","24","2.0.0","65287","7","<div class=""pb-14 text-7xl"">+</div>","null","fixation","","","","","",""
"","534","html-keynbutton-response","25","2.0.0","65822","7","<div class=""flex flex-row stim-length pb-8 md:pd-20 justify-evenly items-center""><div class=""square""></div><div class=""square""></div><div class=""square""></div></div>","p","","matchness_practice","match","方","p","true","match"
"","null","html-keynbutton-response","26","2.0.0","66337","7","<span class='text-green-400 text-4xl md:text-5xl lg:text-6xl'>正确!</span>","null","trial_feedback","","","","","",""
"","null","html-keynbutton-response","27","2.0.0","66839","7","<div class=""pb-14 text-7xl"">+</div>","null","fixation","","","","","",""
"","486","html-keynbutton-response","28","2.0.0","67326","7","<div class=""flex flex-row stim-length pb-8 md:pd-20 justify-evenly items-center""><div class=""circle""></div><div class=""circle""></div><div class=""circle""></div></div>","p","","matchness_practice","match","圆","p","true","match"
"","null","html-keynbutton-response","29","2.0.0","67837","7","<span class='text-green-400 text-4xl md:text-5xl lg:text-6xl'>正确!</span>","null","trial_feedback","","","","","",""
"","null","html-keynbutton-response","30","2.0.0","68339","7","<div class=""pb-14 text-7xl"">+</div>","null","fixation","","","","","",""
"","394","html-keynbutton-response","31","2.0.0","68735","7","<div class=""flex flex-row stim-length pb-8 md:pd-20 justify-evenly items-center""><div class=""square""></div><div class=""square""></div><div class=""square""></div></div>","p","","matchness_practice","match","方","p","true","match"
"","null","html-keynbutton-response","32","2.0.0","69243","7","<span class='text-green-400 text-4xl md:text-5xl lg:text-6xl'>正确!</span>","null","trial_feedback","","","","","",""
"","null","html-keynbutton-response","33","2.0.0","69754","7","<div class=""pb-14 text-7xl"">+</div>","null","fixation","","","","","",""
"","531","html-keynbutton-response","34","2.0.0","70286","7","<div class=""flex flex-row stim-length pb-8 md:pd-20 justify-evenly items-center""><div class=""square""></div><div class=""circle""></div><div class=""square""></div></div>","q","","matchness_practice","mismatch","圆","q","true","mismatch"
"","null","html-keynbutton-response","35","2.0.0","70788","7","<span class='text-green-400 text-4xl md:text-5xl lg:text-6xl'>正确!</span>","null","trial_feedback","","","","","",""
"","null","html-keynbutton-response","36","2.0.0","71299","7","<div class=""pb-14 text-7xl"">+</div>","null","fixation","","","","","",""
"","523","html-keynbutton-response","37","2.0.0","71823","7","<div class=""flex flex-row stim-length pb-8 md:pd-20 justify-evenly items-center""><div class=""circle""></div><div class=""square""></div><div class=""circle""></div></div>","q","","matchness_practice","mismatch","方","q","true","mismatch"
"","null","html-keynbutton-response","38","2.0.0","72337","7","<span class='text-green-400 text-4xl md:text-5xl lg:text-6xl'>正确!</span>","null","trial_feedback","","","","","",""
"","null","html-keynbutton-response","39","2.0.0","72854","7","<div class=""pb-14 text-7xl"">+</div>","null","fixation","","","","","",""
"","519","html-keynbutton-response","40","2.0.0","73374","7","<div class=""flex flex-row stim-length pb-8 md:pd-20 justify-evenly items-center""><div class=""square""></div><div class=""square""></div><div class=""square""></div></div>","p","","matchness_practice","match","方","p","true","match"
"","null","html-keynbutton-response","41","2.0.0","73887","7","<span class='text-green-400 text-4xl md:text-5xl lg:text-6xl'>正确!</span>","null","trial_feedback","","","","","",""
"","null","html-keynbutton-response","42","2.0.0","74389","7","<div class=""pb-14 text-7xl"">+</div>","null","fixation","","","","","",""
"","457","html-keynbutton-response","43","2.0.0","74846","7","<div class=""flex flex-row stim-length pb-8 md:pd-20 justify-evenly items-center""><div class=""circle""></div><div class=""square""></div><div class=""circle""></div></div>","q","","matchness_practice","mismatch","方","q","true","mismatch"
"","null","html-keynbutton-response","44","2.0.0","75354","7","<span class='text-green-400 text-4xl md:text-5xl lg:text-6xl'>正确!</span>","null","trial_feedback","","","","","",""
"","null","html-keynbutton-response","45","2.0.0","75855","7","<div class=""pb-14 text-7xl"">+</div>","null","fixation","","","","","",""
"","494","html-keynbutton-response","46","2.0.0","76350","7","<div class=""flex flex-row stim-length pb-8 md:pd-20 justify-evenly items-center""><div class=""circle""></div><div class=""circle""></div><div class=""circle""></div></div>","p","","matchness_practice","match","圆","p","true","match"
"","null","html-keynbutton-response","47","2.0.0","76857","7","<span class='text-green-400 text-4xl md:text-5xl lg:text-6xl'>正确!</span>","null","trial_feedback","","","","","",""
"","null","html-keynbutton-response","48","2.0.0","77371","7","<div class=""pb-14 text-7xl"">+</div>","null","fixation","","","","","",""
"","434","html-keynbutton-response","49","2.0.0","77806","7","<div class=""flex flex-row stim-length pb-8 md:pd-20 justify-evenly items-center""><div class=""square""></div><div class=""circle""></div><div class=""square""></div></div>","q","","matchness_practice","mismatch","圆","q","true","mismatch"
"","null","html-keynbutton-response","50","2.0.0","78309","7","<span class='text-green-400 text-4xl md:text-5xl lg:text-6xl'>正确!</span>","null","trial_feedback","","","","","",""
"","null","html-keynbutton-response","51","2.0.0","78820","7","<div class=""pb-14 text-7xl"">+</div>","null","fixation","","","","","",""
"","521","html-keynbutton-response","52","2.0.0","79342","7","<div class=""flex flex-row stim-length pb-8 md:pd-20 justify-evenly items-center""><div class=""square""></div><div class=""square""></div><div class=""square""></div></div>","p","","matchness_practice","match","方","p","true","match"
"","null","html-keynbutton-response","53","2.0.0","79855","7","<span class='text-green-400 text-4xl md:text-5xl lg:text-6xl'>正确!</span>","null","trial_feedback","","","","","",""
"","null","html-keynbutton-response","54","2.0.0","80371","7","<div class=""pb-14 text-7xl"">+</div>","null","fixation","","","","","",""
"","442","html-keynbutton-response","55","2.0.0","80814","7","<div class=""flex flex-row stim-length pb-8 md:pd-20 justify-evenly items-center""><div class=""square""></div><div class=""circle""></div><div class=""square""></div></div>","q","","matchness_practice","mismatch","圆","q","true","mismatch"
"","null","html-keynbutton-response","56","2.0.0","81322","7","<span class='text-green-400 text-4xl md:text-5xl lg:text-6xl'>正确!</span>","null","trial_feedback","","","","","",""
"","null","html-keynbutton-response","57","2.0.0","81826","7","<div class=""pb-14 text-7xl"">+</div>","null","fixation","","","","","",""
"","428","html-keynbutton-response","58","2.0.0","82254","7","<div class=""flex flex-row stim-length pb-8 md:pd-20 justify-evenly items-center""><div class=""circle""></div><div class=""circle""></div><div class=""circle""></div></div>","p","","matchness_practice","match","圆","p","true","match"
"","null","html-keynbutton-response","59","2.0.0","82770","7","<span class='text-green-400 text-4xl md:text-5xl lg:text-6xl'>正确!</span>","null","trial_feedback","","","","","",""
"","null","html-keynbutton-response","60","2.0.0","83272","7","<div class=""pb-14 text-7xl"">+</div>","null","fixation","","","","","",""
"","421","html-keynbutton-response","61","2.0.0","83694","7","<div class=""flex flex-row stim-length pb-8 md:pd-20 justify-evenly items-center""><div class=""circle""></div><div class=""square""></div><div class=""circle""></div></div>","q","","matchness_practice","mismatch","方","q","true","mismatch"
"","null","html-keynbutton-response","62","2.0.0","84200","7","<span class='text-green-400 text-4xl md:text-5xl lg:text-6xl'>正确!</span>","null","trial_feedback","","","","","",""
"","3955","html-keynbutton-response","64","2.0.0","88157","7","<div class=""jp"">
    <p>您的正确率是：90%</p>
    <p>您的平均反应时间是：562毫秒</p></div>"," ","block_feedback","","","","","",""
"","3088","html-keynbutton-response","65","2.0.0","91246","7","
        <div class=""jp px-2 xxs:px-5 mx-auto"">
        <p class=""text-center text-red-600 text-[1.2em] pb-5"">练习结束，现在开始正式实验</p>
        <p>请注意：正式实验中将不再会呈现反馈。</p>
        </div>
        "," ","","","","","","",""
"","null","html-keynbutton-response","66","2.0.0","94451","7","<count-down title=""""></count-down>","null","countDown_trial","","","","","",""
"","null","html-keynbutton-response","67","2.0.0","94956","7","<div class=""pb-14 text-7xl"">+</div>","null","fixation","","","","","",""
"","418","html-keynbutton-response","68","2.0.0","95374","7","<div class=""flex flex-row stim-length pb-8 md:pd-20 justify-evenly items-center""><div class=""square""></div><div class=""square""></div><div class=""square""></div></div>","p","","matchness_test","match","方","p","true","match"
"","null","html-keynbutton-response","69","2.0.0","95887","7","<div class=""pb-14 text-7xl"">+</div>","null","fixation","","","","","",""
"","462","html-keynbutton-response","70","2.0.0","96350","7","<div class=""flex flex-row stim-length pb-8 md:pd-20 justify-evenly items-center""><div class=""circle""></div><div class=""circle""></div><div class=""circle""></div></div>","p","","matchness_test","match","圆","p","true","match"
"","null","html-keynbutton-response","71","2.0.0","96856","7","<div class=""pb-14 text-7xl"">+</div>","null","fixation","","","","","",""
"","437","html-keynbutton-response","72","2.0.0","97294","7","<div class=""flex flex-row stim-length pb-8 md:pd-20 justify-evenly items-center""><div class=""circle""></div><div class=""square""></div><div class=""circle""></div></div>","q","","matchness_test","mismatch","方","q","true","mismatch"
"","null","html-keynbutton-response","73","2.0.0","97805","7","<div class=""pb-14 text-7xl"">+</div>","null","fixation","","","","","",""
"","448","html-keynbutton-response","74","2.0.0","98254","7","<div class=""flex flex-row stim-length pb-8 md:pd-20 justify-evenly items-center""><div class=""square""></div><div class=""circle""></div><div class=""square""></div></div>","q","","matchness_test","mismatch","圆","q","true","mismatch"
"","null","html-keynbutton-response","75","2.0.0","98762","7","<div class=""pb-14 text-7xl"">+</div>","null","fixation","","","","","",""
"","482","html-keynbutton-response","76","2.0.0","99245","7","<div class=""flex flex-row stim-length pb-8 md:pd-20 justify-evenly items-center""><div class=""circle""></div><div class=""square""></div><div class=""circle""></div></div>","q","","matchness_test","mismatch","方","q","true","mismatch"
"","null","html-keynbutton-response","77","2.0.0","99755","7","<div class=""pb-14 text-7xl"">+</div>","null","fixation","","","","","",""
"","498","html-keynbutton-response","78","2.0.0","100253","7","<div class=""flex flex-row stim-length pb-8 md:pd-20 justify-evenly items-center""><div class=""square""></div><div class=""square""></div><div class=""square""></div></div>","p","","matchness_test","match","方","p","true","match"
"","null","html-keynbutton-response","79","2.0.0","100755","7","<div class=""pb-14 text-7xl"">+</div>","null","fixation","","","","","",""
"","411","html-keynbutton-response","80","2.0.0","101166","7","<div class=""flex flex-row stim-length pb-8 md:pd-20 justify-evenly items-center""><div class=""circle""></div><div class=""circle""></div><div class=""circle""></div></div>","p","","matchness_test","match","圆","p","true","match"
"","null","html-keynbutton-response","81","2.0.0","101673","7","<div class=""pb-14 text-7xl"">+</div>","null","fixation","","","","","",""
"","469","html-keynbutton-response","82","2.0.0","102143","7","<div class=""flex flex-row stim-length pb-8 md:pd-20 justify-evenly items-center""><div class=""square""></div><div class=""circle""></div><div class=""square""></div></div>","q","","matchness_test","mismatch","圆","q","true","mismatch"
"","null","html-keynbutton-response","83","2.0.0","102655","7","<div class=""pb-14 text-7xl"">+</div>","null","fixation","","","","","",""
"","447","html-keynbutton-response","84","2.0.0","103102","7","<div class=""flex flex-row stim-length pb-8 md:pd-20 justify-evenly items-center""><div class=""square""></div><div class=""square""></div><div class=""square""></div></div>","p","","matchness_test","match","方","p","true","match"
"","null","html-keynbutton-response","85","2.0.0","103605","7","<div class=""pb-14 text-7xl"">+</div>","null","fixation","","","","","",""
"","456","html-keynbutton-response","86","2.0.0","104062","7","<div class=""flex flex-row stim-length pb-8 md:pd-20 justify-evenly items-center""><div class=""square""></div><div class=""circle""></div><div class=""square""></div></div>","q","","matchness_test","mismatch","圆","q","true","mismatch"
"","null","html-keynbutton-response","87","2.0.0","104578","7","<div class=""pb-14 text-7xl"">+</div>","null","fixation","","","","","",""
"","523","html-keynbutton-response","88","2.0.0","105102","7","<div class=""flex flex-row stim-length pb-8 md:pd-20 justify-evenly items-center""><div class=""circle""></div><div class=""circle""></div><div class=""circle""></div></div>","p","","matchness_test","match","圆","p","true","match"
"","null","html-keynbutton-response","89","2.0.0","105605","7","<div class=""pb-14 text-7xl"">+</div>","null","fixation","","","","","",""
"","504","html-keynbutton-response","90","2.0.0","106110","7","<div class=""flex flex-row stim-length pb-8 md:pd-20 justify-evenly items-center""><div class=""circle""></div><div class=""square""></div><div class=""circle""></div></div>","q","","matchness_test","mismatch","方","q","true","mismatch"
"","null","html-keynbutton-response","91","2.0.0","106622","7","<div class=""pb-14 text-7xl"">+</div>","null","fixation","","","","","",""
"","528","html-keynbutton-response","92","2.0.0","107150","7","<div class=""flex flex-row stim-length pb-8 md:pd-20 justify-evenly items-center""><div class=""circle""></div><div class=""square""></div><div class=""circle""></div></div>","q","","matchness_test","mismatch","方","q","true","mismatch"
"","null","html-keynbutton-response","93","2.0.0","107656","7","<div class=""pb-14 text-7xl"">+</div>","null","fixation","","","","","",""
"","468","html-keynbutton-response","94","2.0.0","108125","7","<div class=""flex flex-row stim-length pb-8 md:pd-20 justify-evenly items-center""><div class=""square""></div><div class=""square""></div><div class=""square""></div></div>","p","","matchness_test","match","方","p","true","match"
"","null","html-keynbutton-response","95","2.0.0","108637","7","<div class=""pb-14 text-7xl"">+</div>","null","fixation","","","","","",""
"","560","html-keynbutton-response","96","2.0.0","109198","7","<div class=""flex flex-row stim-length pb-8 md:pd-20 justify-evenly items-center""><div class=""circle""></div><div class=""circle""></div><div class=""circle""></div></div>","p","","matchness_test","match","圆","p","true","match"
"","null","html-keynbutton-response","97","2.0.0","109705","7","<div class=""pb-14 text-7xl"">+</div>","null","fixation","","","","","",""
"","324","html-keynbutton-response","98","2.0.0","110030","7","<div class=""flex flex-row stim-length pb-8 md:pd-20 justify-evenly items-center""><div class=""square""></div><div class=""circle""></div><div class=""square""></div></div>","p","","matchness_test","mismatch","圆","q","false","match"
"","null","html-keynbutton-response","99","2.0.0","110537","7","<div class=""pb-14 text-7xl"">+</div>","null","fixation","","","","","",""
"","628","html-keynbutton-response","100","2.0.0","111166","7","<div class=""flex flex-row stim-length pb-8 md:pd-20 justify-evenly items-center""><div class=""square""></div><div class=""circle""></div><div class=""square""></div></div>","q","","matchness_test","mismatch","圆","q","true","mismatch"
"","null","html-keynbutton-response","101","2.0.0","111677","7","<div class=""pb-14 text-7xl"">+</div>","null","fixation","","","","","",""
"","481","html-keynbutton-response","102","2.0.0","112158","7","<div class=""flex flex-row stim-length pb-8 md:pd-20 justify-evenly items-center""><div class=""circle""></div><div class=""circle""></div><div class=""circle""></div></div>","p","","matchness_test","match","圆","p","true","match"
"","null","html-keynbutton-response","103","2.0.0","112671","7","<div class=""pb-14 text-7xl"">+</div>","null","fixation","","","","","",""
"","575","html-keynbutton-response","104","2.0.0","113246","7","<div class=""flex flex-row stim-length pb-8 md:pd-20 justify-evenly items-center""><div class=""square""></div><div class=""square""></div><div class=""square""></div></div>","p","","matchness_test","match","方","p","true","match"
"","null","html-keynbutton-response","105","2.0.0","113754","7","<div class=""pb-14 text-7xl"">+</div>","null","fixation","","","","","",""
"","468","html-keynbutton-response","106","2.0.0","114222","7","<div class=""flex flex-row stim-length pb-8 md:pd-20 justify-evenly items-center""><div class=""circle""></div><div class=""square""></div><div class=""circle""></div></div>","q","","matchness_test","mismatch","方","q","true","mismatch"
"","null","html-keynbutton-response","107","2.0.0","114738","7","<div class=""pb-14 text-7xl"">+</div>","null","fixation","","","","","",""
"","715","html-keynbutton-response","108","2.0.0","115454","7","<div class=""flex flex-row stim-length pb-8 md:pd-20 justify-evenly items-center""><div class=""square""></div><div class=""circle""></div><div class=""square""></div></div>","q","","matchness_test","mismatch","圆","q","true","mismatch"
"","null","html-keynbutton-response","109","2.0.0","115971","7","<div class=""pb-14 text-7xl"">+</div>","null","fixation","","","","","",""
"","442","html-keynbutton-response","110","2.0.0","116414","7","<div class=""flex flex-row stim-length pb-8 md:pd-20 justify-evenly items-center""><div class=""circle""></div><div class=""square""></div><div class=""circle""></div></div>","q","","matchness_test","mismatch","方","q","true","mismatch"
"","null","html-keynbutton-response","111","2.0.0","116921","7","<div class=""pb-14 text-7xl"">+</div>","null","fixation","","","","","",""
"","484","html-keynbutton-response","112","2.0.0","117406","7","<div class=""flex flex-row stim-length pb-8 md:pd-20 justify-evenly items-center""><div class=""square""></div><div class=""square""></div><div class=""square""></div></div>","p","","matchness_test","match","方","p","true","match"
"","null","html-keynbutton-response","113","2.0.0","117921","7","<div class=""pb-14 text-7xl"">+</div>","null","fixation","","","","","",""
"","589","html-keynbutton-response","114","2.0.0","118511","7","<div class=""flex flex-row stim-length pb-8 md:pd-20 justify-evenly items-center""><div class=""circle""></div><div class=""circle""></div><div class=""circle""></div></div>","p","","matchness_test","match","圆","p","true","match"
"","null","html-keynbutton-response","115","2.0.0","119022","7","<div class=""pb-14 text-7xl"">+</div>","null","fixation","","","","","",""
"","448","html-keynbutton-response","116","2.0.0","119470","7","<div class=""flex flex-row stim-length pb-8 md:pd-20 justify-evenly items-center""><div class=""circle""></div><div class=""square""></div><div class=""circle""></div></div>","q","","matchness_test","mismatch","方","q","true","mismatch"
"","null","html-keynbutton-response","117","2.0.0","119972","7","<div class=""pb-14 text-7xl"">+</div>","null","fixation","","","","","",""
"","506","html-keynbutton-response","118","2.0.0","120479","7","<div class=""flex flex-row stim-length pb-8 md:pd-20 justify-evenly items-center""><div class=""square""></div><div class=""circle""></div><div class=""square""></div></div>","q","","matchness_test","mismatch","圆","q","true","mismatch"
"","null","html-keynbutton-response","119","2.0.0","120981","7","<div class=""pb-14 text-7xl"">+</div>","null","fixation","","","","","",""
"","457","html-keynbutton-response","120","2.0.0","121438","7","<div class=""flex flex-row stim-length pb-8 md:pd-20 justify-evenly items-center""><div class=""square""></div><div class=""square""></div><div class=""square""></div></div>","p","","matchness_test","match","方","p","true","match"
"","null","html-keynbutton-response","121","2.0.0","121939","7","<div class=""pb-14 text-7xl"">+</div>","null","fixation","","","","","",""
"","506","html-keynbutton-response","122","2.0.0","122446","7","<div class=""flex flex-row stim-length pb-8 md:pd-20 justify-evenly items-center""><div class=""circle""></div><div class=""circle""></div><div class=""circle""></div></div>","p","","matchness_test","match","圆","p","true","match"
"","null","html-keynbutton-response","123","2.0.0","122956","7","<div class=""pb-14 text-7xl"">+</div>","null","fixation","","","","","",""
"","465","html-keynbutton-response","124","2.0.0","123422","7","<div class=""flex flex-row stim-length pb-8 md:pd-20 justify-evenly items-center""><div class=""square""></div><div class=""square""></div><div class=""square""></div></div>","p","","matchness_test","match","方","p","true","match"
"","null","html-keynbutton-response","125","2.0.0","123924","7","<div class=""pb-14 text-7xl"">+</div>","null","fixation","","","","","",""
"","441","html-keynbutton-response","126","2.0.0","124366","7","<div class=""flex flex-row stim-length pb-8 md:pd-20 justify-evenly items-center""><div class=""square""></div><div class=""circle""></div><div class=""square""></div></div>","q","","matchness_test","mismatch","圆","q","true","mismatch"
"","null","html-keynbutton-response","127","2.0.0","124872","7","<div class=""pb-14 text-7xl"">+</div>","null","fixation","","","","","",""
"","422","html-keynbutton-response","128","2.0.0","125295","7","<div class=""flex flex-row stim-length pb-8 md:pd-20 justify-evenly items-center""><div class=""circle""></div><div class=""square""></div><div class=""circle""></div></div>","q","","matchness_test","mismatch","方","q","true","mismatch"
"","null","html-keynbutton-response","129","2.0.0","125805","7","<div class=""pb-14 text-7xl"">+</div>","null","fixation","","","","","",""
"","401","html-keynbutton-response","130","2.0.0","126207","7","<div class=""flex flex-row stim-length pb-8 md:pd-20 justify-evenly items-center""><div class=""circle""></div><div class=""circle""></div><div class=""circle""></div></div>","p","","matchness_test","match","圆","p","true","match"
"","null","html-keynbutton-response","131","2.0.0","126722","7","<div class=""pb-14 text-7xl"">+</div>","null","fixation","","","","","",""
"","364","html-keynbutton-response","132","2.0.0","127087","7","<div class=""flex flex-row stim-length pb-8 md:pd-20 justify-evenly items-center""><div class=""square""></div><div class=""square""></div><div class=""square""></div></div>","p","","matchness_test","match","方","p","true","match"
"","null","html-keynbutton-response","133","2.0.0","127589","7","<div class=""pb-14 text-7xl"">+</div>","null","fixation","","","","","",""
"","330","html-keynbutton-response","134","2.0.0","127920","7","<div class=""flex flex-row stim-length pb-8 md:pd-20 justify-evenly items-center""><div class=""circle""></div><div class=""circle""></div><div class=""circle""></div></div>","p","","matchness_test","match","圆","p","true","match"
"","null","html-keynbutton-response","135","2.0.0","128422","7","<div class=""pb-14 text-7xl"">+</div>","null","fixation","","","","","",""
"","280","html-keynbutton-response","136","2.0.0","128703","7","<div class=""flex flex-row stim-length pb-8 md:pd-20 justify-evenly items-center""><div class=""circle""></div><div class=""square""></div><div class=""circle""></div></div>","p","","matchness_test","mismatch","方","q","false","match"
"","null","html-keynbutton-response","137","2.0.0","129213","7","<div class=""pb-14 text-7xl"">+</div>","null","fixation","","","","","",""
"","545","html-keynbutton-response","138","2.0.0","129759","7","<div class=""flex flex-row stim-length pb-8 md:pd-20 justify-evenly items-center""><div class=""square""></div><div class=""circle""></div><div class=""square""></div></div>","p","","matchness_test","mismatch","圆","q","false","match"
"","null","html-keynbutton-response","139","2.0.0","130271","7","<div class=""pb-14 text-7xl"">+</div>","null","fixation","","","","","",""
"","591","html-keynbutton-response","140","2.0.0","130863","7","<div class=""flex flex-row stim-length pb-8 md:pd-20 justify-evenly items-center""><div class=""square""></div><div class=""circle""></div><div class=""square""></div></div>","q","","matchness_test","mismatch","圆","q","true","mismatch"
"","null","html-keynbutton-response","141","2.0.0","131372","7","<div class=""pb-14 text-7xl"">+</div>","null","fixation","","","","","",""
"","658","html-keynbutton-response","142","2.0.0","132031","7","<div class=""flex flex-row stim-length pb-8 md:pd-20 justify-evenly items-center""><div class=""square""></div><div class=""square""></div><div class=""square""></div></div>","p","","matchness_test","match","方","p","true","match"
"","null","html-keynbutton-response","143","2.0.0","132539","7","<div class=""pb-14 text-7xl"">+</div>","null","fixation","","","","","",""
"","548","html-keynbutton-response","144","2.0.0","133087","7","<div class=""flex flex-row stim-length pb-8 md:pd-20 justify-evenly items-center""><div class=""circle""></div><div class=""circle""></div><div class=""circle""></div></div>","p","","matchness_test","match","圆","p","true","match"
"","null","html-keynbutton-response","145","2.0.0","133589","7","<div class=""pb-14 text-7xl"">+</div>","null","fixation","","","","","",""
"","409","html-keynbutton-response","146","2.0.0","133999","7","<div class=""flex flex-row stim-length pb-8 md:pd-20 justify-evenly items-center""><div class=""circle""></div><div class=""square""></div><div class=""circle""></div></div>","q","","matchness_test","mismatch","方","q","true","mismatch"
"","3966","html-keynbutton-response","147","2.0.0","137967","7","<div class=""jp""><p>您已完成1/10部分</p><p>请休息一会儿</p>
    <p>您的正确率是：93%</p>
    <p>您的平均反应时间是：480毫秒</p></div>"," ","block_feedback","","","","","",""
"","null","html-keynbutton-response","148","2.0.0","141169","7","<count-down title=""""></count-down>","null","countDown_trial","","","","","",""
"","null","html-keynbutton-response","149","2.0.0","141673","7","<div class=""pb-14 text-7xl"">+</div>","null","fixation","","","","","",""
"","485","html-keynbutton-response","150","2.0.0","142159","7","<div class=""flex flex-row stim-length pb-8 md:pd-20 justify-evenly items-center""><div class=""square""></div><div class=""circle""></div><div class=""square""></div></div>","q","","matchness_test_1","mismatch","圆","q","true","mismatch"
"","null","html-keynbutton-response","151","2.0.0","142672","7","<div class=""pb-14 text-7xl"">+</div>","null","fixation","","","","","",""
"","446","html-keynbutton-response","152","2.0.0","143119","7","<div class=""flex flex-row stim-length pb-8 md:pd-20 justify-evenly items-center""><div class=""square""></div><div class=""square""></div><div class=""square""></div></div>","p","","matchness_test_1","match","方","p","true","match"
"","null","html-keynbutton-response","153","2.0.0","143622","7","<div class=""pb-14 text-7xl"">+</div>","null","fixation","","","","","",""
"","584","html-keynbutton-response","154","2.0.0","144207","7","<div class=""flex flex-row stim-length pb-8 md:pd-20 justify-evenly items-center""><div class=""circle""></div><div class=""circle""></div><div class=""circle""></div></div>","p","","matchness_test_1","match","圆","p","true","match"
"","null","html-keynbutton-response","155","2.0.0","144721","7","<div class=""pb-14 text-7xl"">+</div>","null","fixation","","","","","",""
"","445","html-keynbutton-response","156","2.0.0","145167","7","<div class=""flex flex-row stim-length pb-8 md:pd-20 justify-evenly items-center""><div class=""circle""></div><div class=""square""></div><div class=""circle""></div></div>","q","","matchness_test_1","mismatch","方","q","true","mismatch"
"","null","html-keynbutton-response","157","2.0.0","145673","7","<div class=""pb-14 text-7xl"">+</div>","null","fixation","","","","","",""
"","485","html-keynbutton-response","158","2.0.0","146159","7","<div class=""flex flex-row stim-length pb-8 md:pd-20 justify-evenly items-center""><div class=""square""></div><div class=""square""></div><div class=""square""></div></div>","p","","matchness_test_1","match","方","p","true","match"
"","null","html-keynbutton-response","159","2.0.0","146672","7","<div class=""pb-14 text-7xl"">+</div>","null","fixation","","","","","",""
"","446","html-keynbutton-response","160","2.0.0","147119","7","<div class=""flex flex-row stim-length pb-8 md:pd-20 justify-evenly items-center""><div class=""circle""></div><div class=""square""></div><div class=""circle""></div></div>","q","","matchness_test_1","mismatch","方","q","true","mismatch"
"","null","html-keynbutton-response","161","2.0.0","147622","7","<div class=""pb-14 text-7xl"">+</div>","null","fixation","","","","","",""
"","536","html-keynbutton-response","162","2.0.0","148159","7","<div class=""flex flex-row stim-length pb-8 md:pd-20 justify-evenly items-center""><div class=""circle""></div><div class=""circle""></div><div class=""circle""></div></div>","p","","matchness_test_1","match","圆","p","true","match"
"","null","html-keynbutton-response","163","2.0.0","148671","7","<div class=""pb-14 text-7xl"">+</div>","null","fixation","","","","","",""
"","480","html-keynbutton-response","164","2.0.0","149151","7","<div class=""flex flex-row stim-length pb-8 md:pd-20 justify-evenly items-center""><div class=""square""></div><div class=""circle""></div><div class=""square""></div></div>","q","","matchness_test_1","mismatch","圆","q","true","mismatch"
"","null","html-keynbutton-response","165","2.0.0","149657","7","<div class=""pb-14 text-7xl"">+</div>","null","fixation","","","","","",""
"","470","html-keynbutton-response","166","2.0.0","150128","7","<div class=""flex flex-row stim-length pb-8 md:pd-20 justify-evenly items-center""><div class=""square""></div><div class=""square""></div><div class=""square""></div></div>","p","","matchness_test_1","match","方","p","true","match"
"","null","html-keynbutton-response","167","2.0.0","150638","7","<div class=""pb-14 text-7xl"">+</div>","null","fixation","","","","","",""
"","480","html-keynbutton-response","168","2.0.0","151119","7","<div class=""flex flex-row stim-length pb-8 md:pd-20 justify-evenly items-center""><div class=""square""></div><div class=""circle""></div><div class=""square""></div></div>","q","","matchness_test_1","mismatch","圆","q","true","mismatch"
"","null","html-keynbutton-response","169","2.0.0","151631","7","<div class=""pb-14 text-7xl"">+</div>","null","fixation","","","","","",""
"","399","html-keynbutton-response","170","2.0.0","152031","7","<div class=""flex flex-row stim-length pb-8 md:pd-20 justify-evenly items-center""><div class=""circle""></div><div class=""circle""></div><div class=""circle""></div></div>","p","","matchness_test_1","match","圆","p","true","match"
"","null","html-keynbutton-response","171","2.0.0","152538","7","<div class=""pb-14 text-7xl"">+</div>","null","fixation","","","","","",""
"","468","html-keynbutton-response","172","2.0.0","153007","7","<div class=""flex flex-row stim-length pb-8 md:pd-20 justify-evenly items-center""><div class=""circle""></div><div class=""square""></div><div class=""circle""></div></div>","q","","matchness_test_1","mismatch","方","q","true","mismatch"
"","null","html-keynbutton-response","173","2.0.0","153521","7","<div class=""pb-14 text-7xl"">+</div>","null","fixation","","","","","",""
"","572","html-keynbutton-response","174","2.0.0","154095","7","<div class=""flex flex-row stim-length pb-8 md:pd-20 justify-evenly items-center""><div class=""circle""></div><div class=""circle""></div><div class=""circle""></div></div>","p","","matchness_test_1","match","圆","p","true","match"
"","null","html-keynbutton-response","175","2.0.0","154605","7","<div class=""pb-14 text-7xl"">+</div>","null","fixation","","","","","",""
"","433","html-keynbutton-response","176","2.0.0","155039","7","<div class=""flex flex-row stim-length pb-8 md:pd-20 justify-evenly items-center""><div class=""circle""></div><div class=""square""></div><div class=""circle""></div></div>","q","","matchness_test_1","mismatch","方","q","true","mismatch"
"","null","html-keynbutton-response","177","2.0.0","155554","7","<div class=""pb-14 text-7xl"">+</div>","null","fixation","","","","","",""
"","668","html-keynbutton-response","178","2.0.0","156223","7","<div class=""flex flex-row stim-length pb-8 md:pd-20 justify-evenly items-center""><div class=""square""></div><div class=""circle""></div><div class=""square""></div></div>","q","","matchness_test_1","mismatch","圆","q","true","mismatch"
"","null","html-keynbutton-response","179","2.0.0","156725","7","<div class=""pb-14 text-7xl"">+</div>","null","fixation","","","","","",""
"","409","html-keynbutton-response","180","2.0.0","157135","7","<div class=""flex flex-row stim-length pb-8 md:pd-20 justify-evenly items-center""><div class=""square""></div><div class=""square""></div><div class=""square""></div></div>","p","","matchness_test_1","match","方","p","true","match"
"","null","html-keynbutton-response","181","2.0.0","157639","7","<div class=""pb-14 text-7xl"">+</div>","null","fixation","","","","","",""
"","534","html-keynbutton-response","182","2.0.0","158175","7","<div class=""flex flex-row stim-length pb-8 md:pd-20 justify-evenly items-center""><div class=""circle""></div><div class=""circle""></div><div class=""circle""></div></div>","p","","matchness_test_1","match","圆","p","true","match"
"","null","html-keynbutton-response","183","2.0.0","158688","7","<div class=""pb-14 text-7xl"">+</div>","null","fixation","","","","","",""
"","445","html-keynbutton-response","184","2.0.0","159134","7","<div class=""flex flex-row stim-length pb-8 md:pd-20 justify-evenly items-center""><div class=""square""></div><div class=""square""></div><div class=""square""></div></div>","p","","matchness_test_1","match","方","p","true","match"
"","null","html-keynbutton-response","185","2.0.0","159640","7","<div class=""pb-14 text-7xl"">+</div>","null","fixation","","","","","",""
"","470","html-keynbutton-response","186","2.0.0","160111","7","<div class=""flex flex-row stim-length pb-8 md:pd-20 justify-evenly items-center""><div class=""square""></div><div class=""circle""></div><div class=""square""></div></div>","q","","matchness_test_1","mismatch","圆","q","true","mismatch"
"","null","html-keynbutton-response","187","2.0.0","160622","7","<div class=""pb-14 text-7xl"">+</div>","null","fixation","","","","","",""
"","527","html-keynbutton-response","188","2.0.0","161150","7","<div class=""flex flex-row stim-length pb-8 md:pd-20 justify-evenly items-center""><div class=""circle""></div><div class=""square""></div><div class=""circle""></div></div>","q","","matchness_test_1","mismatch","方","q","true","mismatch"
"","null","html-keynbutton-response","189","2.0.0","161655","7","<div class=""pb-14 text-7xl"">+</div>","null","fixation","","","","","",""
"","423","html-keynbutton-response","190","2.0.0","162079","7","<div class=""flex flex-row stim-length pb-8 md:pd-20 justify-evenly items-center""><div class=""circle""></div><div class=""circle""></div><div class=""circle""></div></div>","p","","matchness_test_1","match","圆","p","true","match"
"","null","html-keynbutton-response","191","2.0.0","162588","7","<div class=""pb-14 text-7xl"">+</div>","null","fixation","","","","","",""
"","450","html-keynbutton-response","192","2.0.0","163039","7","<div class=""flex flex-row stim-length pb-8 md:pd-20 justify-evenly items-center""><div class=""circle""></div><div class=""square""></div><div class=""circle""></div></div>","q","","matchness_test_1","mismatch","方","q","true","mismatch"
"","null","html-keynbutton-response","193","2.0.0","163555","7","<div class=""pb-14 text-7xl"">+</div>","null","fixation","","","","","",""
"","523","html-keynbutton-response","194","2.0.0","164079","7","<div class=""flex flex-row stim-length pb-8 md:pd-20 justify-evenly items-center""><div class=""square""></div><div class=""circle""></div><div class=""square""></div></div>","q","","matchness_test_1","mismatch","圆","q","true","mismatch"
"","null","html-keynbutton-response","195","2.0.0","164589","7","<div class=""pb-14 text-7xl"">+</div>","null","fixation","","","","","",""
"","481","html-keynbutton-response","196","2.0.0","165071","7","<div class=""flex flex-row stim-length pb-8 md:pd-20 justify-evenly items-center""><div class=""square""></div><div class=""square""></div><div class=""square""></div></div>","p","","matchness_test_1","match","方","p","true","match"
"","null","html-keynbutton-response","197","2.0.0","165584","7","<div class=""pb-14 text-7xl"">+</div>","null","fixation","","","","","",""
"","430","html-keynbutton-response","198","2.0.0","166015","7","<div class=""flex flex-row stim-length pb-8 md:pd-20 justify-evenly items-center""><div class=""circle""></div><div class=""square""></div><div class=""circle""></div></div>","q","","matchness_test_1","mismatch","方","q","true","mismatch"
"","null","html-keynbutton-response","199","2.0.0","166523","7","<div class=""pb-14 text-7xl"">+</div>","null","fixation","","","","","",""
"","532","html-keynbutton-response","200","2.0.0","167055","7","<div class=""flex flex-row stim-length pb-8 md:pd-20 justify-evenly items-center""><div class=""square""></div><div class=""square""></div><div class=""square""></div></div>","p","","matchness_test_1","match","方","p","true","match"
"","null","html-keynbutton-response","201","2.0.0","167571","7","<div class=""pb-14 text-7xl"">+</div>","null","fixation","","","","","",""
"","522","html-keynbutton-response","202","2.0.0","168094","7","<div class=""flex flex-row stim-length pb-8 md:pd-20 justify-evenly items-center""><div class=""circle""></div><div class=""circle""></div><div class=""circle""></div></div>","p","","matchness_test_1","match","圆","p","true","match"
"","null","html-keynbutton-response","203","2.0.0","168605","7","<div class=""pb-14 text-7xl"">+</div>","null","fixation","","","","","",""
"","418","html-keynbutton-response","204","2.0.0","169023","7","<div class=""flex flex-row stim-length pb-8 md:pd-20 justify-evenly items-center""><div class=""square""></div><div class=""circle""></div><div class=""square""></div></div>","q","","matchness_test_1","mismatch","圆","q","true","mismatch"
"","null","html-keynbutton-response","205","2.0.0","169538","7","<div class=""pb-14 text-7xl"">+</div>","null","fixation","","","","","",""
"","444","html-keynbutton-response","206","2.0.0","169983","7","<div class=""flex flex-row stim-length pb-8 md:pd-20 justify-evenly items-center""><div class=""square""></div><div class=""circle""></div><div class=""square""></div></div>","q","","matchness_test_1","mismatch","圆","q","true","mismatch"
"","null","html-keynbutton-response","207","2.0.0","170498","7","<div class=""pb-14 text-7xl"">+</div>","null","fixation","","","","","",""
"","364","html-keynbutton-response","208","2.0.0","170863","7","<div class=""flex flex-row stim-length pb-8 md:pd-20 justify-evenly items-center""><div class=""square""></div><div class=""square""></div><div class=""square""></div></div>","p","","matchness_test_1","match","方","p","true","match"
"","null","html-keynbutton-response","209","2.0.0","171372","7","<div class=""pb-14 text-7xl"">+</div>","null","fixation","","","","","",""
"","434","html-keynbutton-response","210","2.0.0","171807","7","<div class=""flex flex-row stim-length pb-8 md:pd-20 justify-evenly items-center""><div class=""circle""></div><div class=""square""></div><div class=""circle""></div></div>","q","","matchness_test_1","mismatch","方","q","true","mismatch"
"","null","html-keynbutton-response","211","2.0.0","172309","7","<div class=""pb-14 text-7xl"">+</div>","null","fixation","","","","","",""
"","472","html-keynbutton-response","212","2.0.0","172782","7","<div class=""flex flex-row stim-length pb-8 md:pd-20 justify-evenly items-center""><div class=""circle""></div><div class=""circle""></div><div class=""circle""></div></div>","p","","matchness_test_1","match","圆","p","true","match"
"","null","html-keynbutton-response","213","2.0.0","173289","7","<div class=""pb-14 text-7xl"">+</div>","null","fixation","","","","","",""
"","452","html-keynbutton-response","214","2.0.0","173742","7","<div class=""flex flex-row stim-length pb-8 md:pd-20 justify-evenly items-center""><div class=""circle""></div><div class=""circle""></div><div class=""circle""></div></div>","p","","matchness_test_1","match","圆","p","true","match"
"","null","html-keynbutton-response","215","2.0.0","174256","7","<div class=""pb-14 text-7xl"">+</div>","null","fixation","","","","","",""
"","510","html-keynbutton-response","216","2.0.0","174767","7","<div class=""flex flex-row stim-length pb-8 md:pd-20 justify-evenly items-center""><div class=""square""></div><div class=""square""></div><div class=""square""></div></div>","p","","matchness_test_1","match","方","p","true","match"
"","null","html-keynbutton-response","217","2.0.0","175274","7","<div class=""pb-14 text-7xl"">+</div>","null","fixation","","","","","",""
"","452","html-keynbutton-response","218","2.0.0","175727","7","<div class=""flex flex-row stim-length pb-8 md:pd-20 justify-evenly items-center""><div class=""circle""></div><div class=""square""></div><div class=""circle""></div></div>","q","","matchness_test_1","mismatch","方","q","true","mismatch"
"","null","html-keynbutton-response","219","2.0.0","176239","7","<div class=""pb-14 text-7xl"">+</div>","null","fixation","","","","","",""
"","576","html-keynbutton-response","220","2.0.0","176815","7","<div class=""flex flex-row stim-length pb-8 md:pd-20 justify-evenly items-center""><div class=""square""></div><div class=""circle""></div><div class=""square""></div></div>","q","","matchness_test_1","mismatch","圆","q","true","mismatch"
"","null","html-keynbutton-response","221","2.0.0","177330","7","<div class=""pb-14 text-7xl"">+</div>","null","fixation","","","","","",""
"","444","html-keynbutton-response","222","2.0.0","177775","7","<div class=""flex flex-row stim-length pb-8 md:pd-20 justify-evenly items-center""><div class=""square""></div><div class=""square""></div><div class=""square""></div></div>","p","","matchness_test_1","match","方","p","true","match"
"","null","html-keynbutton-response","223","2.0.0","178288","7","<div class=""pb-14 text-7xl"">+</div>","null","fixation","","","","","",""
"","478","html-keynbutton-response","224","2.0.0","178767","7","<div class=""flex flex-row stim-length pb-8 md:pd-20 justify-evenly items-center""><div class=""circle""></div><div class=""square""></div><div class=""circle""></div></div>","q","","matchness_test_1","mismatch","方","q","true","mismatch"
"","null","html-keynbutton-response","225","2.0.0","179274","7","<div class=""pb-14 text-7xl"">+</div>","null","fixation","","","","","",""
"","485","html-keynbutton-response","226","2.0.0","179761","7","<div class=""flex flex-row stim-length pb-8 md:pd-20 justify-evenly items-center""><div class=""circle""></div><div class=""circle""></div><div class=""circle""></div></div>","p","","matchness_test_1","match","圆","p","true","match"
"","null","html-keynbutton-response","227","2.0.0","180272","7","<div class=""pb-14 text-7xl"">+</div>","null","fixation","","","","","",""
"","606","html-keynbutton-response","228","2.0.0","180879","7","<div class=""flex flex-row stim-length pb-8 md:pd-20 justify-evenly items-center""><div class=""square""></div><div class=""circle""></div><div class=""square""></div></div>","q","","matchness_test_1","mismatch","圆","q","true","mismatch"
"","2734","html-keynbutton-response","229","2.0.0","183615","7","<div class=""jp""><p>您已完成2/10部分</p><p>请休息一会儿</p>
    <p>您的正确率是：100%</p>
    <p>您的平均反应时间是：482毫秒</p></div>"," ","block_feedback","","","","","",""
"","null","html-keynbutton-response","230","2.0.0","186820","7","<count-down title=""""></count-down>","null","countDown_trial","","","","","",""
"","null","html-keynbutton-response","231","2.0.0","187323","7","<div class=""pb-14 text-7xl"">+</div>","null","fixation","","","","","",""
"","436","html-keynbutton-response","232","2.0.0","187759","7","<div class=""flex flex-row stim-length pb-8 md:pd-20 justify-evenly items-center""><div class=""circle""></div><div class=""circle""></div><div class=""circle""></div></div>","p","","matchness_test_2","match","圆","p","true","match"
"","null","html-keynbutton-response","233","2.0.0","188272","7","<div class=""pb-14 text-7xl"">+</div>","null","fixation","","","","","",""
"","399","html-keynbutton-response","234","2.0.0","188671","7","<div class=""flex flex-row stim-length pb-8 md:pd-20 justify-evenly items-center""><div class=""circle""></div><div class=""square""></div><div class=""circle""></div></div>","q","","matchness_test_2","mismatch","方","q","true","mismatch"
"","null","html-keynbutton-response","235","2.0.0","189172","7","<div class=""pb-14 text-7xl"">+</div>","null","fixation","","","","","",""
"","490","html-keynbutton-response","236","2.0.0","189663","7","<div class=""flex flex-row stim-length pb-8 md:pd-20 justify-evenly items-center""><div class=""square""></div><div class=""circle""></div><div class=""square""></div></div>","q","","matchness_test_2","mismatch","圆","q","true","mismatch"
"","null","html-keynbutton-response","237","2.0.0","190170","7","<div class=""pb-14 text-7xl"">+</div>","null","fixation","","","","","",""
"","484","html-keynbutton-response","238","2.0.0","190655","7","<div class=""flex flex-row stim-length pb-8 md:pd-20 justify-evenly items-center""><div class=""square""></div><div class=""square""></div><div class=""square""></div></div>","p","","matchness_test_2","match","方","p","true","match"
"","null","html-keynbutton-response","239","2.0.0","191172","7","<div class=""pb-14 text-7xl"">+</div>","null","fixation","","","","","",""
"","394","html-keynbutton-response","240","2.0.0","191567","7","<div class=""flex flex-row stim-length pb-8 md:pd-20 justify-evenly items-center""><div class=""square""></div><div class=""square""></div><div class=""square""></div></div>","p","","matchness_test_2","match","方","p","true","match"
"","null","html-keynbutton-response","241","2.0.0","192074","7","<div class=""pb-14 text-7xl"">+</div>","null","fixation","","","","","",""
"","419","html-keynbutton-response","242","2.0.0","192495","7","<div class=""flex flex-row stim-length pb-8 md:pd-20 justify-evenly items-center""><div class=""circle""></div><div class=""square""></div><div class=""circle""></div></div>","q","","matchness_test_2","mismatch","方","q","true","mismatch"
"","null","html-keynbutton-response","243","2.0.0","193006","7","<div class=""pb-14 text-7xl"">+</div>","null","fixation","","","","","",""
"","465","html-keynbutton-response","244","2.0.0","193471","7","<div class=""flex flex-row stim-length pb-8 md:pd-20 justify-evenly items-center""><div class=""circle""></div><div class=""circle""></div><div class=""circle""></div></div>","p","","matchness_test_2","match","圆","p","true","match"
"","null","html-keynbutton-response","245","2.0.0","193973","7","<div class=""pb-14 text-7xl"">+</div>","null","fixation","","","","","",""
"","473","html-keynbutton-response","246","2.0.0","194446","7","<div class=""flex flex-row stim-length pb-8 md:pd-20 justify-evenly items-center""><div class=""square""></div><div class=""circle""></div><div class=""square""></div></div>","q","","matchness_test_2","mismatch","圆","q","true","mismatch"
"","null","html-keynbutton-response","247","2.0.0","194955","7","<div class=""pb-14 text-7xl"">+</div>","null","fixation","","","","","",""
"","515","html-keynbutton-response","248","2.0.0","195471","7","<div class=""flex flex-row stim-length pb-8 md:pd-20 justify-evenly items-center""><div class=""circle""></div><div class=""square""></div><div class=""circle""></div></div>","q","","matchness_test_2","mismatch","方","q","true","mismatch"
"","null","html-keynbutton-response","249","2.0.0","195983","7","<div class=""pb-14 text-7xl"">+</div>","null","fixation","","","","","",""
"","495","html-keynbutton-response","250","2.0.0","196479","7","<div class=""flex flex-row stim-length pb-8 md:pd-20 justify-evenly items-center""><div class=""circle""></div><div class=""circle""></div><div class=""circle""></div></div>","p","","matchness_test_2","match","圆","p","true","match"
"","null","html-keynbutton-response","251","2.0.0","196988","7","<div class=""pb-14 text-7xl"">+</div>","null","fixation","","","","","",""
"","466","html-keynbutton-response","252","2.0.0","197455","7","<div class=""flex flex-row stim-length pb-8 md:pd-20 justify-evenly items-center""><div class=""square""></div><div class=""circle""></div><div class=""square""></div></div>","q","","matchness_test_2","mismatch","圆","q","true","mismatch"
"","null","html-keynbutton-response","253","2.0.0","197956","7","<div class=""pb-14 text-7xl"">+</div>","null","fixation","","","","","",""
"","426","html-keynbutton-response","254","2.0.0","198383","7","<div class=""flex flex-row stim-length pb-8 md:pd-20 justify-evenly items-center""><div class=""square""></div><div class=""square""></div><div class=""square""></div></div>","p","","matchness_test_2","match","方","p","true","match"
"","null","html-keynbutton-response","255","2.0.0","198889","7","<div class=""pb-14 text-7xl"">+</div>","null","fixation","","","","","",""
"","405","html-keynbutton-response","256","2.0.0","199295","7","<div class=""flex flex-row stim-length pb-8 md:pd-20 justify-evenly items-center""><div class=""square""></div><div class=""circle""></div><div class=""square""></div></div>","q","","matchness_test_2","mismatch","圆","q","true","mismatch"
"","null","html-keynbutton-response","257","2.0.0","199805","7","<div class=""pb-14 text-7xl"">+</div>","null","fixation","","","","","",""
"","482","html-keynbutton-response","258","2.0.0","200287","7","<div class=""flex flex-row stim-length pb-8 md:pd-20 justify-evenly items-center""><div class=""circle""></div><div class=""square""></div><div class=""circle""></div></div>","q","","matchness_test_2","mismatch","方","q","true","mismatch"
"","null","html-keynbutton-response","259","2.0.0","200790","7","<div class=""pb-14 text-7xl"">+</div>","null","fixation","","","","","",""
"","361","html-keynbutton-response","260","2.0.0","201151","7","<div class=""flex flex-row stim-length pb-8 md:pd-20 justify-evenly items-center""><div class=""square""></div><div class=""square""></div><div class=""square""></div></div>","p","","matchness_test_2","match","方","p","true","match"
"","null","html-keynbutton-response","261","2.0.0","201657","7","<div class=""pb-14 text-7xl"">+</div>","null","fixation","","","","","",""
"","485","html-keynbutton-response","262","2.0.0","202143","7","<div class=""flex flex-row stim-length pb-8 md:pd-20 justify-evenly items-center""><div class=""circle""></div><div class=""circle""></div><div class=""circle""></div></div>","p","","matchness_test_2","match","圆","p","true","match"
"","null","html-keynbutton-response","263","2.0.0","202655","7","<div class=""pb-14 text-7xl"">+</div>","null","fixation","","","","","",""
"","447","html-keynbutton-response","264","2.0.0","203103","7","<div class=""flex flex-row stim-length pb-8 md:pd-20 justify-evenly items-center""><div class=""square""></div><div class=""square""></div><div class=""square""></div></div>","p","","matchness_test_2","match","方","p","true","match"
"","null","html-keynbutton-response","265","2.0.0","203606","7","<div class=""pb-14 text-7xl"">+</div>","null","fixation","","","","","",""
"","425","html-keynbutton-response","266","2.0.0","204031","7","<div class=""flex flex-row stim-length pb-8 md:pd-20 justify-evenly items-center""><div class=""square""></div><div class=""circle""></div><div class=""square""></div></div>","q","","matchness_test_2","mismatch","圆","q","true","mismatch"
"","null","html-keynbutton-response","267","2.0.0","204539","7","<div class=""pb-14 text-7xl"">+</div>","null","fixation","","","","","",""
"","532","html-keynbutton-response","268","2.0.0","205071","7","<div class=""flex flex-row stim-length pb-8 md:pd-20 justify-evenly items-center""><div class=""circle""></div><div class=""square""></div><div class=""circle""></div></div>","q","","matchness_test_2","mismatch","方","q","true","mismatch"
"","null","html-keynbutton-response","269","2.0.0","205573","7","<div class=""pb-14 text-7xl"">+</div>","null","fixation","","","","","",""
"","441","html-keynbutton-response","270","2.0.0","206015","7","<div class=""flex flex-row stim-length pb-8 md:pd-20 justify-evenly items-center""><div class=""circle""></div><div class=""circle""></div><div class=""circle""></div></div>","p","","matchness_test_2","match","圆","p","true","match"
"","null","html-keynbutton-response","271","2.0.0","206523","7","<div class=""pb-14 text-7xl"">+</div>","null","fixation","","","","","",""
"","484","html-keynbutton-response","272","2.0.0","207007","7","<div class=""flex flex-row stim-length pb-8 md:pd-20 justify-evenly items-center""><div class=""circle""></div><div class=""square""></div><div class=""circle""></div></div>","q","","matchness_test_2","mismatch","方","q","true","mismatch"
"","null","html-keynbutton-response","273","2.0.0","207522","7","<div class=""pb-14 text-7xl"">+</div>","null","fixation","","","","","",""
"","381","html-keynbutton-response","274","2.0.0","207903","7","<div class=""flex flex-row stim-length pb-8 md:pd-20 justify-evenly items-center""><div class=""circle""></div><div class=""circle""></div><div class=""circle""></div></div>","p","","matchness_test_2","match","圆","p","true","match"
"","null","html-keynbutton-response","275","2.0.0","208410","7","<div class=""pb-14 text-7xl"">+</div>","null","fixation","","","","","",""
"","435","html-keynbutton-response","276","2.0.0","208846","7","<div class=""flex flex-row stim-length pb-8 md:pd-20 justify-evenly items-center""><div class=""square""></div><div class=""circle""></div><div class=""square""></div></div>","q","","matchness_test_2","mismatch","圆","q","true","mismatch"
"","null","html-keynbutton-response","277","2.0.0","209355","7","<div class=""pb-14 text-7xl"">+</div>","null","fixation","","","","","",""
"","483","html-keynbutton-response","278","2.0.0","209839","7","<div class=""flex flex-row stim-length pb-8 md:pd-20 justify-evenly items-center""><div class=""square""></div><div class=""square""></div><div class=""square""></div></div>","p","","matchness_test_2","match","方","p","true","match"
"","null","html-keynbutton-response","279","2.0.0","210355","7","<div class=""pb-14 text-7xl"">+</div>","null","fixation","","","","","",""
"","444","html-keynbutton-response","280","2.0.0","210799","7","<div class=""flex flex-row stim-length pb-8 md:pd-20 justify-evenly items-center""><div class=""square""></div><div class=""circle""></div><div class=""square""></div></div>","q","","matchness_test_2","mismatch","圆","q","true","mismatch"
"","null","html-keynbutton-response","281","2.0.0","211306","7","<div class=""pb-14 text-7xl"">+</div>","null","fixation","","","","","",""
"","420","html-keynbutton-response","282","2.0.0","211727","7","<div class=""flex flex-row stim-length pb-8 md:pd-20 justify-evenly items-center""><div class=""square""></div><div class=""square""></div><div class=""square""></div></div>","p","","matchness_test_2","match","方","p","true","match"
"","null","html-keynbutton-response","283","2.0.0","212238","7","<div class=""pb-14 text-7xl"">+</div>","null","fixation","","","","","",""
"","384","html-keynbutton-response","284","2.0.0","212623","7","<div class=""flex flex-row stim-length pb-8 md:pd-20 justify-evenly items-center""><div class=""circle""></div><div class=""circle""></div><div class=""circle""></div></div>","p","","matchness_test_2","match","圆","p","true","match"
"","null","html-keynbutton-response","285","2.0.0","213138","7","<div class=""pb-14 text-7xl"">+</div>","null","fixation","","","","","",""
"","460","html-keynbutton-response","286","2.0.0","213599","7","<div class=""flex flex-row stim-length pb-8 md:pd-20 justify-evenly items-center""><div class=""circle""></div><div class=""square""></div><div class=""circle""></div></div>","q","","matchness_test_2","mismatch","方","q","true","mismatch"
"","null","html-keynbutton-response","287","2.0.0","214106","7","<div class=""pb-14 text-7xl"">+</div>","null","fixation","","","","","",""
"","533","html-keynbutton-response","288","2.0.0","214640","7","<div class=""flex flex-row stim-length pb-8 md:pd-20 justify-evenly items-center""><div class=""circle""></div><div class=""circle""></div><div class=""circle""></div></div>","p","","matchness_test_2","match","圆","p","true","match"
"","null","html-keynbutton-response","289","2.0.0","215143","7","<div class=""pb-14 text-7xl"">+</div>","null","fixation","","","","","",""
"","439","html-keynbutton-response","290","2.0.0","215583","7","<div class=""flex flex-row stim-length pb-8 md:pd-20 justify-evenly items-center""><div class=""square""></div><div class=""circle""></div><div class=""square""></div></div>","q","","matchness_test_2","mismatch","圆","q","true","mismatch"
"","null","html-keynbutton-response","291","2.0.0","216089","7","<div class=""pb-14 text-7xl"">+</div>","null","fixation","","","","","",""
"","533","html-keynbutton-response","292","2.0.0","216623","7","<div class=""flex flex-row stim-length pb-8 md:pd-20 justify-evenly items-center""><div class=""circle""></div><div class=""square""></div><div class=""circle""></div></div>","q","","matchness_test_2","mismatch","方","q","true","mismatch"
"","null","html-keynbutton-response","293","2.0.0","217139","7","<div class=""pb-14 text-7xl"">+</div>","null","fixation","","","","","",""
"","443","html-keynbutton-response","294","2.0.0","217583","7","<div class=""flex flex-row stim-length pb-8 md:pd-20 justify-evenly items-center""><div class=""square""></div><div class=""square""></div><div class=""square""></div></div>","p","","matchness_test_2","match","方","p","true","match"
"","null","html-keynbutton-response","295","2.0.0","218089","7","<div class=""pb-14 text-7xl"">+</div>","null","fixation","","","","","",""
"","469","html-keynbutton-response","296","2.0.0","218560","7","<div class=""flex flex-row stim-length pb-8 md:pd-20 justify-evenly items-center""><div class=""circle""></div><div class=""square""></div><div class=""circle""></div></div>","q","","matchness_test_2","mismatch","方","q","true","mismatch"
"","null","html-keynbutton-response","297","2.0.0","219072","7","<div class=""pb-14 text-7xl"">+</div>","null","fixation","","","","","",""
"","446","html-keynbutton-response","298","2.0.0","219519","7","<div class=""flex flex-row stim-length pb-8 md:pd-20 justify-evenly items-center""><div class=""square""></div><div class=""square""></div><div class=""square""></div></div>","p","","matchness_test_2","match","方","p","true","match"
"","null","html-keynbutton-response","299","2.0.0","220023","7","<div class=""pb-14 text-7xl"">+</div>","null","fixation","","","","","",""
"","455","html-keynbutton-response","300","2.0.0","220479","7","<div class=""flex flex-row stim-length pb-8 md:pd-20 justify-evenly items-center""><div class=""square""></div><div class=""circle""></div><div class=""square""></div></div>","q","","matchness_test_2","mismatch","圆","q","true","mismatch"
"","null","html-keynbutton-response","301","2.0.0","220989","7","<div class=""pb-14 text-7xl"">+</div>","null","fixation","","","","","",""
"","497","html-keynbutton-response","302","2.0.0","221487","7","<div class=""flex flex-row stim-length pb-8 md:pd-20 justify-evenly items-center""><div class=""circle""></div><div class=""circle""></div><div class=""circle""></div></div>","p","","matchness_test_2","match","圆","p","true","match"
"","null","html-keynbutton-response","303","2.0.0","221990","7","<div class=""pb-14 text-7xl"">+</div>","null","fixation","","","","","",""
"","360","html-keynbutton-response","304","2.0.0","222351","7","<div class=""flex flex-row stim-length pb-8 md:pd-20 justify-evenly items-center""><div class=""circle""></div><div class=""square""></div><div class=""circle""></div></div>","q","","matchness_test_2","mismatch","方","q","true","mismatch"
"","null","html-keynbutton-response","305","2.0.0","222858","7","<div class=""pb-14 text-7xl"">+</div>","null","fixation","","","","","",""
"","324","html-keynbutton-response","306","2.0.0","223183","7","<div class=""flex flex-row stim-length pb-8 md:pd-20 justify-evenly items-center""><div class=""square""></div><div class=""square""></div><div class=""square""></div></div>","p","","matchness_test_2","match","方","p","true","match"
"","null","html-keynbutton-response","307","2.0.0","223690","7","<div class=""pb-14 text-7xl"">+</div>","null","fixation","","","","","",""
"","357","html-keynbutton-response","308","2.0.0","224047","7","<div class=""flex flex-row stim-length pb-8 md:pd-20 justify-evenly items-center""><div class=""circle""></div><div class=""circle""></div><div class=""circle""></div></div>","q","","matchness_test_2","match","圆","p","false","mismatch"
"","null","html-keynbutton-response","309","2.0.0","224555","7","<div class=""pb-14 text-7xl"">+</div>","null","fixation","","","","","",""
"","532","html-keynbutton-response","310","2.0.0","225087","7","<div class=""flex flex-row stim-length pb-8 md:pd-20 justify-evenly items-center""><div class=""square""></div><div class=""circle""></div><div class=""square""></div></div>","q","","matchness_test_2","mismatch","圆","q","true","mismatch"
"","1278","html-keynbutton-response","311","2.0.0","226367","7","<div class=""jp""><p>您已完成3/10部分</p><p>请休息一会儿</p>
    <p>您的正确率是：98%</p>
    <p>您的平均反应时间是：448毫秒</p></div>"," ","block_feedback","","","","","",""
"","null","html-keynbutton-response","312","2.0.0","229569","7","<count-down title=""""></count-down>","null","countDown_trial","","","","","",""
"","null","html-keynbutton-response","313","2.0.0","230073","7","<div class=""pb-14 text-7xl"">+</div>","null","fixation","","","","","",""
"","517","html-keynbutton-response","314","2.0.0","230591","7","<div class=""flex flex-row stim-length pb-8 md:pd-20 justify-evenly items-center""><div class=""square""></div><div class=""square""></div><div class=""square""></div></div>","p","","matchness_test_3","match","方","p","true","match"
"","null","html-keynbutton-response","315","2.0.0","231105","7","<div class=""pb-14 text-7xl"">+</div>","null","fixation","","","","","",""
"","509","html-keynbutton-response","316","2.0.0","231614","7","<div class=""flex flex-row stim-length pb-8 md:pd-20 justify-evenly items-center""><div class=""circle""></div><div class=""square""></div><div class=""circle""></div></div>","q","","matchness_test_3","mismatch","方","q","true","mismatch"
"","null","html-keynbutton-response","317","2.0.0","232122","7","<div class=""pb-14 text-7xl"">+</div>","null","fixation","","","","","",""
"","419","html-keynbutton-response","318","2.0.0","232542","7","<div class=""flex flex-row stim-length pb-8 md:pd-20 justify-evenly items-center""><div class=""circle""></div><div class=""circle""></div><div class=""circle""></div></div>","p","","matchness_test_3","match","圆","p","true","match"
"","null","html-keynbutton-response","319","2.0.0","233056","7","<div class=""pb-14 text-7xl"">+</div>","null","fixation","","","","","",""
"","447","html-keynbutton-response","320","2.0.0","233503","7","<div class=""flex flex-row stim-length pb-8 md:pd-20 justify-evenly items-center""><div class=""square""></div><div class=""circle""></div><div class=""square""></div></div>","q","","matchness_test_3","mismatch","圆","q","true","mismatch"
"","null","html-keynbutton-response","321","2.0.0","234006","7","<div class=""pb-14 text-7xl"">+</div>","null","fixation","","","","","",""
"","552","html-keynbutton-response","322","2.0.0","234558","7","<div class=""flex flex-row stim-length pb-8 md:pd-20 justify-evenly items-center""><div class=""circle""></div><div class=""circle""></div><div class=""circle""></div></div>","p","","matchness_test_3","match","圆","p","true","match"
"","null","html-keynbutton-response","323","2.0.0","235072","7","<div class=""pb-14 text-7xl"">+</div>","null","fixation","","","","","",""
"","463","html-keynbutton-response","324","2.0.0","235535","7","<div class=""flex flex-row stim-length pb-8 md:pd-20 justify-evenly items-center""><div class=""circle""></div><div class=""square""></div><div class=""circle""></div></div>","q","","matchness_test_3","mismatch","方","q","true","mismatch"
"","null","html-keynbutton-response","325","2.0.0","236040","7","<div class=""pb-14 text-7xl"">+</div>","null","fixation","","","","","",""
"","534","html-keynbutton-response","326","2.0.0","236571","7","<div class=""flex flex-row stim-length pb-8 md:pd-20 justify-evenly items-center""><div class=""square""></div><div class=""circle""></div><div class=""square""></div></div>","q","","matchness_test_3","mismatch","圆","q","true","mismatch"
"","null","html-keynbutton-response","327","2.0.0","237085","7","<div class=""pb-14 text-7xl"">+</div>","null","fixation","","","","","",""
"","366","html-keynbutton-response","328","2.0.0","237452","7","<div class=""flex flex-row stim-length pb-8 md:pd-20 justify-evenly items-center""><div class=""square""></div><div class=""square""></div><div class=""square""></div></div>","q","","matchness_test_3","match","方","p","false","mismatch"
"","null","html-keynbutton-response","329","2.0.0","237954","7","<div class=""pb-14 text-7xl"">+</div>","null","fixation","","","","","",""
"","553","html-keynbutton-response","330","2.0.0","238508","7","<div class=""flex flex-row stim-length pb-8 md:pd-20 justify-evenly items-center""><div class=""circle""></div><div class=""square""></div><div class=""circle""></div></div>","q","","matchness_test_3","mismatch","方","q","true","mismatch"
"","null","html-keynbutton-response","331","2.0.0","239019","7","<div class=""pb-14 text-7xl"">+</div>","null","fixation","","","","","",""
"","400","html-keynbutton-response","332","2.0.0","239420","7","<div class=""flex flex-row stim-length pb-8 md:pd-20 justify-evenly items-center""><div class=""square""></div><div class=""square""></div><div class=""square""></div></div>","p","","matchness_test_3","match","方","p","true","match"
"","null","html-keynbutton-response","333","2.0.0","239926","7","<div class=""pb-14 text-7xl"">+</div>","null","fixation","","","","","",""
"","437","html-keynbutton-response","334","2.0.0","240364","7","<div class=""flex flex-row stim-length pb-8 md:pd-20 justify-evenly items-center""><div class=""square""></div><div class=""circle""></div><div class=""square""></div></div>","q","","matchness_test_3","mismatch","圆","q","true","mismatch"
"","null","html-keynbutton-response","335","2.0.0","240871","7","<div class=""pb-14 text-7xl"">+</div>","null","fixation","","","","","",""
"","469","html-keynbutton-response","336","2.0.0","241341","7","<div class=""flex flex-row stim-length pb-8 md:pd-20 justify-evenly items-center""><div class=""circle""></div><div class=""circle""></div><div class=""circle""></div></div>","p","","matchness_test_3","match","圆","p","true","match"
"","null","html-keynbutton-response","337","2.0.0","241852","7","<div class=""pb-14 text-7xl"">+</div>","null","fixation","","","","","",""
"","415","html-keynbutton-response","338","2.0.0","242268","7","<div class=""flex flex-row stim-length pb-8 md:pd-20 justify-evenly items-center""><div class=""square""></div><div class=""square""></div><div class=""square""></div></div>","p","","matchness_test_3","match","方","p","true","match"
"","null","html-keynbutton-response","339","2.0.0","242769","7","<div class=""pb-14 text-7xl"">+</div>","null","fixation","","","","","",""
"","410","html-keynbutton-response","340","2.0.0","243180","7","<div class=""flex flex-row stim-length pb-8 md:pd-20 justify-evenly items-center""><div class=""square""></div><div class=""circle""></div><div class=""square""></div></div>","q","","matchness_test_3","mismatch","圆","q","true","mismatch"
"","null","html-keynbutton-response","341","2.0.0","243686","7","<div class=""pb-14 text-7xl"">+</div>","null","fixation","","","","","",""
"","533","html-keynbutton-response","342","2.0.0","244220","7","<div class=""flex flex-row stim-length pb-8 md:pd-20 justify-evenly items-center""><div class=""circle""></div><div class=""square""></div><div class=""circle""></div></div>","q","","matchness_test_3","mismatch","方","q","true","mismatch"
"","null","html-keynbutton-response","343","2.0.0","244735","7","<div class=""pb-14 text-7xl"">+</div>","null","fixation","","","","","",""
"","428","html-keynbutton-response","344","2.0.0","245164","7","<div class=""flex flex-row stim-length pb-8 md:pd-20 justify-evenly items-center""><div class=""circle""></div><div class=""circle""></div><div class=""circle""></div></div>","p","","matchness_test_3","match","圆","p","true","match"
"","null","html-keynbutton-response","345","2.0.0","245671","7","<div class=""pb-14 text-7xl"">+</div>","null","fixation","","","","","",""
"","485","html-keynbutton-response","346","2.0.0","246156","7","<div class=""flex flex-row stim-length pb-8 md:pd-20 justify-evenly items-center""><div class=""square""></div><div class=""circle""></div><div class=""square""></div></div>","q","","matchness_test_3","mismatch","圆","q","true","mismatch"
"","null","html-keynbutton-response","347","2.0.0","246668","7","<div class=""pb-14 text-7xl"">+</div>","null","fixation","","","","","",""
"","527","html-keynbutton-response","348","2.0.0","247196","7","<div class=""flex flex-row stim-length pb-8 md:pd-20 justify-evenly items-center""><div class=""circle""></div><div class=""square""></div><div class=""circle""></div></div>","q","","matchness_test_3","mismatch","方","q","true","mismatch"
"","null","html-keynbutton-response","349","2.0.0","247703","7","<div class=""pb-14 text-7xl"">+</div>","null","fixation","","","","","",""
"","516","html-keynbutton-response","350","2.0.0","248220","7","<div class=""flex flex-row stim-length pb-8 md:pd-20 justify-evenly items-center""><div class=""circle""></div><div class=""circle""></div><div class=""circle""></div></div>","p","","matchness_test_3","match","圆","p","true","match"
"","null","html-keynbutton-response","351","2.0.0","248736","7","<div class=""pb-14 text-7xl"">+</div>","null","fixation","","","","","",""
"","395","html-keynbutton-response","352","2.0.0","249132","7","<div class=""flex flex-row stim-length pb-8 md:pd-20 justify-evenly items-center""><div class=""square""></div><div class=""square""></div><div class=""square""></div></div>","p","","matchness_test_3","match","方","p","true","match"
"","null","html-keynbutton-response","353","2.0.0","249636","7","<div class=""pb-14 text-7xl"">+</div>","null","fixation","","","","","",""
"","583","html-keynbutton-response","354","2.0.0","250220","7","<div class=""flex flex-row stim-length pb-8 md:pd-20 justify-evenly items-center""><div class=""circle""></div><div class=""circle""></div><div class=""circle""></div></div>","p","","matchness_test_3","match","圆","p","true","match"
"","null","html-keynbutton-response","355","2.0.0","250735","7","<div class=""pb-14 text-7xl"">+</div>","null","fixation","","","","","",""
"","413","html-keynbutton-response","356","2.0.0","251148","7","<div class=""flex flex-row stim-length pb-8 md:pd-20 justify-evenly items-center""><div class=""square""></div><div class=""circle""></div><div class=""square""></div></div>","q","","matchness_test_3","mismatch","圆","q","true","mismatch"
"","null","html-keynbutton-response","357","2.0.0","251654","7","<div class=""pb-14 text-7xl"">+</div>","null","fixation","","","","","",""
"","517","html-keynbutton-response","358","2.0.0","252172","7","<div class=""flex flex-row stim-length pb-8 md:pd-20 justify-evenly items-center""><div class=""circle""></div><div class=""square""></div><div class=""circle""></div></div>","q","","matchness_test_3","mismatch","方","q","true","mismatch"
"","null","html-keynbutton-response","359","2.0.0","252685","7","<div class=""pb-14 text-7xl"">+</div>","null","fixation","","","","","",""
"","478","html-keynbutton-response","360","2.0.0","253164","7","<div class=""flex flex-row stim-length pb-8 md:pd-20 justify-evenly items-center""><div class=""square""></div><div class=""square""></div><div class=""square""></div></div>","p","","matchness_test_3","match","方","p","true","match"
"","null","html-keynbutton-response","361","2.0.0","253671","7","<div class=""pb-14 text-7xl"">+</div>","null","fixation","","","","","",""
"","404","html-keynbutton-response","362","2.0.0","254076","7","<div class=""flex flex-row stim-length pb-8 md:pd-20 justify-evenly items-center""><div class=""circle""></div><div class=""circle""></div><div class=""circle""></div></div>","p","","matchness_test_3","match","圆","p","true","match"
"","null","html-keynbutton-response","363","2.0.0","254585","7","<div class=""pb-14 text-7xl"">+</div>","null","fixation","","","","","",""
"","498","html-keynbutton-response","364","2.0.0","255084","7","<div class=""flex flex-row stim-length pb-8 md:pd-20 justify-evenly items-center""><div class=""square""></div><div class=""circle""></div><div class=""square""></div></div>","q","","matchness_test_3","mismatch","圆","q","true","mismatch"
"","null","html-keynbutton-response","365","2.0.0","255586","7","<div class=""pb-14 text-7xl"">+</div>","null","fixation","","","","","",""
"","441","html-keynbutton-response","366","2.0.0","256028","7","<div class=""flex flex-row stim-length pb-8 md:pd-20 justify-evenly items-center""><div class=""circle""></div><div class=""square""></div><div class=""circle""></div></div>","p","","matchness_test_3","mismatch","方","q","false","match"
"","null","html-keynbutton-response","367","2.0.0","256535","7","<div class=""pb-14 text-7xl"">+</div>","null","fixation","","","","","",""
"","548","html-keynbutton-response","368","2.0.0","257084","7","<div class=""flex flex-row stim-length pb-8 md:pd-20 justify-evenly items-center""><div class=""square""></div><div class=""square""></div><div class=""square""></div></div>","p","","matchness_test_3","match","方","p","true","match"
"","null","html-keynbutton-response","369","2.0.0","257586","7","<div class=""pb-14 text-7xl"">+</div>","null","fixation","","","","","",""
"","552","html-keynbutton-response","370","2.0.0","258139","7","<div class=""flex flex-row stim-length pb-8 md:pd-20 justify-evenly items-center""><div class=""square""></div><div class=""circle""></div><div class=""square""></div></div>","q","","matchness_test_3","mismatch","圆","q","true","mismatch"
"","null","html-keynbutton-response","371","2.0.0","258652","7","<div class=""pb-14 text-7xl"">+</div>","null","fixation","","","","","",""
"","495","html-keynbutton-response","372","2.0.0","259148","7","<div class=""flex flex-row stim-length pb-8 md:pd-20 justify-evenly items-center""><div class=""circle""></div><div class=""circle""></div><div class=""circle""></div></div>","p","","matchness_test_3","match","圆","p","true","match"
"","null","html-keynbutton-response","373","2.0.0","259654","7","<div class=""pb-14 text-7xl"">+</div>","null","fixation","","","","","",""
"","421","html-keynbutton-response","374","2.0.0","260076","7","<div class=""flex flex-row stim-length pb-8 md:pd-20 justify-evenly items-center""><div class=""square""></div><div class=""square""></div><div class=""square""></div></div>","p","","matchness_test_3","match","方","p","true","match"
"","null","html-keynbutton-response","375","2.0.0","260585","7","<div class=""pb-14 text-7xl"">+</div>","null","fixation","","","","","",""
"","562","html-keynbutton-response","376","2.0.0","261148","7","<div class=""flex flex-row stim-length pb-8 md:pd-20 justify-evenly items-center""><div class=""circle""></div><div class=""square""></div><div class=""circle""></div></div>","q","","matchness_test_3","mismatch","方","q","true","mismatch"
"","null","html-keynbutton-response","377","2.0.0","261654","7","<div class=""pb-14 text-7xl"">+</div>","null","fixation","","","","","",""
"","468","html-keynbutton-response","378","2.0.0","262123","7","<div class=""flex flex-row stim-length pb-8 md:pd-20 justify-evenly items-center""><div class=""circle""></div><div class=""square""></div><div class=""circle""></div></div>","q","","matchness_test_3","mismatch","方","q","true","mismatch"
"","null","html-keynbutton-response","379","2.0.0","262636","7","<div class=""pb-14 text-7xl"">+</div>","null","fixation","","","","","",""
"","559","html-keynbutton-response","380","2.0.0","263196","7","<div class=""flex flex-row stim-length pb-8 md:pd-20 justify-evenly items-center""><div class=""square""></div><div class=""square""></div><div class=""square""></div></div>","p","","matchness_test_3","match","方","p","true","match"
"","null","html-keynbutton-response","381","2.0.0","263703","7","<div class=""pb-14 text-7xl"">+</div>","null","fixation","","","","","",""
"","436","html-keynbutton-response","382","2.0.0","264140","7","<div class=""flex flex-row stim-length pb-8 md:pd-20 justify-evenly items-center""><div class=""circle""></div><div class=""circle""></div><div class=""circle""></div></div>","p","","matchness_test_3","match","圆","p","true","match"
"","null","html-keynbutton-response","383","2.0.0","264652","7","<div class=""pb-14 text-7xl"">+</div>","null","fixation","","","","","",""
"","479","html-keynbutton-response","384","2.0.0","265132","7","<div class=""flex flex-row stim-length pb-8 md:pd-20 justify-evenly items-center""><div class=""square""></div><div class=""circle""></div><div class=""square""></div></div>","q","","matchness_test_3","mismatch","圆","q","true","mismatch"
"","null","html-keynbutton-response","385","2.0.0","265643","7","<div class=""pb-14 text-7xl"">+</div>","null","fixation","","","","","",""
"","704","html-keynbutton-response","386","2.0.0","266347","7","<div class=""flex flex-row stim-length pb-8 md:pd-20 justify-evenly items-center""><div class=""circle""></div><div class=""square""></div><div class=""circle""></div></div>","q","","matchness_test_3","mismatch","方","q","true","mismatch"
"","null","html-keynbutton-response","387","2.0.0","266854","7","<div class=""pb-14 text-7xl"">+</div>","null","fixation","","","","","",""
"","485","html-keynbutton-response","388","2.0.0","267340","7","<div class=""flex flex-row stim-length pb-8 md:pd-20 justify-evenly items-center""><div class=""circle""></div><div class=""circle""></div><div class=""circle""></div></div>","p","","matchness_test_3","match","圆","p","true","match"
"","null","html-keynbutton-response","389","2.0.0","267844","7","<div class=""pb-14 text-7xl"">+</div>","null","fixation","","","","","",""
"","535","html-keynbutton-response","390","2.0.0","268380","7","<div class=""flex flex-row stim-length pb-8 md:pd-20 justify-evenly items-center""><div class=""square""></div><div class=""square""></div><div class=""square""></div></div>","p","","matchness_test_3","match","方","p","true","match"
"","null","html-keynbutton-response","391","2.0.0","268886","7","<div class=""pb-14 text-7xl"">+</div>","null","fixation","","","","","",""
"","550","html-keynbutton-response","392","2.0.0","269436","7","<div class=""flex flex-row stim-length pb-8 md:pd-20 justify-evenly items-center""><div class=""square""></div><div class=""circle""></div><div class=""square""></div></div>","q","","matchness_test_3","mismatch","圆","q","true","mismatch"
"","2174","html-keynbutton-response","393","2.0.0","271612","7","<div class=""jp""><p>您已完成4/10部分</p><p>请休息一会儿</p>
    <p>您的正确率是：95%</p>
    <p>您的平均反应时间是：488毫秒</p></div>"," ","block_feedback","","","","","",""
"","null","html-keynbutton-response","394","2.0.0","274816","7","<count-down title=""""></count-down>","null","countDown_trial","","","","","",""
"","null","html-keynbutton-response","395","2.0.0","275320","7","<div class=""pb-14 text-7xl"">+</div>","null","fixation","","","","","",""
"","451","html-keynbutton-response","396","2.0.0","275772","7","<div class=""flex flex-row stim-length pb-8 md:pd-20 justify-evenly items-center""><div class=""circle""></div><div class=""circle""></div><div class=""circle""></div></div>","p","","matchness_test_4","match","圆","p","true","match"
"","null","html-keynbutton-response","397","2.0.0","276285","7","<div class=""pb-14 text-7xl"">+</div>","null","fixation","","","","","",""
"","462","html-keynbutton-response","398","2.0.0","276748","7","<div class=""flex flex-row stim-length pb-8 md:pd-20 justify-evenly items-center""><div class=""square""></div><div class=""circle""></div><div class=""square""></div></div>","q","","matchness_test_4","mismatch","圆","q","true","mismatch"
"","null","html-keynbutton-response","399","2.0.0","277254","7","<div class=""pb-14 text-7xl"">+</div>","null","fixation","","","","","",""
"","357","html-keynbutton-response","400","2.0.0","277612","7","<div class=""flex flex-row stim-length pb-8 md:pd-20 justify-evenly items-center""><div class=""square""></div><div class=""square""></div><div class=""square""></div></div>","p","","matchness_test_4","match","方","p","true","match"
"","null","html-keynbutton-response","401","2.0.0","278123","7","<div class=""pb-14 text-7xl"">+</div>","null","fixation","","","","","",""
"","464","html-keynbutton-response","402","2.0.0","278588","7","<div class=""flex flex-row stim-length pb-8 md:pd-20 justify-evenly items-center""><div class=""circle""></div><div class=""square""></div><div class=""circle""></div></div>","q","","matchness_test_4","mismatch","方","q","true","mismatch"
"","null","html-keynbutton-response","403","2.0.0","279102","7","<div class=""pb-14 text-7xl"">+</div>","null","fixation","","","","","",""
"","397","html-keynbutton-response","404","2.0.0","279500","7","<div class=""flex flex-row stim-length pb-8 md:pd-20 justify-evenly items-center""><div class=""circle""></div><div class=""circle""></div><div class=""circle""></div></div>","p","","matchness_test_4","match","圆","p","true","match"
"","null","html-keynbutton-response","405","2.0.0","280003","7","<div class=""pb-14 text-7xl"">+</div>","null","fixation","","","","","",""
"","457","html-keynbutton-response","406","2.0.0","280460","7","<div class=""flex flex-row stim-length pb-8 md:pd-20 justify-evenly items-center""><div class=""circle""></div><div class=""square""></div><div class=""circle""></div></div>","q","","matchness_test_4","mismatch","方","q","true","mismatch"
"","null","html-keynbutton-response","407","2.0.0","280968","7","<div class=""pb-14 text-7xl"">+</div>","null","fixation","","","","","",""
"","642","html-keynbutton-response","408","2.0.0","281612","7","<div class=""flex flex-row stim-length pb-8 md:pd-20 justify-evenly items-center""><div class=""square""></div><div class=""circle""></div><div class=""square""></div></div>","q","","matchness_test_4","mismatch","圆","q","true","mismatch"
"","null","html-keynbutton-response","409","2.0.0","282120","7","<div class=""pb-14 text-7xl"">+</div>","null","fixation","","","","","",""
"","355","html-keynbutton-response","410","2.0.0","282476","7","<div class=""flex flex-row stim-length pb-8 md:pd-20 justify-evenly items-center""><div class=""square""></div><div class=""square""></div><div class=""square""></div></div>","p","","matchness_test_4","match","方","p","true","match"
"","null","html-keynbutton-response","411","2.0.0","282986","7","<div class=""pb-14 text-7xl"">+</div>","null","fixation","","","","","",""
"","401","html-keynbutton-response","412","2.0.0","283388","7","<div class=""flex flex-row stim-length pb-8 md:pd-20 justify-evenly items-center""><div class=""circle""></div><div class=""circle""></div><div class=""circle""></div></div>","p","","matchness_test_4","match","圆","p","true","match"
"","null","html-keynbutton-response","413","2.0.0","283902","7","<div class=""pb-14 text-7xl"">+</div>","null","fixation","","","","","",""
"","540","html-keynbutton-response","414","2.0.0","284443","7","<div class=""flex flex-row stim-length pb-8 md:pd-20 justify-evenly items-center""><div class=""square""></div><div class=""square""></div><div class=""square""></div></div>","p","","matchness_test_4","match","方","p","true","match"
"","null","html-keynbutton-response","415","2.0.0","284952","7","<div class=""pb-14 text-7xl"">+</div>","null","fixation","","","","","",""
"","483","html-keynbutton-response","416","2.0.0","285436","7","<div class=""flex flex-row stim-length pb-8 md:pd-20 justify-evenly items-center""><div class=""circle""></div><div class=""square""></div><div class=""circle""></div></div>","q","","matchness_test_4","mismatch","方","q","true","mismatch"
"","null","html-keynbutton-response","417","2.0.0","285943","7","<div class=""pb-14 text-7xl"">+</div>","null","fixation","","","","","",""
"","436","html-keynbutton-response","418","2.0.0","286380","7","<div class=""flex flex-row stim-length pb-8 md:pd-20 justify-evenly items-center""><div class=""square""></div><div class=""circle""></div><div class=""square""></div></div>","q","","matchness_test_4","mismatch","圆","q","true","mismatch"
"","null","html-keynbutton-response","419","2.0.0","286887","7","<div class=""pb-14 text-7xl"">+</div>","null","fixation","","","","","",""
"","517","html-keynbutton-response","420","2.0.0","287404","7","<div class=""flex flex-row stim-length pb-8 md:pd-20 justify-evenly items-center""><div class=""circle""></div><div class=""circle""></div><div class=""circle""></div></div>","p","","matchness_test_4","match","圆","p","true","match"
"","null","html-keynbutton-response","421","2.0.0","287919","7","<div class=""pb-14 text-7xl"">+</div>","null","fixation","","","","","",""
"","444","html-keynbutton-response","422","2.0.0","288364","7","<div class=""flex flex-row stim-length pb-8 md:pd-20 justify-evenly items-center""><div class=""square""></div><div class=""square""></div><div class=""square""></div></div>","p","","matchness_test_4","match","方","p","true","match"
"","null","html-keynbutton-response","423","2.0.0","288870","7","<div class=""pb-14 text-7xl"">+</div>","null","fixation","","","","","",""
"","469","html-keynbutton-response","424","2.0.0","289340","7","<div class=""flex flex-row stim-length pb-8 md:pd-20 justify-evenly items-center""><div class=""circle""></div><div class=""square""></div><div class=""circle""></div></div>","q","","matchness_test_4","mismatch","方","q","true","mismatch"
"","null","html-keynbutton-response","425","2.0.0","289853","7","<div class=""pb-14 text-7xl"">+</div>","null","fixation","","","","","",""
"","494","html-keynbutton-response","426","2.0.0","290348","7","<div class=""flex flex-row stim-length pb-8 md:pd-20 justify-evenly items-center""><div class=""square""></div><div class=""circle""></div><div class=""square""></div></div>","q","","matchness_test_4","mismatch","圆","q","true","mismatch"
"","null","html-keynbutton-response","427","2.0.0","290854","7","<div class=""pb-14 text-7xl"">+</div>","null","fixation","","","","","",""
"","549","html-keynbutton-response","428","2.0.0","291404","7","<div class=""flex flex-row stim-length pb-8 md:pd-20 justify-evenly items-center""><div class=""circle""></div><div class=""circle""></div><div class=""circle""></div></div>","p","","matchness_test_4","match","圆","p","true","match"
"","null","html-keynbutton-response","429","2.0.0","291906","7","<div class=""pb-14 text-7xl"">+</div>","null","fixation","","","","","",""
"","457","html-keynbutton-response","430","2.0.0","292364","7","<div class=""flex flex-row stim-length pb-8 md:pd-20 justify-evenly items-center""><div class=""circle""></div><div class=""square""></div><div class=""circle""></div></div>","q","","matchness_test_4","mismatch","方","q","true","mismatch"
"","null","html-keynbutton-response","431","2.0.0","292869","7","<div class=""pb-14 text-7xl"">+</div>","null","fixation","","","","","",""
"","406","html-keynbutton-response","432","2.0.0","293276","7","<div class=""flex flex-row stim-length pb-8 md:pd-20 justify-evenly items-center""><div class=""square""></div><div class=""square""></div><div class=""square""></div></div>","p","","matchness_test_4","match","方","p","true","match"
"","null","html-keynbutton-response","433","2.0.0","293785","7","<div class=""pb-14 text-7xl"">+</div>","null","fixation","","","","","",""
"","417","html-keynbutton-response","434","2.0.0","294203","7","<div class=""flex flex-row stim-length pb-8 md:pd-20 justify-evenly items-center""><div class=""square""></div><div class=""circle""></div><div class=""square""></div></div>","q","","matchness_test_4","mismatch","圆","q","true","mismatch"
"","null","html-keynbutton-response","435","2.0.0","294704","7","<div class=""pb-14 text-7xl"">+</div>","null","fixation","","","","","",""
"","507","html-keynbutton-response","436","2.0.0","295211","7","<div class=""flex flex-row stim-length pb-8 md:pd-20 justify-evenly items-center""><div class=""circle""></div><div class=""circle""></div><div class=""circle""></div></div>","p","","matchness_test_4","match","圆","p","true","match"
"","null","html-keynbutton-response","437","2.0.0","295726","7","<div class=""pb-14 text-7xl"">+</div>","null","fixation","","","","","",""
"","412","html-keynbutton-response","438","2.0.0","296139","7","<div class=""flex flex-row stim-length pb-8 md:pd-20 justify-evenly items-center""><div class=""square""></div><div class=""square""></div><div class=""square""></div></div>","p","","matchness_test_4","match","方","p","true","match"
"","null","html-keynbutton-response","439","2.0.0","296656","7","<div class=""pb-14 text-7xl"">+</div>","null","fixation","","","","","",""
"","430","html-keynbutton-response","440","2.0.0","297086","7","<div class=""flex flex-row stim-length pb-8 md:pd-20 justify-evenly items-center""><div class=""square""></div><div class=""circle""></div><div class=""square""></div></div>","q","","matchness_test_4","mismatch","圆","q","true","mismatch"
"","null","html-keynbutton-response","441","2.0.0","297594","7","<div class=""pb-14 text-7xl"">+</div>","null","fixation","","","","","",""
"","485","html-keynbutton-response","442","2.0.0","298080","7","<div class=""flex flex-row stim-length pb-8 md:pd-20 justify-evenly items-center""><div class=""circle""></div><div class=""square""></div><div class=""circle""></div></div>","p","","matchness_test_4","mismatch","方","q","false","match"
"","null","html-keynbutton-response","443","2.0.0","298588","7","<div class=""pb-14 text-7xl"">+</div>","null","fixation","","","","","",""
"","546","html-keynbutton-response","444","2.0.0","299135","7","<div class=""flex flex-row stim-length pb-8 md:pd-20 justify-evenly items-center""><div class=""square""></div><div class=""circle""></div><div class=""square""></div></div>","q","","matchness_test_4","mismatch","圆","q","true","mismatch"
"","null","html-keynbutton-response","445","2.0.0","299640","7","<div class=""pb-14 text-7xl"">+</div>","null","fixation","","","","","",""
"","438","html-keynbutton-response","446","2.0.0","300079","7","<div class=""flex flex-row stim-length pb-8 md:pd-20 justify-evenly items-center""><div class=""circle""></div><div class=""square""></div><div class=""circle""></div></div>","q","","matchness_test_4","mismatch","方","q","true","mismatch"
"","null","html-keynbutton-response","447","2.0.0","300592","7","<div class=""pb-14 text-7xl"">+</div>","null","fixation","","","","","",""
"","446","html-keynbutton-response","448","2.0.0","301039","7","<div class=""flex flex-row stim-length pb-8 md:pd-20 justify-evenly items-center""><div class=""circle""></div><div class=""circle""></div><div class=""circle""></div></div>","p","","matchness_test_4","match","圆","p","true","match"
"","null","html-keynbutton-response","449","2.0.0","301555","7","<div class=""pb-14 text-7xl"">+</div>","null","fixation","","","","","",""
"","395","html-keynbutton-response","450","2.0.0","301951","7","<div class=""flex flex-row stim-length pb-8 md:pd-20 justify-evenly items-center""><div class=""square""></div><div class=""square""></div><div class=""square""></div></div>","p","","matchness_test_4","match","方","p","true","match"
"","null","html-keynbutton-response","451","2.0.0","302457","7","<div class=""pb-14 text-7xl"">+</div>","null","fixation","","","","","",""
"","421","html-keynbutton-response","452","2.0.0","302879","7","<div class=""flex flex-row stim-length pb-8 md:pd-20 justify-evenly items-center""><div class=""square""></div><div class=""square""></div><div class=""square""></div></div>","p","","matchness_test_4","match","方","p","true","match"
"","null","html-keynbutton-response","453","2.0.0","303395","7","<div class=""pb-14 text-7xl"">+</div>","null","fixation","","","","","",""
"","507","html-keynbutton-response","454","2.0.0","303904","7","<div class=""flex flex-row stim-length pb-8 md:pd-20 justify-evenly items-center""><div class=""circle""></div><div class=""circle""></div><div class=""circle""></div></div>","p","","matchness_test_4","match","圆","p","true","match"
"","null","html-keynbutton-response","455","2.0.0","304406","7","<div class=""pb-14 text-7xl"">+</div>","null","fixation","","","","","",""
"","473","html-keynbutton-response","456","2.0.0","304879","7","<div class=""flex flex-row stim-length pb-8 md:pd-20 justify-evenly items-center""><div class=""square""></div><div class=""circle""></div><div class=""square""></div></div>","q","","matchness_test_4","mismatch","圆","q","true","mismatch"
"","null","html-keynbutton-response","457","2.0.0","305388","7","<div class=""pb-14 text-7xl"">+</div>","null","fixation","","","","","",""
"","562","html-keynbutton-response","458","2.0.0","305952","7","<div class=""flex flex-row stim-length pb-8 md:pd-20 justify-evenly items-center""><div class=""circle""></div><div class=""square""></div><div class=""circle""></div></div>","q","","matchness_test_4","mismatch","方","q","true","mismatch"
"","null","html-keynbutton-response","459","2.0.0","306457","7","<div class=""pb-14 text-7xl"">+</div>","null","fixation","","","","","",""
"","469","html-keynbutton-response","460","2.0.0","306927","7","<div class=""flex flex-row stim-length pb-8 md:pd-20 justify-evenly items-center""><div class=""square""></div><div class=""square""></div><div class=""square""></div></div>","p","","matchness_test_4","match","方","p","true","match"
"","null","html-keynbutton-response","461","2.0.0","307439","7","<div class=""pb-14 text-7xl"">+</div>","null","fixation","","","","","",""
