"success","timeout","failed_images","failed_audio","failed_video","trial_type","trial_index","time_elapsed","internal_node_id","rt","part","response","stimulus","correct","choices","correct_choice","trial_duration","response_ends_trial","number_of_apertures","number_of_dots","coherent_direction","coherence","opposite_coherence","dot_radius","dot_side_length","dot_life","move_distance","aperture_width","aperture_height","dot_color","dot_color_final","color_change_delay","target_color_proportion","motion_change_delay","dot_shape","background_color","RDK_type","aperture_type","reinsert_type","frame_rate","frame_rate_array","number_of_frames","aperture_center_x","aperture_center_y","fixation_cross","fixation_cross_width","fixation_cross_height","fixation_cross_color","fixation_cross_thickness","border","border_thickness","border_color","canvas_width","canvas_height","correct_response","data_label","task","difficulty","isMatch","association","label"
"true","false","[]","[]","[]","preload","0","3","0.0-0.0","","","","","","","","","","","","","","","","","","","","","","","","","","","","","","","","","","","","","","","","","","","","","","","","","","","",""
"true","","","","","fullscreen","1","1775669","0.0-1.0","1774033","fullScreen","","","","","","","","","","","","","","","","","","","","","","","","","","","","","","","","","","","","","","","","","","","","","","","","","",""
"","","","","","survey","2","1791862","0.0-2.0","15530","survey","{""sex"":""女"",""age"":25,""hands"":""右"",""color_blindness"":""都不是""}","","","","","","","","","","","","","","","","","","","","","","","","","","","","","","","","","","","","","","","","","","","","","","","","",""
"","","","","","survey-text","3","1809597","0.0-3.0","17035","color_test","{""Q0"":""be""}","","","","","","","","","","","","","","","","","","","","","","","","","","","","","","","","","","","","","","","","","","","","","","","","",""
"","","","","","html-keyboard-response","4","1817620","0.0-4.0","7401","instruction_beginning"," ","
      <div style=""text-align: left; color: white"">
        <h3 style=""text-align: center; font-size: 30px; margin: 0;"">欢迎参与本实验</h3>
          <p>为充分保障您的权利，请确保您已经知晓并同意《参与实验同意书》以及《数据公开知情同意书》，</p>
          <p>如果您未见过上述内容，请咨询实验员 ，</p>
          <p>如果您选择继续实验，则表示您已经清楚两份知情同意书的内容并同意 。</p>
          <p>在整个实验中，您需要完成两项任务，具体的任务要求会在后面说明 ，</p>
          <p>请按空格键进入实验</p >
      </div>","","","","","","","","","","","","","","","","","","","","","","","","","","","","","","","","","","","","","","","","","","","","","","","",""
"","","","","","html-keyboard-response","5","1864923","0.0-5.0-0.0","46682","instruction_getThreshold"," ","
      <div style=""text-align: left; color: white; padding: 10px""> 
        <h3 style=""text-align: center; font-size: 30px; margin: 10px"">欢迎进入实验！</h3>
        <p>在正式开始前，我们将通过一个快速测试为您打造专属的难度水平。<p>
        <p>接下来，屏幕上会呈现一些运动的彩色圆点，</p>
        <p>其中一定比例的点 <span style=""font-weight: bold"">一致地向左或向右运动</span> ，其余点随机运动</p >
        <p>您需要忽略点的颜色并在3秒内判断 <span style=""font-weight: bold"">一致的运动方向是向左还是向右</span>:</p >
        <ul>
          <li><span style=""font-weight: bold"">向左</span>，请按键盘 <span style=""font-weight: bold"">左键</span></li>
          <li><span style=""font-weight: bold"">向右</span>，请按键盘 <span style=""font-weight: bold"">右键</span> </li>
        </ul>
        <p>如有疑问请向主试咨询，没有则按下空格键开始</p>
      </div>","","","","","","","","","","","","","","","","","","","","","","","","","","","","","","","","","","","","","","","","","","","","","","","",""
"","","","","","html-keyboard-response","6","1866046","0.0-5.0-1.0-0.0-0.0-0.0-0.0-0.0-0.0","null","fixation","null","<p style='font-size: 48px; color: white'>+</p >","","","","","","","","","","","","","","","","","","","","","","","","","","","","","","","","","","","","","","","","","","","","","","","",""
"","","","","","rdk","7","1869673","0.0-5.0-1.0-0.0-0.0-0.0-0.0-0.0-1.0","-1","motion_test","","","false","[""ArrowLeft"",""ArrowRight""]","ArrowRight","3000","true","1","100","0","0.11","0","3","1","-1","2","300","300","[""hsl(0, 50%, 50%)"",""hsl(225, 50%, 50%)""]","[""white""]","0","0","0","circle","black","3","2","2","16.772222222222222","[1,17,17,17,17,17,17,17,17,17,17,17,17,17,17,17,17,17,17,17,17,17,17,17,16,17,17,17,17,16,17,17,17,17,17,17,17,17,17,17,16,17,17,17,17,17,16,17,16,17,17,17,17,17,16,17,17,17,17,17,16,17,17,16,17,17,17,17,17,17,17,17,16,17,16,17,17,17,17,17,17,16,17,17,17,17,17,16,17,16,17,17,17,17,17,17,17,16,17,17,17,17,17,16,17,17,17,16,17,17,17,17,16,17,17,17,17,17,17,17,17,17,17,16,17,17,17,17,17,17,17,16,17,17,17,17,17,17,17,17,17,17,16,17,17,16,17,17,17,17,17,16,17,17,16,17,17,17,17,17,17,17,17,17,17,16,17,17,17,17,17,17,17,17,17,16,17,17,17,17]","180","960","482","false","20","20","black","1","false","1","1","1920","964","ArrowRight","staircase_motion","","","","",""
"","","","","","html-keyboard-response","8","1870805","0.0-5.0-1.0-0.0-0.0-0.0-0.0-0.0-2.0","null","","null","<p style='font-size: 60px; color: yellow'>太慢!</p>","","","","","","","","","","","","","","","","","","","","","","","","","","","","","","","","","","","","","","","","","","","","","","","",""
"","","","","","html-keyboard-response","9","1871940","0.0-5.0-1.0-0.0-0.0-0.0-0.0-0.0-0.1","null","fixation","null","<p style='font-size: 48px; color: white'>+</p >","","","","","","","","","","","","","","","","","","","","","","","","","","","","","","","","","","","","","","","","","","","","","","","",""
"","","","","","rdk","10","1873443","0.0-5.0-1.0-0.0-0.0-0.0-0.0-0.0-1.1","874","motion_test","arrowright","","true","[""ArrowLeft"",""ArrowRight""]","ArrowRight","3000","true","1","100","0","0.11","0","3","1","-1","2","300","300","[""hsl(0, 50%, 50%)"",""hsl(225, 50%, 50%)""]","[""white""]","0","0","0","circle","black","3","2","2","16.641509433962263","[3,17,16,17,16,17,17,17,17,17,17,17,17,17,17,17,17,17,17,17,17,17,17,17,17,17,16,17,16,17,17,17,16,17,17,17,17,17,17,17,17,17,17,17,17,17,17,17,17,17,17,17,17]","53","960","482","false","20","20","black","1","false","1","1","1920","964","ArrowRight","staircase_motion","","","","",""
"","","","","","html-keyboard-response","11","1874584","0.0-5.0-1.0-0.0-0.0-0.0-0.0-0.0-2.1","null","","null","<p style='font-size: 60px; color: green'>正确!</p>","","","","","","","","","","","","","","","","","","","","","","","","","","","","","","","","","","","","","","","","","","","","","","","",""
"","","","","","html-keyboard-response","12","1875711","0.0-5.0-1.0-0.0-0.0-0.0-0.0-0.0-0.2","null","fixation","null","<p style='font-size: 48px; color: white'>+</p >","","","","","","","","","","","","","","","","","","","","","","","","","","","","","","","","","","","","","","","","","","","","","","","",""
"","","","","","rdk","13","1877235","0.0-5.0-1.0-0.0-0.0-0.0-0.0-0.0-1.2","902","motion_test","arrowleft","","true","[""ArrowLeft"",""ArrowRight""]","ArrowLeft","3000","true","1","100","180","0.11","0","3","1","-1","2","300","300","[""hsl(0, 50%, 50%)"",""hsl(225, 50%, 50%)""]","[""white""]","0","0","0","circle","black","3","2","2","16.574074074074073","[5,17,16,17,16,17,17,17,17,17,16,17,17,17,17,17,16,17,17,17,16,17,17,16,16,17,17,16,17,17,17,17,16,17,16,17,17,17,17,17,17,17,17,17,17,17,16,17,17,17,17,17,17,17]","54","960","482","false","20","20","black","1","false","1","1","1920","964","ArrowLeft","staircase_motion","","","","",""
"","","","","","html-keyboard-response","14","1878386","0.0-5.0-1.0-0.0-0.0-0.0-0.0-0.0-2.2","null","","null","<p style='font-size: 60px; color: green'>正确!</p>","","","","","","","","","","","","","","","","","","","","","","","","","","","","","","","","","","","","","","","","","","","","","","","",""
"","","","","","html-keyboard-response","15","1879508","0.0-5.0-1.0-0.0-0.0-0.0-0.0-0.0-0.3","null","fixation","null","<p style='font-size: 48px; color: white'>+</p >","","","","","","","","","","","","","","","","","","","","","","","","","","","","","","","","","","","","","","","","","","","","","","","",""
"","","","","","rdk","16","1882035","0.0-5.0-1.0-0.0-0.0-0.0-0.0-0.0-1.3","1906","motion_test","arrowright","","false","[""ArrowLeft"",""ArrowRight""]","ArrowLeft","3000","true","1","100","180","0.11","0","3","1","-1","2","300","300","[""hsl(0, 50%, 50%)"",""hsl(225, 50%, 50%)""]","[""white""]","0","0","0","circle","black","3","2","2","16.850877192982455","[9,17,17,17,17,17,17,17,17,17,17,17,17,17,17,17,17,17,16,17,17,17,17,17,16,17,17,17,17,17,17,17,17,17,17,17,17,17,17,17,17,17,16,17,17,17,16,17,17,16,17,17,17,17,17,17,17,16,17,17,17,17,17,17,17,17,17,17,17,17,17,17,16,17,17,17,17,17,17,17,17,17,16,17,17,17,17,17,17,17,17,17,17,17,17,17,17,17,17,17,17,17,17,17,17,17,17,17,17,17,17,16,17,17]","114","960","482","false","20","20","black","1","false","1","1","1920","964","ArrowLeft","staircase_motion","","","","",""
"","","","","","html-keyboard-response","17","1883183","0.0-5.0-1.0-0.0-0.0-0.0-0.0-0.0-2.3","null","","null","<p style='font-size: 60px; color: red'>错误!</p>","","","","","","","","","","","","","","","","","","","","","","","","","","","","","","","","","","","","","","","","","","","","","","","",""
"","","","","","html-keyboard-response","18","1884313","0.0-5.0-1.0-0.0-0.0-0.0-0.0-0.0-0.4","null","fixation","null","<p style='font-size: 48px; color: white'>+</p >","","","","","","","","","","","","","","","","","","","","","","","","","","","","","","","","","","","","","","","","","","","","","","","",""
"","","","","","rdk","19","1885963","0.0-5.0-1.0-0.0-0.0-0.0-0.0-0.0-1.4","1027","motion_test","arrowleft","","true","[""ArrowLeft"",""ArrowRight""]","ArrowLeft","3000","true","1","100","180","0.11","0","3","1","-1","2","300","300","[""hsl(0, 50%, 50%)"",""hsl(225, 50%, 50%)""]","[""white""]","0","0","0","circle","black","3","2","2","16.661290322580644","[4,15,17,16,16,17,17,17,17,17,17,16,17,17,17,17,17,17,17,17,17,17,17,17,17,17,17,17,17,17,17,17,17,16,17,17,16,17,17,17,17,17,17,17,17,17,16,17,17,17,17,17,17,17,17,17,17,17,17,17,17,17]","62","960","482","false","20","20","black","1","false","1","1","1920","964","ArrowLeft","staircase_motion","","","","",""
"","","","","","html-keyboard-response","20","1887092","0.0-5.0-1.0-0.0-0.0-0.0-0.0-0.0-2.4","null","","null","<p style='font-size: 60px; color: green'>正确!</p>","","","","","","","","","","","","","","","","","","","","","","","","","","","","","","","","","","","","","","","","","","","","","","","",""
"","","","","","html-keyboard-response","21","1888223","0.0-5.0-1.0-0.0-0.0-0.0-0.0-0.0-0.5","null","fixation","null","<p style='font-size: 48px; color: white'>+</p >","","","","","","","","","","","","","","","","","","","","","","","","","","","","","","","","","","","","","","","","","","","","","","","",""
"","","","","","rdk","22","1890755","0.0-5.0-1.0-0.0-0.0-0.0-0.0-0.0-1.5","1905","motion_test","arrowright","","true","[""ArrowLeft"",""ArrowRight""]","ArrowRight","3000","true","1","100","0","0.11","0","3","1","-1","2","300","300","[""hsl(0, 50%, 50%)"",""hsl(225, 50%, 50%)""]","[""white""]","0","0","0","circle","black","3","2","2","16.75438596491228","[5,17,16,17,17,17,17,17,16,17,16,17,17,17,17,17,17,17,17,17,17,16,17,17,17,17,17,17,17,17,17,17,17,17,17,17,17,16,17,17,17,17,17,17,16,17,17,17,16,17,17,17,17,16,17,17,17,17,17,16,17,17,17,16,17,17,17,17,17,17,17,16,17,16,17,17,17,17,17,17,17,17,17,17,17,17,17,17,17,17,17,17,17,16,17,17,17,16,17,17,17,17,17,17,16,17,16,17,17,17,17,17,17,17]","114","960","482","false","20","20","black","1","false","1","1","1920","964","ArrowRight","staircase_motion","","","","",""
"","","","","","html-keyboard-response","23","1891898","0.0-5.0-1.0-0.0-0.0-0.0-0.0-0.0-2.5","null","","null","<p style='font-size: 60px; color: green'>正确!</p>","","","","","","","","","","","","","","","","","","","","","","","","","","","","","","","","","","","","","","","","","","","","","","","",""
"","","","","","html-keyboard-response","24","1893034","0.0-5.0-1.0-0.0-0.0-0.0-0.0-0.0-0.6","null","fixation","null","<p style='font-size: 48px; color: white'>+</p >","","","","","","","","","","","","","","","","","","","","","","","","","","","","","","","","","","","","","","","","","","","","","","","",""
"","","","","","rdk","25","1894427","0.0-5.0-1.0-0.0-0.0-0.0-0.0-0.0-1.6","771","motion_test","arrowright","","true","[""ArrowLeft"",""ArrowRight""]","ArrowRight","3000","true","1","100","0","0.11","0","3","1","-1","2","300","300","[""hsl(0, 50%, 50%)"",""hsl(225, 50%, 50%)""]","[""white""]","0","0","0","circle","black","3","2","2","16.847826086956523","[16,17,17,17,17,17,17,17,17,17,17,17,17,16,17,17,17,17,17,17,17,17,17,17,16,17,16,17,17,16,17,16,17,17,17,17,17,17,17,17,17,17,17,17,16,17]","46","960","482","false","20","20","black","1","false","1","1","1920","964","ArrowRight","staircase_motion","","","","",""
"","","","","","html-keyboard-response","26","1895568","0.0-5.0-1.0-0.0-0.0-0.0-0.0-0.0-2.6","null","","null","<p style='font-size: 60px; color: green'>正确!</p>","","","","","","","","","","","","","","","","","","","","","","","","","","","","","","","","","","","","","","","","","","","","","","","",""
"","","","","","html-keyboard-response","27","1896690","0.0-5.0-1.0-0.0-0.0-0.0-0.0-0.0-0.7","null","fixation","null","<p style='font-size: 48px; color: white'>+</p >","","","","","","","","","","","","","","","","","","","","","","","","","","","","","","","","","","","","","","","","","","","","","","","",""
"","","","","","rdk","28","1897947","0.0-5.0-1.0-0.0-0.0-0.0-0.0-0.0-1.7","636","motion_test","arrowleft","","true","[""ArrowLeft"",""ArrowRight""]","ArrowLeft","3000","true","1","100","180","0.11","0","3","1","-1","2","300","300","[""hsl(0, 50%, 50%)"",""hsl(225, 50%, 50%)""]","[""white""]","0","0","0","circle","black","3","2","2","16.763157894736842","[11,17,17,17,17,17,16,17,17,17,17,17,17,17,17,17,17,17,17,17,17,17,17,17,16,17,17,17,17,17,17,17,17,17,17,17,16,17]","38","960","482","false","20","20","black","1","false","1","1","1920","964","ArrowLeft","staircase_motion","","","","",""
"","","","","","html-keyboard-response","29","1899068","0.0-5.0-1.0-0.0-0.0-0.0-0.0-0.0-2.7","null","","null","<p style='font-size: 60px; color: green'>正确!</p>","","","","","","","","","","","","","","","","","","","","","","","","","","","","","","","","","","","","","","","","","","","","","","","",""
"","","","","","html-keyboard-response","30","1900190","0.0-5.0-1.0-0.0-0.0-0.0-0.0-0.0-0.8","null","fixation","null","<p style='font-size: 48px; color: white'>+</p >","","","","","","","","","","","","","","","","","","","","","","","","","","","","","","","","","","","","","","","","","","","","","","","",""
"","","","","","rdk","31","1902019","0.0-5.0-1.0-0.0-0.0-0.0-0.0-0.0-1.8","1202","motion_test","arrowleft","","true","[""ArrowLeft"",""ArrowRight""]","ArrowLeft","3000","true","1","100","180","0.11","0","3","1","-1","2","300","300","[""hsl(0, 50%, 50%)"",""hsl(225, 50%, 50%)""]","[""white""]","0","0","0","circle","black","3","2","2","16.77777777777778","[5,17,17,17,17,17,17,17,17,17,17,17,17,17,17,17,17,17,17,17,17,17,16,17,17,17,17,17,17,17,17,17,17,17,17,17,17,17,17,17,17,16,17,17,17,16,17,17,17,17,17,17,17,17,17,17,16,17,17,17,17,17,17,17,17,17,17,17,17,17,17,17]","72","960","482","false","20","20","black","1","false","1","1","1920","964","ArrowLeft","staircase_motion","","","","",""
"","","","","","html-keyboard-response","32","1903168","0.0-5.0-1.0-0.0-0.0-0.0-0.0-0.0-2.8","null","","null","<p style='font-size: 60px; color: green'>正确!</p>","","","","","","","","","","","","","","","","","","","","","","","","","","","","","","","","","","","","","","","","","","","","","","","",""
"","","","","","html-keyboard-response","33","1904313","0.0-5.0-1.0-0.0-0.0-0.0-0.0-0.0-0.9","null","fixation","null","<p style='font-size: 48px; color: white'>+</p >","","","","","","","","","","","","","","","","","","","","","","","","","","","","","","","","","","","","","","","","","","","","","","","",""
"","","","","","rdk","34","1905587","0.0-5.0-1.0-0.0-0.0-0.0-0.0-0.0-1.9","648","motion_test","arrowright","","true","[""ArrowLeft"",""ArrowRight""]","ArrowRight","3000","true","1","100","0","0.11","0","3","1","-1","2","300","300","[""hsl(0, 50%, 50%)"",""hsl(225, 50%, 50%)""]","[""white""]","0","0","0","circle","black","3","2","2","16.86842105263158","[16,17,17,17,17,17,17,17,17,17,17,17,17,17,17,17,16,17,17,17,17,17,17,17,17,17,16,17,17,17,17,16,17,17,17,17,17,16]","38","960","482","false","20","20","black","1","false","1","1","1920","964","ArrowRight","staircase_motion","","","","",""
"","","","","","html-keyboard-response","35","1906709","0.0-5.0-1.0-0.0-0.0-0.0-0.0-0.0-2.9","null","","null","<p style='font-size: 60px; color: green'>正确!</p>","","","","","","","","","","","","","","","","","","","","","","","","","","","","","","","","","","","","","","","","","","","","","","","",""
"","","","","","html-keyboard-response","36","1907836","0.0-5.0-1.0-0.0-0.0-0.0-0.0-0.0-0.10","null","fixation","null","<p style='font-size: 48px; color: white'>+</p >","","","","","","","","","","","","","","","","","","","","","","","","","","","","","","","","","","","","","","","","","","","","","","","",""
"","","","","","rdk","37","1909067","0.0-5.0-1.0-0.0-0.0-0.0-0.0-0.0-1.10","610","motion_test","arrowleft","","false","[""ArrowLeft"",""ArrowRight""]","ArrowRight","3000","true","1","100","0","0.11","0","3","1","-1","2","300","300","[""hsl(0, 50%, 50%)"",""hsl(225, 50%, 50%)""]","[""white""]","0","0","0","circle","black","3","2","2","16.833333333333332","[15,17,17,17,17,17,17,17,17,17,17,17,17,17,16,17,17,17,16,17,16,17,17,17,17,17,17,17,17,17,17,17,17,17,16,17]","36","960","482","false","20","20","black","1","false","1","1","1920","964","ArrowRight","staircase_motion","","","","",""
"","","","","","html-keyboard-response","38","1910199","0.0-5.0-1.0-0.0-0.0-0.0-0.0-0.0-2.10","null","","null","<p style='font-size: 60px; color: red'>错误!</p>","","","","","","","","","","","","","","","","","","","","","","","","","","","","","","","","","","","","","","","","","","","","","","","",""
"","","","","","html-keyboard-response","39","1911328","0.0-5.0-1.0-0.0-0.0-0.0-0.0-0.0-0.11","null","fixation","null","<p style='font-size: 48px; color: white'>+</p >","","","","","","","","","","","","","","","","","","","","","","","","","","","","","","","","","","","","","","","","","","","","","","","",""
"","","","","","rdk","40","1912699","0.0-5.0-1.0-0.0-0.0-0.0-0.0-0.0-1.11","738","motion_test","arrowleft","","true","[""ArrowLeft"",""ArrowRight""]","ArrowLeft","3000","true","1","100","180","0.11","0","3","1","-1","2","300","300","[""hsl(0, 50%, 50%)"",""hsl(225, 50%, 50%)""]","[""white""]","0","0","0","circle","black","3","2","2","16.795454545454547","[11,17,17,17,17,17,17,17,17,17,17,17,17,17,17,17,17,17,17,17,16,17,17,17,17,17,17,17,16,17,17,17,17,17,17,17,17,17,17,17,17,16,17,17]","44","960","482","false","20","20","black","1","false","1","1","1920","964","ArrowLeft","staircase_motion","","","","",""
"","","","","","html-keyboard-response","41","1913840","0.0-5.0-1.0-0.0-0.0-0.0-0.0-0.0-2.11","null","","null","<p style='font-size: 60px; color: green'>正确!</p>","","","","","","","","","","","","","","","","","","","","","","","","","","","","","","","","","","","","","","","","","","","","","","","",""
"","","","","","html-keyboard-response","42","1916463","0.0-5.0-1.0-0.0-0.0-0.0-0.0-1.0","null","","null","<p style='font-size: 35px; color: white'>您的正确率为： 75% 。平均反应时为：935毫秒。</p>","","","","","","","","","","","","","","","","","","","","","","","","","","","","","","","","","","","","","","","","","","","","","","","",""
"","","","","","html-keyboard-response","43","1917585","0.0-5.0-1.0-0.0-0.0-1.0-0.0-0.0-0.0","null","fixation","null","<p style='font-size: 48px; color: white'>+</p >","","","","","","","","","","","","","","","","","","","","","","","","","","","","","","","","","","","","","","","","","","","","","","","",""
"","","","","","rdk","44","1919547","0.0-5.0-1.0-0.0-0.0-1.0-0.0-0.0-1.0","1341","motion_test","arrowleft","","false","[""ArrowLeft"",""ArrowRight""]","ArrowRight","3000","true","1","100","0","0.09","0","3","1","-1","2","300","300","[""hsl(0, 50%, 50%)"",""hsl(225, 50%, 50%)""]","[""white""]","0","0","0","circle","black","3","2","2","16.8875","[15,17,17,17,16,17,17,17,17,17,17,17,17,17,17,17,16,17,17,17,17,17,17,16,17,17,17,17,17,17,17,17,17,17,17,17,17,17,17,17,17,17,17,17,17,17,17,17,17,16,17,17,17,17,17,17,17,17,17,16,17,17,17,17,17,17,17,17,17,17,17,17,17,16,17,17,17,17,17,16]","80","960","482","false","20","20","black","1","false","1","1","1920","964","ArrowRight","staircase_motion","","","","",""
"","","","","","html-keyboard-response","45","1920670","0.0-5.0-1.0-0.0-0.0-1.0-0.0-0.0-2.0","null","","null","<p style='font-size: 60px; color: red'>错误!</p>","","","","","","","","","","","","","","","","","","","","","","","","","","","","","","","","","","","","","","","","","","","","","","","",""
"","","","","","html-keyboard-response","46","1921802","0.0-5.0-1.0-0.0-0.0-1.0-0.0-0.0-0.1","null","fixation","null","<p style='font-size: 48px; color: white'>+</p >","","","","","","","","","","","","","","","","","","","","","","","","","","","","","","","","","","","","","","","","","","","","","","","",""
"","","","","","rdk","47","1923835","0.0-5.0-1.0-0.0-0.0-1.0-0.0-0.0-1.1","1402","motion_test","arrowleft","","true","[""ArrowLeft"",""ArrowRight""]","ArrowLeft","3000","true","1","100","180","0.09","0","3","1","-1","2","300","300","[""hsl(0, 50%, 50%)"",""hsl(225, 50%, 50%)""]","[""white""]","0","0","0","circle","black","3","2","2","16.761904761904763","[5,17,17,17,17,17,16,17,17,17,17,17,17,17,17,17,17,16,17,17,17,17,17,16,17,17,17,16,17,17,17,16,17,17,17,17,17,17,17,17,17,16,17,17,17,17,17,17,17,17,16,17,17,17,17,17,17,17,17,17,17,17,17,17,17,17,17,17,16,17,17,17,17,17,17,17,17,17,17,17,17,17,17,17]","84","960","482","false","20","20","black","1","false","1","1","1920","964","ArrowLeft","staircase_motion","","","","",""
"","","","","","html-keyboard-response","48","1924983","0.0-5.0-1.0-0.0-0.0-1.0-0.0-0.0-2.1","null","","null","<p style='font-size: 60px; color: green'>正确!</p>","","","","","","","","","","","","","","","","","","","","","","","","","","","","","","","","","","","","","","","","","","","","","","","",""
"","","","","","html-keyboard-response","49","1926111","0.0-5.0-1.0-0.0-0.0-1.0-0.0-0.0-0.2","null","fixation","null","<p style='font-size: 48px; color: white'>+</p >","","","","","","","","","","","","","","","","","","","","","","","","","","","","","","","","","","","","","","","","","","","","","","","",""
"","","","","","rdk","50","1928308","0.0-5.0-1.0-0.0-0.0-1.0-0.0-0.0-1.2","1567","motion_test","arrowleft","","true","[""ArrowLeft"",""ArrowRight""]","ArrowLeft","3000","true","1","100","180","0.09","0","3","1","-1","2","300","300","[""hsl(0, 50%, 50%)"",""hsl(225, 50%, 50%)""]","[""white""]","0","0","0","circle","black","3","2","2","16.861702127659573","[15,17,17,17,17,17,17,17,17,17,17,16,17,17,16,17,17,17,17,16,17,16,17,17,17,17,17,17,17,17,17,17,17,17,17,16,17,17,17,17,17,17,17,17,16,17,17,17,17,17,17,17,17,17,17,17,17,17,17,17,17,17,17,17,17,17,17,17,17,16,17,16,17,17,16,17,17,17,17,17,17,17,17,16,17,17,16,17,17,17,17,17,17,17]","94","960","482","false","20","20","black","1","false","1","1","1920","964","ArrowLeft","staircase_motion","","","","",""
"","","","","","html-keyboard-response","51","1929438","0.0-5.0-1.0-0.0-0.0-1.0-0.0-0.0-2.2","null","","null","<p style='font-size: 60px; color: green'>正确!</p>","","","","","","","","","","","","","","","","","","","","","","","","","","","","","","","","","","","","","","","","","","","","","","","",""
"","","","","","html-keyboard-response","52","1930582","0.0-5.0-1.0-0.0-0.0-1.0-0.0-0.0-0.3","null","fixation","null","<p style='font-size: 48px; color: white'>+</p >","","","","","","","","","","","","","","","","","","","","","","","","","","","","","","","","","","","","","","","","","","","","","","","",""
"","","","","","rdk","53","1932068","0.0-5.0-1.0-0.0-0.0-1.0-0.0-0.0-1.3","864","motion_test","arrowright","","true","[""ArrowLeft"",""ArrowRight""]","ArrowRight","3000","true","1","100","0","0.09","0","3","1","-1","2","300","300","[""hsl(0, 50%, 50%)"",""hsl(225, 50%, 50%)""]","[""white""]","0","0","0","circle","black","3","2","2","16.557692307692307","[2,17,17,17,17,17,17,17,17,17,16,17,17,17,17,17,17,16,17,17,17,17,17,17,17,16,17,17,17,16,17,17,16,17,17,17,17,17,16,17,17,17,16,17,17,17,16,17,17,17,17,17]","52","960","482","false","20","20","black","1","false","1","1","1920","964","ArrowRight","staircase_motion","","","","",""
"","","","","","html-keyboard-response","54","1933204","0.0-5.0-1.0-0.0-0.0-1.0-0.0-0.0-2.3","null","","null","<p style='font-size: 60px; color: green'>正确!</p>","","","","","","","","","","","","","","","","","","","","","","","","","","","","","","","","","","","","","","","","","","","","","","","",""
"","","","","","html-keyboard-response","55","1934326","0.0-5.0-1.0-0.0-0.0-1.0-0.0-0.0-0.4","null","fixation","null","<p style='font-size: 48px; color: white'>+</p >","","","","","","","","","","","","","","","","","","","","","","","","","","","","","","","","","","","","","","","","","","","","","","","",""
"","","","","","rdk","56","1936804","0.0-5.0-1.0-0.0-0.0-1.0-0.0-0.0-1.4","1850","motion_test","arrowright","","false","[""ArrowLeft"",""ArrowRight""]","ArrowLeft","3000","true","1","100","180","0.09","0","3","1","-1","2","300","300","[""hsl(0, 50%, 50%)"",""hsl(225, 50%, 50%)""]","[""white""]","0","0","0","circle","black","3","2","2","16.792792792792792","[4,15,17,17,17,17,17,17,17,17,16,17,17,17,17,17,17,16,17,17,17,17,17,17,17,17,17,17,17,17,17,17,17,17,17,17,17,17,17,17,16,17,17,17,17,17,17,17,17,17,17,16,17,17,17,17,17,17,17,17,17,17,17,17,17,17,17,16,17,17,17,16,17,17,17,17,17,17,17,17,17,17,17,17,17,17,17,17,17,17,17,17,17,17,17,17,17,17,17,17,17,16,17,17,17,17,17,17,16,17,17]","111","960","482","false","20","20","black","1","false","1","1","1920","964","ArrowLeft","staircase_motion","","","","",""
"","","","","","html-keyboard-response","57","1937938","0.0-5.0-1.0-0.0-0.0-1.0-0.0-0.0-2.4","null","","null","<p style='font-size: 60px; color: red'>错误!</p>","","","","","","","","","","","","","","","","","","","","","","","","","","","","","","","","","","","","","","","","","","","","","","","",""
"","","","","","html-keyboard-response","58","1939075","0.0-5.0-1.0-0.0-0.0-1.0-0.0-0.0-0.5","null","fixation","null","<p style='font-size: 48px; color: white'>+</p >","","","","","","","","","","","","","","","","","","","","","","","","","","","","","","","","","","","","","","","","","","","","","","","",""
"","","","","","rdk","59","1941812","0.0-5.0-1.0-0.0-0.0-1.0-0.0-0.0-1.5","2115","motion_test","arrowright","","false","[""ArrowLeft"",""ArrowRight""]","ArrowLeft","3000","true","1","100","180","0.09","0","3","1","-1","2","300","300","[""hsl(0, 50%, 50%)"",""hsl(225, 50%, 50%)""]","[""white""]","0","0","0","circle","black","3","2","2","16.826771653543307","[10,17,17,17,16,17,16,17,17,17,17,17,17,17,17,17,17,17,17,17,17,17,17,17,17,17,17,17,16,17,17,17,16,17,17,17,16,17,17,17,16,17,17,17,17,17,17,17,16,17,17,17,17,17,16,17,17,17,17,17,16,17,17,17,17,17,17,17,17,17,17,17,16,17,17,17,17,17,17,17,17,17,17,17,17,17,17,17,17,17,17,17,16,17,17,17,17,17,17,17,16,17,17,17,17,17,17,17,17,17,17,16,17,17,16,17,17,17,17,17,17,16,17,17,17,17,17]","127","960","482","false","20","20","black","1","false","1","1","1920","964","ArrowLeft","staircase_motion","","","","",""
"","","","","","html-keyboard-response","60","1942938","0.0-5.0-1.0-0.0-0.0-1.0-0.0-0.0-2.5","null","","null","<p style='font-size: 60px; color: red'>错误!</p>","","","","","","","","","","","","","","","","","","","","","","","","","","","","","","","","","","","","","","","","","","","","","","","",""
"","","","","","html-keyboard-response","61","1944063","0.0-5.0-1.0-0.0-0.0-1.0-0.0-0.0-0.6","null","fixation","null","<p style='font-size: 48px; color: white'>+</p >","","","","","","","","","","","","","","","","","","","","","","","","","","","","","","","","","","","","","","","","","","","","","","","",""
"","","","","","rdk","62","1946732","0.0-5.0-1.0-0.0-0.0-1.0-0.0-0.0-1.6","2048","motion_test","arrowright","","true","[""ArrowLeft"",""ArrowRight""]","ArrowRight","3000","true","1","100","0","0.09","0","3","1","-1","2","300","300","[""hsl(0, 50%, 50%)"",""hsl(225, 50%, 50%)""]","[""white""]","0","0","0","circle","black","3","2","2","16.78048780487805","[5,17,17,17,17,17,17,17,17,17,17,17,17,16,17,17,17,17,17,16,17,17,16,17,17,17,17,17,17,17,17,17,17,17,17,17,16,17,17,16,17,17,17,17,17,17,17,17,17,17,17,16,17,17,17,17,17,17,17,17,17,17,17,17,16,17,17,17,17,17,17,16,17,16,17,17,17,17,17,17,17,17,17,17,17,17,17,17,16,17,16,17,17,17,16,17,16,17,17,17,17,17,17,17,17,17,17,17,17,17,17,17,17,17,16,17,17,17,17,17,17,16,17]","123","960","482","false","20","20","black","1","false","1","1","1920","964","ArrowRight","staircase_motion","","","","",""
"","","","","","html-keyboard-response","63","1947862","0.0-5.0-1.0-0.0-0.0-1.0-0.0-0.0-2.6","null","","null","<p style='font-size: 60px; color: green'>正确!</p>","","","","","","","","","","","","","","","","","","","","","","","","","","","","","","","","","","","","","","","","","","","","","","","",""
"","","","","","html-keyboard-response","64","1948991","0.0-5.0-1.0-0.0-0.0-1.0-0.0-0.0-0.7","null","fixation","null","<p style='font-size: 48px; color: white'>+</p >","","","","","","","","","","","","","","","","","","","","","","","","","","","","","","","","","","","","","","","","","","","","","","","",""
"","","","","","rdk","65","1951356","0.0-5.0-1.0-0.0-0.0-1.0-0.0-0.0-1.7","1744","motion_test","arrowright","","true","[""ArrowLeft"",""ArrowRight""]","ArrowRight","3000","true","1","100","0","0.09","0","3","1","-1","2","300","300","[""hsl(0, 50%, 50%)"",""hsl(225, 50%, 50%)""]","[""white""]","0","0","0","circle","black","3","2","2","16.846153846153847","[11,17,17,17,17,16,17,17,17,17,17,16,17,17,17,17,17,17,17,17,17,17,17,17,17,17,17,17,16,17,17,17,16,17,17,17,17,17,17,16,17,17,16,17,17,17,17,17,17,17,16,17,17,17,17,17,17,17,17,17,17,17,17,17,17,17,16,17,17,17,17,17,17,17,17,17,17,17,17,17,17,16,17,17,17,17,17,17,17,17,17,17,17,17,17,17,17,17,17,17,17,17,16,17]","104","960","482","false","20","20","black","1","false","1","1","1920","964","ArrowRight","staircase_motion","","","","",""
"","","","","","html-keyboard-response","66","1952488","0.0-5.0-1.0-0.0-0.0-1.0-0.0-0.0-2.7","null","","null","<p style='font-size: 60px; color: green'>正确!</p>","","","","","","","","","","","","","","","","","","","","","","","","","","","","","","","","","","","","","","","","","","","","","","","",""
"","","","","","html-keyboard-response","67","1953623","0.0-5.0-1.0-0.0-0.0-1.0-0.0-0.0-0.8","null","fixation","null","<p style='font-size: 48px; color: white'>+</p >","","","","","","","","","","","","","","","","","","","","","","","","","","","","","","","","","","","","","","","","","","","","","","","",""
"","","","","","rdk","68","1955668","0.0-5.0-1.0-0.0-0.0-1.0-0.0-0.0-1.8","1423","motion_test","arrowleft","","true","[""ArrowLeft"",""ArrowRight""]","ArrowLeft","3000","true","1","100","180","0.09","0","3","1","-1","2","300","300","[""hsl(0, 50%, 50%)"",""hsl(225, 50%, 50%)""]","[""white""]","0","0","0","circle","black","3","2","2","16.847058823529412","[11,17,17,17,17,16,17,17,17,17,17,17,17,17,17,17,17,17,17,17,17,17,17,17,17,17,16,17,17,17,17,17,17,17,17,17,17,17,17,17,16,17,17,17,17,17,17,16,17,17,17,17,17,17,16,17,17,17,17,17,17,17,17,17,17,16,17,17,17,17,17,17,17,17,17,17,17,17,17,17,16,17,17,17,17]","85","960","482","false","20","20","black","1","false","1","1","1920","964","ArrowLeft","staircase_motion","","","","",""
"","","","","","html-keyboard-response","69","1956818","0.0-5.0-1.0-0.0-0.0-1.0-0.0-0.0-2.8","null","","null","<p style='font-size: 60px; color: green'>正确!</p>","","","","","","","","","","","","","","","","","","","","","","","","","","","","","","","","","","","","","","","","","","","","","","","",""
"","","","","","html-keyboard-response","70","1957947","0.0-5.0-1.0-0.0-0.0-1.0-0.0-0.0-0.9","null","fixation","null","<p style='font-size: 48px; color: white'>+</p >","","","","","","","","","","","","","","","","","","","","","","","","","","","","","","","","","","","","","","","","","","","","","","","",""
"","","","","","rdk","71","1959364","0.0-5.0-1.0-0.0-0.0-1.0-0.0-0.0-1.9","796","motion_test","arrowleft","","false","[""ArrowLeft"",""ArrowRight""]","ArrowRight","3000","true","1","100","0","0.09","0","3","1","-1","2","300","300","[""hsl(0, 50%, 50%)"",""hsl(225, 50%, 50%)""]","[""white""]","0","0","0","circle","black","3","2","2","16.479166666666668","[4,17,16,17,17,16,17,17,16,17,17,16,17,17,17,17,17,17,16,17,17,17,16,17,17,17,16,17,17,17,17,17,17,17,16,17,16,17,17,16,17,17,16,17,17,17,16,17]","48","960","482","false","20","20","black","1","false","1","1","1920","964","ArrowRight","staircase_motion","","","","",""
"","","","","","html-keyboard-response","72","1960487","0.0-5.0-1.0-0.0-0.0-1.0-0.0-0.0-2.9","null","","null","<p style='font-size: 60px; color: red'>错误!</p>","","","","","","","","","","","","","","","","","","","","","","","","","","","","","","","","","","","","","","","","","","","","","","","",""
"","","","","","html-keyboard-response","73","1961609","0.0-5.0-1.0-0.0-0.0-1.0-0.0-0.0-0.10","null","fixation","null","<p style='font-size: 48px; color: white'>+</p >","","","","","","","","","","","","","","","","","","","","","","","","","","","","","","","","","","","","","","","","","","","","","","","",""
"","","","","","rdk","74","1963788","0.0-5.0-1.0-0.0-0.0-1.0-0.0-0.0-1.10","1557","motion_test","arrowleft","","true","[""ArrowLeft"",""ArrowRight""]","ArrowLeft","3000","true","1","100","180","0.09","0","3","1","-1","2","300","300","[""hsl(0, 50%, 50%)"",""hsl(225, 50%, 50%)""]","[""white""]","0","0","0","circle","black","3","2","2","16.827956989247312","[9,17,17,17,17,17,17,17,17,17,17,17,17,16,17,17,17,17,17,17,17,17,17,17,17,17,17,17,17,17,17,17,17,17,16,17,17,17,17,17,17,16,17,16,17,17,17,17,16,17,17,17,17,17,17,17,17,17,17,17,17,17,17,17,17,17,17,16,17,17,16,17,17,17,17,17,17,17,17,17,17,17,17,17,17,17,17,16,17,17,17,17,17]","93","960","482","false","20","20","black","1","false","1","1","1920","964","ArrowLeft","staircase_motion","","","","",""
"","","","","","html-keyboard-response","75","1964930","0.0-5.0-1.0-0.0-0.0-1.0-0.0-0.0-2.10","null","","null","<p style='font-size: 60px; color: green'>正确!</p>","","","","","","","","","","","","","","","","","","","","","","","","","","","","","","","","","","","","","","","","","","","","","","","",""
"","","","","","html-keyboard-response","76","1966053","0.0-5.0-1.0-0.0-0.0-1.0-0.0-0.0-0.11","null","fixation","null","<p style='font-size: 48px; color: white'>+</p >","","","","","","","","","","","","","","","","","","","","","","","","","","","","","","","","","","","","","","","","","","","","","","","",""
"","","","","","rdk","77","1968059","0.0-5.0-1.0-0.0-0.0-1.0-0.0-0.0-1.11","1385","motion_test","arrowright","","true","[""ArrowLeft"",""ArrowRight""]","ArrowRight","3000","true","1","100","0","0.09","0","3","1","-1","2","300","300","[""hsl(0, 50%, 50%)"",""hsl(225, 50%, 50%)""]","[""white""]","0","0","0","circle","black","3","2","2","16.843373493975903","[15,17,17,17,17,17,17,17,17,17,17,17,17,17,17,17,16,17,17,17,17,17,16,17,16,17,17,17,16,17,17,17,17,17,17,17,17,17,16,17,17,17,17,16,17,17,16,17,17,16,17,17,17,16,17,17,17,17,17,17,17,17,17,17,17,17,16,17,17,17,17,17,17,17,17,17,17,17,17,17,17,16,17]","83","960","482","false","20","20","black","1","false","1","1","1920","964","ArrowRight","staircase_motion","","","","",""
"","","","","","html-keyboard-response","78","1969190","0.0-5.0-1.0-0.0-0.0-1.0-0.0-0.0-2.11","null","","null","<p style='font-size: 60px; color: green'>正确!</p>","","","","","","","","","","","","","","","","","","","","","","","","","","","","","","","","","","","","","","","","","","","","","","","",""
"","","","","","html-keyboard-response","79","1971252","0.0-5.0-1.0-0.0-0.0-1.0-0.0-1.0","1431",""," ","<p style='font-size: 35px; color: white'>您的正确率为： 67% 。平均反应时为：1508毫秒。</p>","","","","","","","","","","","","","","","","","","","","","","","","","","","","","","","","","","","","","","","","","","","","","","","",""
"","","","","","html-keyboard-response","80","1972385","0.0-5.0-1.0-0.0-0.0-2.0-0.0-0.0-0.0","null","fixation","null","<p style='font-size: 48px; color: white'>+</p >","","","","","","","","","","","","","","","","","","","","","","","","","","","","","","","","","","","","","","","","","","","","","","","",""
"","","","","","rdk","81","1973788","0.0-5.0-1.0-0.0-0.0-2.0-0.0-0.0-1.0","770","motion_test","arrowleft","","true","[""ArrowLeft"",""ArrowRight""]","ArrowLeft","3000","true","1","100","180","0.07","0","3","1","-1","2","300","300","[""hsl(0, 50%, 50%)"",""hsl(225, 50%, 50%)""]","[""white""]","0","0","0","circle","black","3","2","2","16.67391304347826","[4,17,17,17,17,17,17,17,17,17,17,17,17,17,17,17,17,17,17,17,17,17,16,17,17,17,17,17,17,17,17,16,17,17,17,17,17,17,17,17,17,17,17,17,17,17]","46","960","482","false","20","20","black","1","false","1","1","1920","964","ArrowLeft","staircase_motion","","","","",""
"","","","","","html-keyboard-response","82","1974910","0.0-5.0-1.0-0.0-0.0-2.0-0.0-0.0-2.0","null","","null","<p style='font-size: 60px; color: green'>正确!</p>","","","","","","","","","","","","","","","","","","","","","","","","","","","","","","","","","","","","","","","","","","","","","","","",""
"","","","","","html-keyboard-response","83","1976039","0.0-5.0-1.0-0.0-0.0-2.0-0.0-0.0-0.1","null","fixation","null","<p style='font-size: 48px; color: white'>+</p >","","","","","","","","","","","","","","","","","","","","","","","","","","","","","","","","","","","","","","","","","","","","","","","",""
"","","","","","rdk","84","1978564","0.0-5.0-1.0-0.0-0.0-2.0-0.0-0.0-1.1","1903","motion_test","arrowleft","","false","[""ArrowLeft"",""ArrowRight""]","ArrowRight","3000","true","1","100","0","0.07","0","3","1","-1","2","300","300","[""hsl(0, 50%, 50%)"",""hsl(225, 50%, 50%)""]","[""white""]","0","0","0","circle","black","3","2","2","16.842105263157894","[12,17,17,17,17,16,17,17,17,17,17,16,17,17,17,17,17,17,16,17,17,17,17,17,16,17,17,17,17,17,17,17,17,16,17,17,17,17,17,16,17,17,17,17,17,17,17,17,17,17,17,17,16,17,16,17,17,17,17,17,17,17,17,17,17,17,17,16,17,17,17,17,17,17,16,17,17,16,17,16,17,17,17,17,17,17,17,17,17,17,17,17,17,17,17,17,17,17,17,17,17,17,17,17,17,17,17,17,17,17,17,17,16,17]","114","960","482","false","20","20","black","1","false","1","1","1920","964","ArrowRight","staircase_motion","","","","",""
"","","","","","html-keyboard-response","85","1979689","0.0-5.0-1.0-0.0-0.0-2.0-0.0-0.0-2.1","null","","null","<p style='font-size: 60px; color: red'>错误!</p>","","","","","","","","","","","","","","","","","","","","","","","","","","","","","","","","","","","","","","","","","","","","","","","",""
"","","","","","html-keyboard-response","86","1980822","0.0-5.0-1.0-0.0-0.0-2.0-0.0-0.0-0.2","null","fixation","null","<p style='font-size: 48px; color: white'>+</p >","","","","","","","","","","","","","","","","","","","","","","","","","","","","","","","","","","","","","","","","","","","","","","","",""
"","","","","","rdk","87","1982860","0.0-5.0-1.0-0.0-0.0-2.0-0.0-0.0-1.2","1416","motion_test","arrowright","","true","[""ArrowLeft"",""ArrowRight""]","ArrowRight","3000","true","1","100","0","0.07","0","3","1","-1","2","300","300","[""hsl(0, 50%, 50%)"",""hsl(225, 50%, 50%)""]","[""white""]","0","0","0","circle","black","3","2","2","16.823529411764707","[12,17,16,17,17,16,17,17,17,17,17,17,17,17,16,17,17,17,17,17,17,17,17,17,17,17,17,17,17,17,17,17,17,17,17,17,17,17,17,17,17,17,17,17,16,17,16,17,16,17,16,17,17,17,17,16,17,17,17,17,17,16,17,17,17,17,17,17,17,17,17,17,17,17,17,16,17,17,17,17,17,17,17,17,17]","85","960","482","false","20","20","black","1","false","1","1","1920","964","ArrowRight","staircase_motion","","","","",""
"","","","","","html-keyboard-response","88","1983988","0.0-5.0-1.0-0.0-0.0-2.0-0.0-0.0-2.2","null","","null","<p style='font-size: 60px; color: green'>正确!</p>","","","","","","","","","","","","","","","","","","","","","","","","","","","","","","","","","","","","","","","","","","","","","","","",""
"","","","","","html-keyboard-response","89","1985109","0.0-5.0-1.0-0.0-0.0-2.0-0.0-0.0-0.3","null","fixation","null","<p style='font-size: 48px; color: white'>+</p >","","","","","","","","","","","","","","","","","","","","","","","","","","","","","","","","","","","","","","","","","","","","","","","",""
"","","","","","rdk","90","1986404","0.0-5.0-1.0-0.0-0.0-2.0-0.0-0.0-1.3","663","motion_test","arrowleft","","true","[""ArrowLeft"",""ArrowRight""]","ArrowLeft","3000","true","1","100","180","0.07","0","3","1","-1","2","300","300","[""hsl(0, 50%, 50%)"",""hsl(225, 50%, 50%)""]","[""white""]","0","0","0","circle","black","3","2","2","16.846153846153847","[15,17,17,17,17,17,17,17,17,17,17,17,17,16,17,17,17,17,16,17,17,17,17,17,17,17,17,17,16,16,17,17,17,17,17,17,17,17,17]","39","960","482","false","20","20","black","1","false","1","1","1920","964","ArrowLeft","staircase_motion","","","","",""
"","","","","","html-keyboard-response","91","1987537","0.0-5.0-1.0-0.0-0.0-2.0-0.0-0.0-2.3","null","","null","<p style='font-size: 60px; color: green'>正确!</p>","","","","","","","","","","","","","","","","","","","","","","","","","","","","","","","","","","","","","","","","","","","","","","","",""
"","","","","","html-keyboard-response","92","1988659","0.0-5.0-1.0-0.0-0.0-2.0-0.0-0.0-0.4","null","fixation","null","<p style='font-size: 48px; color: white'>+</p >","","","","","","","","","","","","","","","","","","","","","","","","","","","","","","","","","","","","","","","","","","","","","","","",""
"","","","","","rdk","93","1989979","0.0-5.0-1.0-0.0-0.0-2.0-0.0-0.0-1.4","693","motion_test","arrowright","","true","[""ArrowLeft"",""ArrowRight""]","ArrowRight","3000","true","1","100","0","0.07","0","3","1","-1","2","300","300","[""hsl(0, 50%, 50%)"",""hsl(225, 50%, 50%)""]","[""white""]","0","0","0","circle","black","3","2","2","16.5","[4,15,17,17,17,17,17,17,17,16,17,17,17,16,17,16,17,17,17,17,17,16,17,17,17,17,17,16,17,17,17,17,16,17,17,17,17,17,17,17,17,17]","42","960","482","false","20","20","black","1","false","1","1","1920","964","ArrowRight","staircase_motion","","","","",""
"","","","","","html-keyboard-response","94","1991108","0.0-5.0-1.0-0.0-0.0-2.0-0.0-0.0-2.4","null","","null","<p style='font-size: 60px; color: green'>正确!</p>","","","","","","","","","","","","","","","","","","","","","","","","","","","","","","","","","","","","","","","","","","","","","","","",""
"","","","","","html-keyboard-response","95","1992252","0.0-5.0-1.0-0.0-0.0-2.0-0.0-0.0-0.5","null","fixation","null","<p style='font-size: 48px; color: white'>+</p >","","","","","","","","","","","","","","","","","","","","","","","","","","","","","","","","","","","","","","","","","","","","","","","",""
"","","","","","rdk","96","1993500","0.0-5.0-1.0-0.0-0.0-2.0-0.0-0.0-1.5","617","motion_test","arrowleft","","true","[""ArrowLeft"",""ArrowRight""]","ArrowLeft","3000","true","1","100","180","0.07","0","3","1","-1","2","300","300","[""hsl(0, 50%, 50%)"",""hsl(225, 50%, 50%)""]","[""white""]","0","0","0","circle","black","3","2","2","16.54054054054054","[6,17,17,17,17,17,17,17,17,17,17,17,17,17,17,17,17,16,17,16,17,17,17,16,17,16,17,17,16,17,17,17,17,17,16,17,17]","37","960","482","false","20","20","black","1","false","1","1","1920","964","ArrowLeft","staircase_motion","","","","",""
"","","","","","html-keyboard-response","97","1994636","0.0-5.0-1.0-0.0-0.0-2.0-0.0-0.0-2.5","null","","null","<p style='font-size: 60px; color: green'>正确!</p>","","","","","","","","","","","","","","","","","","","","","","","","","","","","","","","","","","","","","","","","","","","","","","","",""
"","","","","","html-keyboard-response","98","1995757","0.0-5.0-1.0-0.0-0.0-2.0-0.0-0.0-0.6","null","fixation","null","<p style='font-size: 48px; color: white'>+</p >","","","","","","","","","","","","","","","","","","","","","","","","","","","","","","","","","","","","","","","","","","","","","","","",""
"","","","","","rdk","99","1997004","0.0-5.0-1.0-0.0-0.0-2.0-0.0-0.0-1.6","625","motion_test","arrowright","","true","[""ArrowLeft"",""ArrowRight""]","ArrowRight","3000","true","1","100","0","0.07","0","3","1","-1","2","300","300","[""hsl(0, 50%, 50%)"",""hsl(225, 50%, 50%)""]","[""white""]","0","0","0","circle","black","3","2","2","16.675675675675677","[11,17,17,16,18,15,17,17,17,17,17,17,16,17,17,17,16,17,17,17,17,17,17,17,17,17,17,17,17,16,17,17,17,17,17,17,16]","37","960","482","false","20","20","black","1","false","1","1","1920","964","ArrowRight","staircase_motion","","","","",""
"","","","","","html-keyboard-response","100","1998138","0.0-5.0-1.0-0.0-0.0-2.0-0.0-0.0-2.6","null","","null","<p style='font-size: 60px; color: green'>正确!</p>","","","","","","","","","","","","","","","","","","","","","","","","","","","","","","","","","","","","","","","","","","","","","","","",""
"","","","","","html-keyboard-response","101","1999260","0.0-5.0-1.0-0.0-0.0-2.0-0.0-0.0-0.7","null","fixation","null","<p style='font-size: 48px; color: white'>+</p >","","","","","","","","","","","","","","","","","","","","","","","","","","","","","","","","","","","","","","","","","","","","","","","",""
"","","","","","rdk","102","2001116","0.0-5.0-1.0-0.0-0.0-2.0-0.0-0.0-1.7","1232","motion_test","arrowleft","","true","[""ArrowLeft"",""ArrowRight""]","ArrowLeft","3000","true","1","100","180","0.07","0","3","1","-1","2","300","300","[""hsl(0, 50%, 50%)"",""hsl(225, 50%, 50%)""]","[""white""]","0","0","0","circle","black","3","2","2","16.716216216216218","[6,17,17,17,17,17,16,17,17,17,17,17,16,17,17,17,17,17,17,17,17,17,16,17,17,16,17,17,16,17,17,17,17,16,17,17,17,17,17,17,17,17,17,17,17,17,17,16,17,17,17,16,17,17,16,17,16,17,17,17,17,17,17,17,17,17,17,17,17,17,17,17,17,17]","74","960","482","false","20","20","black","1","false","1","1","1920","964","ArrowLeft","staircase_motion","","","","",""
"","","","","","html-keyboard-response","103","2002239","0.0-5.0-1.0-0.0-0.0-2.0-0.0-0.0-2.7","null","","null","<p style='font-size: 60px; color: green'>正确!</p>","","","","","","","","","","","","","","","","","","","","","","","","","","","","","","","","","","","","","","","","","","","","","","","",""
"","","","","","html-keyboard-response","104","2003371","0.0-5.0-1.0-0.0-0.0-2.0-0.0-0.0-0.8","null","fixation","null","<p style='font-size: 48px; color: white'>+</p >","","","","","","","","","","","","","","","","","","","","","","","","","","","","","","","","","","","","","","","","","","","","","","","",""
"","","","","","rdk","105","2004852","0.0-5.0-1.0-0.0-0.0-2.0-0.0-0.0-1.8","848","motion_test","arrowright","","true","[""ArrowLeft"",""ArrowRight""]","ArrowRight","3000","true","1","100","0","0.07","0","3","1","-1","2","300","300","[""hsl(0, 50%, 50%)"",""hsl(225, 50%, 50%)""]","[""white""]","0","0","0","circle","black","3","2","2","16.647058823529413","[4,15,17,17,17,17,17,17,17,17,17,17,17,17,17,17,17,17,17,17,17,16,17,17,17,17,17,17,16,17,17,17,17,17,17,17,17,16,17,17,17,17,17,17,17,17,17,17,17,17,17]","51","960","482","false","20","20","black","1","false","1","1","1920","964","ArrowRight","staircase_motion","","","","",""
"","","","","","html-keyboard-response","106","2005980","0.0-5.0-1.0-0.0-0.0-2.0-0.0-0.0-2.8","null","","null","<p style='font-size: 60px; color: green'>正确!</p>","","","","","","","","","","","","","","","","","","","","","","","","","","","","","","","","","","","","","","","","","","","","","","","",""
"","","","","","html-keyboard-response","107","2007101","0.0-5.0-1.0-0.0-0.0-2.0-0.0-0.0-0.9","null","fixation","null","<p style='font-size: 48px; color: white'>+</p >","","","","","","","","","","","","","","","","","","","","","","","","","","","","","","","","","","","","","","","","","","","","","","","",""
"","","","","","rdk","108","2009108","0.0-5.0-1.0-0.0-0.0-2.0-0.0-0.0-1.9","1385","motion_test","arrowright","","false","[""ArrowLeft"",""ArrowRight""]","ArrowLeft","3000","true","1","100","180","0.07","0","3","1","-1","2","300","300","[""hsl(0, 50%, 50%)"",""hsl(225, 50%, 50%)""]","[""white""]","0","0","0","circle","black","3","2","2","16.879518072289155","[17,16,17,17,17,17,17,17,17,16,17,17,17,17,17,17,17,17,16,17,17,17,17,17,17,17,17,17,17,16,17,17,17,17,17,17,17,17,16,17,17,17,17,17,16,17,16,17,17,17,17,17,16,17,17,17,17,17,17,17,17,17,17,16,17,17,17,17,17,17,16,17,17,17,17,17,17,17,17,17,17,17,17]","83","960","482","false","20","20","black","1","false","1","1","1920","964","ArrowLeft","staircase_motion","","","","",""
"","","","","","html-keyboard-response","109","2010239","0.0-5.0-1.0-0.0-0.0-2.0-0.0-0.0-2.9","null","","null","<p style='font-size: 60px; color: red'>错误!</p>","","","","","","","","","","","","","","","","","","","","","","","","","","","","","","","","","","","","","","","","","","","","","","","",""
"","","","","","html-keyboard-response","110","2011361","0.0-5.0-1.0-0.0-0.0-2.0-0.0-0.0-0.10","null","fixation","null","<p style='font-size: 48px; color: white'>+</p >","","","","","","","","","","","","","","","","","","","","","","","","","","","","","","","","","","","","","","","","","","","","","","","",""
"","","","","","rdk","111","2013380","0.0-5.0-1.0-0.0-0.0-2.0-0.0-0.0-1.10","1393","motion_test","arrowleft","","true","[""ArrowLeft"",""ArrowRight""]","ArrowLeft","3000","true","1","100","180","0.07","0","3","1","-1","2","300","300","[""hsl(0, 50%, 50%)"",""hsl(225, 50%, 50%)""]","[""white""]","0","0","0","circle","black","3","2","2","16.714285714285715","[2,17,17,17,18,16,17,17,17,16,17,17,16,17,17,17,17,17,17,17,17,17,16,17,17,17,17,17,17,17,17,17,17,17,17,17,17,17,17,17,17,17,17,17,17,17,17,17,16,17,17,16,17,17,17,16,17,16,17,16,17,17,17,17,17,17,17,17,17,17,17,17,17,17,17,17,17,17,16,17,17,17,17,17]","84","960","482","false","20","20","black","1","false","1","1","1920","964","ArrowLeft","staircase_motion","","","","",""
"","","","","","html-keyboard-response","112","2014505","0.0-5.0-1.0-0.0-0.0-2.0-0.0-0.0-2.10","null","","null","<p style='font-size: 60px; color: green'>正确!</p>","","","","","","","","","","","","","","","","","","","","","","","","","","","","","","","","","","","","","","","","","","","","","","","",""
"","","","","","html-keyboard-response","113","2015641","0.0-5.0-1.0-0.0-0.0-2.0-0.0-0.0-0.11","null","fixation","null","<p style='font-size: 48px; color: white'>+</p >","","","","","","","","","","","","","","","","","","","","","","","","","","","","","","","","","","","","","","","","","","","","","","","",""
"","","","","","rdk","114","2017884","0.0-5.0-1.0-0.0-0.0-2.0-0.0-0.0-1.11","1621","motion_test","arrowright","","true","[""ArrowLeft"",""ArrowRight""]","ArrowRight","3000","true","1","100","0","0.07","0","3","1","-1","2","300","300","[""hsl(0, 50%, 50%)"",""hsl(225, 50%, 50%)""]","[""white""]","0","0","0","circle","black","3","2","2","16.835051546391753","[10,17,17,17,17,17,17,17,17,17,17,17,17,17,17,17,17,17,17,17,17,17,17,17,17,17,17,17,17,17,17,17,16,17,17,16,17,17,17,17,17,17,16,17,17,17,17,17,17,17,16,17,17,17,17,17,17,17,17,17,17,17,17,16,17,17,17,17,17,17,17,17,16,17,17,16,17,17,17,17,17,17,17,17,17,17,17,17,17,17,16,17,17,16,17,17,17]","97","960","482","false","20","20","black","1","false","1","1","1920","964","ArrowRight","staircase_motion","","","","",""
"","","","","","html-keyboard-response","115","2019021","0.0-5.0-1.0-0.0-0.0-2.0-0.0-0.0-2.11","null","","null","<p style='font-size: 60px; color: green'>正确!</p>","","","","","","","","","","","","","","","","","","","","","","","","","","","","","","","","","","","","","","","","","","","","","","","",""
"","","","","","html-keyboard-response","116","2021460","0.0-5.0-1.0-0.0-0.0-2.0-0.0-1.0","1818",""," ","<p style='font-size: 35px; color: white'>您的正确率为： 83% 。平均反应时为：1097毫秒。</p>","","","","","","","","","","","","","","","","","","","","","","","","","","","","","","","","","","","","","","","","","","","","","","","",""
"","","","","","html-keyboard-response","117","2022582","0.0-5.0-1.0-0.0-0.0-3.0-0.0-0.0-0.0","null","fixation","null","<p style='font-size: 48px; color: white'>+</p >","","","","","","","","","","","","","","","","","","","","","","","","","","","","","","","","","","","","","","","","","","","","","","","",""
"","","","","","rdk","118","2025843","0.0-5.0-1.0-0.0-0.0-3.0-0.0-0.0-1.0","2640","motion_test","arrowright","","true","[""ArrowLeft"",""ArrowRight""]","ArrowRight","3000","true","1","100","0","0.05","0","3","1","-1","2","300","300","[""hsl(0, 50%, 50%)"",""hsl(225, 50%, 50%)""]","[""white""]","0","0","0","circle","black","3","2","2","16.81761006289308","[4,16,17,17,17,16,17,17,17,17,17,17,17,17,17,17,17,17,17,17,17,17,17,17,17,16,17,17,17,17,17,17,17,16,17,17,17,17,17,16,17,17,17,17,17,17,17,17,17,17,17,17,17,16,17,16,17,17,17,17,17,17,17,17,17,17,17,17,17,17,17,17,17,17,16,17,17,17,17,17,17,17,17,17,17,17,16,17,17,17,17,17,17,17,17,17,17,17,17,17,16,17,17,17,17,17,17,17,17,17,16,17,17,16,17,17,17,16,17,17,17,17,17,17,16,17,17,17,17,17,17,17,17,17,17,17,17,17,17,17,17,17,17,16,17,17,17,17,17,17,16,17,17,17,17,17,17,17,17]","159","960","482","false","20","20","black","1","false","1","1","1920","964","ArrowRight","staircase_motion","","","","",""
"","","","","","html-keyboard-response","119","2026972","0.0-5.0-1.0-0.0-0.0-3.0-0.0-0.0-2.0","null","","null","<p style='font-size: 60px; color: green'>正确!</p>","","","","","","","","","","","","","","","","","","","","","","","","","","","","","","","","","","","","","","","","","","","","","","","",""
"","","","","","html-keyboard-response","120","2028115","0.0-5.0-1.0-0.0-0.0-3.0-0.0-0.0-0.1","null","fixation","null","<p style='font-size: 48px; color: white'>+</p >","","","","","","","","","","","","","","","","","","","","","","","","","","","","","","","","","","","","","","","","","","","","","","","",""
"","","","","","rdk","121","2029628","0.0-5.0-1.0-0.0-0.0-3.0-0.0-0.0-1.1","882","motion_test","arrowleft","","true","[""ArrowLeft"",""ArrowRight""]","ArrowLeft","3000","true","1","100","180","0.05","0","3","1","-1","2","300","300","[""hsl(0, 50%, 50%)"",""hsl(225, 50%, 50%)""]","[""white""]","0","0","0","circle","black","3","2","2","16.77358490566038","[10,17,17,16,17,17,17,17,17,16,17,17,17,17,17,17,17,17,17,17,17,17,16,17,17,17,17,17,17,16,17,17,17,17,17,17,17,17,17,17,17,17,17,17,17,17,17,17,17,17,17,16,17]","53","960","482","false","20","20","black","1","false","1","1","1920","964","ArrowLeft","staircase_motion","","","","",""
"","","","","","html-keyboard-response","122","2030757","0.0-5.0-1.0-0.0-0.0-3.0-0.0-0.0-2.1","null","","null","<p style='font-size: 60px; color: green'>正确!</p>","","","","","","","","","","","","","","","","","","","","","","","","","","","","","","","","","","","","","","","","","","","","","","","",""
"","","","","","html-keyboard-response","123","2031883","0.0-5.0-1.0-0.0-0.0-3.0-0.0-0.0-0.2","null","fixation","null","<p style='font-size: 48px; color: white'>+</p >","","","","","","","","","","","","","","","","","","","","","","","","","","","","","","","","","","","","","","","","","","","","","","","",""
"","","","","","rdk","124","2034244","0.0-5.0-1.0-0.0-0.0-3.0-0.0-0.0-1.2","1739","motion_test","arrowleft","","false","[""ArrowLeft"",""ArrowRight""]","ArrowRight","3000","true","1","100","0","0.05","0","3","1","-1","2","300","300","[""hsl(0, 50%, 50%)"",""hsl(225, 50%, 50%)""]","[""white""]","0","0","0","circle","black","3","2","2","16.742857142857144","[1,17,17,17,17,17,17,17,17,16,17,17,17,16,17,17,17,17,17,17,17,17,17,17,17,17,17,17,17,17,17,17,16,17,17,17,17,17,17,17,17,17,17,16,17,17,17,17,17,17,17,17,17,17,17,17,17,17,17,17,17,17,17,16,17,17,17,17,17,17,17,17,17,16,17,17,16,17,17,17,17,17,17,16,17,17,17,17,17,17,17,17,17,17,17,17,16,17,17,17,17,16,16,17,17]","105","960","482","false","20","20","black","1","false","1","1","1920","964","ArrowRight","staircase_motion","","","","",""
"","","","","","html-keyboard-response","125","2035373","0.0-5.0-1.0-0.0-0.0-3.0-0.0-0.0-2.2","null","","null","<p style='font-size: 60px; color: red'>错误!</p>","","","","","","","","","","","","","","","","","","","","","","","","","","","","","","","","","","","","","","","","","","","","","","","",""
"","","","","","html-keyboard-response","126","2036494","0.0-5.0-1.0-0.0-0.0-3.0-0.0-0.0-0.3","null","fixation","null","<p style='font-size: 48px; color: white'>+</p >","","","","","","","","","","","","","","","","","","","","","","","","","","","","","","","","","","","","","","","","","","","","","","","",""
"","","","","","rdk","127","2038525","0.0-5.0-1.0-0.0-0.0-3.0-0.0-0.0-1.3","1409","motion_test","arrowleft","","true","[""ArrowLeft"",""ArrowRight""]","ArrowLeft","3000","true","1","100","180","0.05","0","3","1","-1","2","300","300","[""hsl(0, 50%, 50%)"",""hsl(225, 50%, 50%)""]","[""white""]","0","0","0","circle","black","3","2","2","16.811764705882354","[7,17,17,17,17,17,17,17,17,17,17,16,17,17,17,17,17,17,17,17,17,17,17,17,17,17,17,17,17,17,17,16,17,17,17,17,16,17,17,17,17,17,17,16,17,17,17,17,17,17,17,16,17,17,17,16,17,17,17,17,17,17,17,16,17,17,17,17,17,17,17,17,17,17,17,17,17,17,17,17,17,17,17,17,18]","85","960","482","false","20","20","black","1","false","1","1","1920","964","ArrowLeft","staircase_motion","","","","",""
"","","","","","html-keyboard-response","128","2039656","0.0-5.0-1.0-0.0-0.0-3.0-0.0-0.0-2.3","null","","null","<p style='font-size: 60px; color: green'>正确!</p>","","","","","","","","","","","","","","","","","","","","","","","","","","","","","","","","","","","","","","","","","","","","","","","",""
"","","","","","html-keyboard-response","129","2040783","0.0-5.0-1.0-0.0-0.0-3.0-0.0-0.0-0.4","null","fixation","null","<p style='font-size: 48px; color: white'>+</p >","","","","","","","","","","","","","","","","","","","","","","","","","","","","","","","","","","","","","","","","","","","","","","","",""
"","","","","","rdk","130","2043452","0.0-5.0-1.0-0.0-0.0-3.0-0.0-0.0-1.4","2047","motion_test","arrowleft","","true","[""ArrowLeft"",""ArrowRight""]","ArrowLeft","3000","true","1","100","180","0.05","0","3","1","-1","2","300","300","[""hsl(0, 50%, 50%)"",""hsl(225, 50%, 50%)""]","[""white""]","0","0","0","circle","black","3","2","2","16.788617886178862","[4,15,17,17,17,17,17,17,17,17,17,17,17,17,17,17,17,17,17,17,16,17,17,17,17,17,17,17,17,17,17,17,17,17,17,17,17,17,17,17,17,17,16,17,17,17,17,17,17,17,17,16,17,17,16,17,17,17,17,17,17,17,17,17,17,17,16,17,17,17,17,17,17,17,17,17,16,17,17,17,17,17,17,17,16,17,17,16,17,16,17,17,17,17,17,17,17,17,17,17,17,17,17,17,17,17,17,17,17,17,17,17,16,17,16,17,17,17,17,17,17,17,17]","123","960","482","false","20","20","black","1","false","1","1","1920","964","ArrowLeft","staircase_motion","","","","",""
"","","","","","html-keyboard-response","131","2044588","0.0-5.0-1.0-0.0-0.0-3.0-0.0-0.0-2.4","null","","null","<p style='font-size: 60px; color: green'>正确!</p>","","","","","","","","","","","","","","","","","","","","","","","","","","","","","","","","","","","","","","","","","","","","","","","",""
"","","","","","html-keyboard-response","132","2045710","0.0-5.0-1.0-0.0-0.0-3.0-0.0-0.0-0.5","null","fixation","null","<p style='font-size: 48px; color: white'>+</p >","","","","","","","","","","","","","","","","","","","","","","","","","","","","","","","","","","","","","","","","","","","","","","","",""
"","","","","","rdk","133","2048420","0.0-5.0-1.0-0.0-0.0-3.0-0.0-0.0-1.5","2088","motion_test","arrowleft","","true","[""ArrowLeft"",""ArrowRight""]","ArrowLeft","3000","true","1","100","180","0.05","0","3","1","-1","2","300","300","[""hsl(0, 50%, 50%)"",""hsl(225, 50%, 50%)""]","[""white""]","0","0","0","circle","black","3","2","2","16.808","[8,17,17,17,17,16,17,17,17,17,17,17,17,17,16,17,17,17,17,17,17,17,17,17,17,17,17,17,16,17,17,16,17,17,17,17,17,17,17,17,17,16,17,17,17,17,17,17,17,17,17,16,17,16,17,17,17,17,17,17,16,17,16,17,17,17,17,17,17,17,17,17,17,17,17,17,17,17,17,17,17,17,17,17,16,17,17,17,16,17,17,17,17,17,17,17,17,17,17,17,16,18,16,17,17,17,17,17,16,17,17,16,17,17,17,17,17,17,17,16,17,17,17,17,17]","125","960","482","false","20","20","black","1","false","1","1","1920","964","ArrowLeft","staircase_motion","","","","",""
"","","","","","html-keyboard-response","134","2049568","0.0-5.0-1.0-0.0-0.0-3.0-0.0-0.0-2.5","null","","null","<p style='font-size: 60px; color: green'>正确!</p>","","","","","","","","","","","","","","","","","","","","","","","","","","","","","","","","","","","","","","","","","","","","","","","",""
"","","","","","html-keyboard-response","135","2050705","0.0-5.0-1.0-0.0-0.0-3.0-0.0-0.0-0.6","null","fixation","null","<p style='font-size: 48px; color: white'>+</p >","","","","","","","","","","","","","","","","","","","","","","","","","","","","","","","","","","","","","","","","","","","","","","","",""
"","","","","","rdk","136","2052532","0.0-5.0-1.0-0.0-0.0-3.0-0.0-0.0-1.6","1193","motion_test","arrowleft","","false","[""ArrowLeft"",""ArrowRight""]","ArrowRight","3000","true","1","100","0","0.05","0","3","1","-1","2","300","300","[""hsl(0, 50%, 50%)"",""hsl(225, 50%, 50%)""]","[""white""]","0","0","0","circle","black","3","2","2","16.91549295774648","[18,17,17,17,17,17,17,17,17,17,17,16,17,17,17,17,16,17,17,17,17,17,17,17,17,17,16,17,17,17,17,17,17,17,17,17,17,17,17,17,17,17,17,17,17,16,17,17,17,16,17,17,17,17,17,17,17,17,17,16,17,17,17,17,17,17,17,17,17,16,17]","71","960","482","false","20","20","black","1","false","1","1","1920","964","ArrowRight","staircase_motion","","","","",""
"","","","","","html-keyboard-response","137","2053654","0.0-5.0-1.0-0.0-0.0-3.0-0.0-0.0-2.6","null","","null","<p style='font-size: 60px; color: red'>错误!</p>","","","","","","","","","","","","","","","","","","","","","","","","","","","","","","","","","","","","","","","","","","","","","","","",""
"","","","","","html-keyboard-response","138","2054788","0.0-5.0-1.0-0.0-0.0-3.0-0.0-0.0-0.7","null","fixation","null","<p style='font-size: 48px; color: white'>+</p >","","","","","","","","","","","","","","","","","","","","","","","","","","","","","","","","","","","","","","","","","","","","","","","",""
"","","","","","rdk","139","2057084","0.0-5.0-1.0-0.0-0.0-3.0-0.0-0.0-1.7","1675","motion_test","arrowright","","true","[""ArrowLeft"",""ArrowRight""]","ArrowRight","3000","true","1","100","0","0.05","0","3","1","-1","2","300","300","[""hsl(0, 50%, 50%)"",""hsl(225, 50%, 50%)""]","[""white""]","0","0","0","circle","black","3","2","2","16.88","[14,17,17,17,17,17,17,17,17,16,17,17,17,17,17,17,17,17,17,17,17,17,17,17,17,17,17,17,17,17,17,17,16,17,17,17,17,16,17,17,17,17,17,17,17,17,16,17,17,17,16,17,17,17,17,17,17,17,17,17,17,17,17,17,17,17,17,17,17,17,17,16,17,16,17,17,17,17,17,17,17,17,18,16,17,17,16,17,17,17,17,17,17,17,17,16,17,17,17,17]","100","960","482","false","20","20","black","1","false","1","1","1920","964","ArrowRight","staircase_motion","","","","",""
"","","","","","html-keyboard-response","140","2058206","0.0-5.0-1.0-0.0-0.0-3.0-0.0-0.0-2.7","null","","null","<p style='font-size: 60px; color: green'>正确!</p>","","","","","","","","","","","","","","","","","","","","","","","","","","","","","","","","","","","","","","","","","","","","","","","",""
"","","","","","html-keyboard-response","141","2059328","0.0-5.0-1.0-0.0-0.0-3.0-0.0-0.0-0.8","null","fixation","null","<p style='font-size: 48px; color: white'>+</p >","","","","","","","","","","","","","","","","","","","","","","","","","","","","","","","","","","","","","","","","","","","","","","","",""
"","","","","","rdk","142","2061325","0.0-5.0-1.0-0.0-0.0-3.0-0.0-0.0-1.8","1363","motion_test","arrowright","","false","[""ArrowLeft"",""ArrowRight""]","ArrowLeft","3000","true","1","100","180","0.05","0","3","1","-1","2","300","300","[""hsl(0, 50%, 50%)"",""hsl(225, 50%, 50%)""]","[""white""]","0","0","0","circle","black","3","2","2","16.841463414634145","[10,17,17,17,17,17,17,17,17,17,17,17,17,17,17,17,17,17,17,17,17,17,17,17,16,17,17,17,17,17,17,17,17,17,16,17,17,17,16,17,17,17,17,17,17,17,17,17,17,17,16,17,17,17,17,17,17,16,17,17,17,17,17,17,17,17,17,17,17,17,17,17,17,16,17,17,17,17,17,17,17,17]","82","960","482","false","20","20","black","1","false","1","1","1920","964","ArrowLeft","staircase_motion","","","","",""
"","","","","","html-keyboard-response","143","2062457","0.0-5.0-1.0-0.0-0.0-3.0-0.0-0.0-2.8","null","","null","<p style='font-size: 60px; color: red'>错误!</p>","","","","","","","","","","","","","","","","","","","","","","","","","","","","","","","","","","","","","","","","","","","","","","","",""
"","","","","","html-keyboard-response","144","2063584","0.0-5.0-1.0-0.0-0.0-3.0-0.0-0.0-0.9","null","fixation","null","<p style='font-size: 48px; color: white'>+</p >","","","","","","","","","","","","","","","","","","","","","","","","","","","","","","","","","","","","","","","","","","","","","","","",""
"","","","","","rdk","145","2066259","0.0-5.0-1.0-0.0-0.0-3.0-0.0-0.0-1.9","2054","motion_test","arrowright","","true","[""ArrowLeft"",""ArrowRight""]","ArrowRight","3000","true","1","100","0","0.05","0","3","1","-1","2","300","300","[""hsl(0, 50%, 50%)"",""hsl(225, 50%, 50%)""]","[""white""]","0","0","0","circle","black","3","2","2","16.934959349593495","[19,16,17,17,17,17,17,17,16,17,17,17,17,17,17,17,17,17,17,17,17,17,17,17,17,17,17,17,17,17,17,17,17,17,17,17,17,17,17,17,17,17,17,17,16,17,17,17,17,17,17,17,17,17,17,17,17,17,17,17,17,17,17,17,17,17,17,17,17,16,17,17,17,17,17,17,17,17,17,17,17,17,17,17,17,17,16,17,17,17,17,17,17,17,16,17,17,16,17,17,17,17,17,17,17,16,17,17,17,16,17,17,17,17,17,17,17,17,17,17,17,17,16]","123","960","482","false","20","20","black","1","false","1","1","1920","964","ArrowRight","staircase_motion","","","","",""
"","","","","","html-keyboard-response","146","2067390","0.0-5.0-1.0-0.0-0.0-3.0-0.0-0.0-2.9","null","","null","<p style='font-size: 60px; color: green'>正确!</p>","","","","","","","","","","","","","","","","","","","","","","","","","","","","","","","","","","","","","","","","","","","","","","","",""
"","","","","","html-keyboard-response","147","2068511","0.0-5.0-1.0-0.0-0.0-3.0-0.0-0.0-0.10","null","fixation","null","<p style='font-size: 48px; color: white'>+</p >","","","","","","","","","","","","","","","","","","","","","","","","","","","","","","","","","","","","","","","","","","","","","","","",""
"","","","","","rdk","148","2071004","0.0-5.0-1.0-0.0-0.0-3.0-0.0-0.0-1.10","1871","motion_test","arrowright","","false","[""ArrowLeft"",""ArrowRight""]","ArrowLeft","3000","true","1","100","180","0.05","0","3","1","-1","2","300","300","[""hsl(0, 50%, 50%)"",""hsl(225, 50%, 50%)""]","[""white""]","0","0","0","circle","black","3","2","2","16.785714285714285","[7,17,17,17,16,17,17,16,17,17,17,17,17,17,17,16,17,16,17,17,17,17,17,17,16,17,17,17,17,17,17,16,17,17,17,16,17,16,17,17,17,16,17,17,17,17,17,17,17,17,17,17,17,16,17,17,16,17,16,17,17,16,17,17,17,17,17,17,17,17,17,17,17,17,17,17,17,17,17,17,17,17,17,17,17,16,17,17,17,17,17,17,17,17,17,17,17,17,17,17,17,17,17,17,17,17,17,17,17,17,17,17]","112","960","482","false","20","20","black","1","false","1","1","1920","964","ArrowLeft","staircase_motion","","","","",""
"","","","","","html-keyboard-response","149","2072137","0.0-5.0-1.0-0.0-0.0-3.0-0.0-0.0-2.10","null","","null","<p style='font-size: 60px; color: red'>错误!</p>","","","","","","","","","","","","","","","","","","","","","","","","","","","","","","","","","","","","","","","","","","","","","","","",""
"","","","","","html-keyboard-response","150","2073259","0.0-5.0-1.0-0.0-0.0-3.0-0.0-0.0-0.11","null","fixation","null","<p style='font-size: 48px; color: white'>+</p >","","","","","","","","","","","","","","","","","","","","","","","","","","","","","","","","","","","","","","","","","","","","","","","",""
"","","","","","rdk","151","2075204","0.0-5.0-1.0-0.0-0.0-3.0-0.0-0.0-1.11","1323","motion_test","arrowleft","","false","[""ArrowLeft"",""ArrowRight""]","ArrowRight","3000","true","1","100","0","0.05","0","3","1","-1","2","300","300","[""hsl(0, 50%, 50%)"",""hsl(225, 50%, 50%)""]","[""white""]","0","0","0","circle","black","3","2","2","16.734177215189874","[8,17,17,17,17,17,17,16,17,16,17,17,17,17,17,17,16,17,17,17,17,17,16,17,17,16,17,17,17,17,16,17,17,17,17,16,17,16,17,16,17,16,17,17,17,17,16,17,17,17,17,17,17,17,17,17,17,17,17,17,17,17,17,17,17,17,17,16,17,17,17,17,17,17,17,17,17,17,17]","79","960","482","false","20","20","black","1","false","1","1","1920","964","ArrowRight","staircase_motion","","","","",""
"","","","","","html-keyboard-response","152","2076338","0.0-5.0-1.0-0.0-0.0-3.0-0.0-0.0-2.11","null","","null","<p style='font-size: 60px; color: red'>错误!</p>","","","","","","","","","","","","","","","","","","","","","","","","","","","","","","","","","","","","","","","","","","","","","","","",""
"","","","","","html-keyboard-response","153","2078970","0.0-5.0-1.0-0.0-0.0-3.0-0.0-1.0","null","","null","<p style='font-size: 35px; color: white'>您的正确率为： 58% 。平均反应时为：1690毫秒。</p>","","","","","","","","","","","","","","","","","","","","","","","","","","","","","","","","","","","","","","","","","","","","","","","",""
"","","","","","html-keyboard-response","154","2080101","0.0-5.0-1.0-0.0-0.0-4.0-0.0-0.0-0.0","null","fixation","null","<p style='font-size: 48px; color: white'>+</p >","","","","","","","","","","","","","","","","","","","","","","","","","","","","","","","","","","","","","","","","","","","","","","","",""
"","","","","","rdk","155","2082659","0.0-5.0-1.0-0.0-0.0-4.0-0.0-0.0-1.0","1937","motion_test","arrowright","","true","[""ArrowLeft"",""ArrowRight""]","ArrowRight","3000","true","1","100","0","0.09","0","3","1","-1","2","300","300","[""hsl(0, 50%, 50%)"",""hsl(225, 50%, 50%)""]","[""white""]","0","0","0","circle","black","3","2","2","16.939655172413794","[16,17,17,17,17,17,17,17,17,17,17,17,17,17,16,17,17,17,17,17,17,17,17,17,17,17,17,17,17,16,17,17,17,17,17,17,17,17,17,17,17,17,17,17,17,17,17,17,17,16,17,17,17,17,17,17,17,17,17,17,17,17,17,17,17,17,17,17,17,17,17,17,17,16,17,17,17,17,17,16,17,17,17,17,17,17,17,17,17,17,17,17,17,17,17,17,17,17,17,17,17,17,17,17,17,17,17,17,17,17,16,17,17,17,17,17]","116","960","482","false","20","20","black","1","false","1","1","1920","964","ArrowRight","staircase_motion","","","","",""
"","","","","","html-keyboard-response","156","2083789","0.0-5.0-1.0-0.0-0.0-4.0-0.0-0.0-2.0","null","","null","<p style='font-size: 60px; color: green'>正确!</p>","","","","","","","","","","","","","","","","","","","","","","","","","","","","","","","","","","","","","","","","","","","","","","","",""
"","","","","","html-keyboard-response","157","2084923","0.0-5.0-1.0-0.0-0.0-4.0-0.0-0.0-0.1","null","fixation","null","<p style='font-size: 48px; color: white'>+</p >","","","","","","","","","","","","","","","","","","","","","","","","","","","","","","","","","","","","","","","","","","","","","","","",""
"","","","","","rdk","158","2086659","0.0-5.0-1.0-0.0-0.0-4.0-0.0-0.0-1.1","1106","motion_test","arrowleft","","true","[""ArrowLeft"",""ArrowRight""]","ArrowLeft","3000","true","1","100","180","0.09","0","3","1","-1","2","300","300","[""hsl(0, 50%, 50%)"",""hsl(225, 50%, 50%)""]","[""white""]","0","0","0","circle","black","3","2","2","16.597014925373134","[3,17,17,17,16,17,17,17,17,17,17,17,17,17,17,17,16,17,17,16,17,17,16,17,17,17,17,17,17,17,17,17,17,17,17,16,17,17,17,16,17,17,16,17,17,17,17,17,17,17,17,16,17,17,17,16,17,17,17,16,17,17,16,17,16,17,16]","67","960","482","false","20","20","black","1","false","1","1","1920","964","ArrowLeft","staircase_motion","","","","",""
"","","","","","html-keyboard-response","159","2087789","0.0-5.0-1.0-0.0-0.0-4.0-0.0-0.0-2.1","null","","null","<p style='font-size: 60px; color: green'>正确!</p>","","","","","","","","","","","","","","","","","","","","","","","","","","","","","","","","","","","","","","","","","","","","","","","",""
"","","","","","html-keyboard-response","160","2088935","0.0-5.0-1.0-0.0-0.0-4.0-0.0-0.0-0.2","null","fixation","null","<p style='font-size: 48px; color: white'>+</p >","","","","","","","","","","","","","","","","","","","","","","","","","","","","","","","","","","","","","","","","","","","","","","","",""
"","","","","","rdk","161","2090572","0.0-5.0-1.0-0.0-0.0-4.0-0.0-0.0-1.2","1003","motion_test","arrowleft","","true","[""ArrowLeft"",""ArrowRight""]","ArrowLeft","3000","true","1","100","180","0.09","0","3","1","-1","2","300","300","[""hsl(0, 50%, 50%)"",""hsl(225, 50%, 50%)""]","[""white""]","0","0","0","circle","black","3","2","2","16.483333333333334","[4,17,17,16,17,16,17,17,17,17,17,16,17,17,16,17,16,17,16,17,17,17,16,17,17,17,17,17,16,17,17,16,17,17,16,18,16,17,16,17,17,16,17,17,16,17,16,17,16,17,16,17,17,17,17,17,16,17,16,17]","60","960","482","false","20","20","black","1","false","1","1","1920","964","ArrowLeft","staircase_motion","","","","",""
"","","","","","html-keyboard-response","162","2091704","0.0-5.0-1.0-0.0-0.0-4.0-0.0-0.0-2.2","null","","null","<p style='font-size: 60px; color: green'>正确!</p>","","","","","","","","","","","","","","","","","","","","","","","","","","","","","","","","","","","","","","","","","","","","","","","",""
"","","","","","html-keyboard-response","163","2092826","0.0-5.0-1.0-0.0-0.0-4.0-0.0-0.0-0.3","null","fixation","null","<p style='font-size: 48px; color: white'>+</p >","","","","","","","","","","","","","","","","","","","","","","","","","","","","","","","","","","","","","","","","","","","","","","","",""
"","","","","","rdk","164","2095652","0.0-5.0-1.0-0.0-0.0-4.0-0.0-0.0-1.3","2205","motion_test","arrowright","","true","[""ArrowLeft"",""ArrowRight""]","ArrowRight","3000","true","1","100","0","0.09","0","3","1","-1","2","300","300","[""hsl(0, 50%, 50%)"",""hsl(225, 50%, 50%)""]","[""white""]","0","0","0","circle","black","3","2","2","16.818181818181817","[9,17,17,17,17,17,17,16,17,17,17,17,17,17,17,16,17,17,17,17,17,17,17,17,16,17,17,17,16,17,17,17,17,17,17,17,17,17,17,16,17,17,17,17,17,16,17,17,17,17,17,16,17,17,17,16,17,16,17,17,17,16,17,17,17,17,17,17,17,17,17,16,17,17,17,17,16,17,17,17,17,16,17,17,17,17,17,17,17,17,17,17,17,17,17,17,17,17,17,17,17,17,17,17,17,17,16,17,17,17,17,17,17,17,17,16,17,17,17,17,17,17,17,17,17,17,17,17,17,17,17,16]","132","960","482","false","20","20","black","1","false","1","1","1920","964","ArrowRight","staircase_motion","","","","",""
"","","","","","html-keyboard-response","165","2096794","0.0-5.0-1.0-0.0-0.0-4.0-0.0-0.0-2.3","null","","null","<p style='font-size: 60px; color: green'>正确!</p>","","","","","","","","","","","","","","","","","","","","","","","","","","","","","","","","","","","","","","","","","","","","","","","",""
"","","","","","html-keyboard-response","166","2097915","0.0-5.0-1.0-0.0-0.0-4.0-0.0-0.0-0.4","null","fixation","null","<p style='font-size: 48px; color: white'>+</p >","","","","","","","","","","","","","","","","","","","","","","","","","","","","","","","","","","","","","","","","","","","","","","","",""
"","","","","","rdk","167","2099419","0.0-5.0-1.0-0.0-0.0-4.0-0.0-0.0-1.4","882","motion_test","arrowleft","","true","[""ArrowLeft"",""ArrowRight""]","ArrowLeft","3000","true","1","100","180","0.09","0","3","1","-1","2","300","300","[""hsl(0, 50%, 50%)"",""hsl(225, 50%, 50%)""]","[""white""]","0","0","0","circle","black","3","2","2","16.660377358490567","[4,15,17,17,17,17,16,17,17,17,17,17,17,17,17,17,17,17,17,17,17,17,17,17,17,16,17,17,16,17,17,17,17,17,17,17,17,17,17,17,17,17,17,17,17,17,17,17,17,17,17,17,17]","53","960","482","false","20","20","black","1","false","1","1","1920","964","ArrowLeft","staircase_motion","","","","",""
"","","","","","html-keyboard-response","168","2100569","0.0-5.0-1.0-0.0-0.0-4.0-0.0-0.0-2.4","null","","null","<p style='font-size: 60px; color: green'>正确!</p>","","","","","","","","","","","","","","","","","","","","","","","","","","","","","","","","","","","","","","","","","","","","","","","",""
"","","","","","html-keyboard-response","169","2101698","0.0-5.0-1.0-0.0-0.0-4.0-0.0-0.0-0.5","null","fixation","null","<p style='font-size: 48px; color: white'>+</p >","","","","","","","","","","","","","","","","","","","","","","","","","","","","","","","","","","","","","","","","","","","","","","","",""
"","","","","","rdk","170","2103140","0.0-5.0-1.0-0.0-0.0-4.0-0.0-0.0-1.5","818","motion_test","arrowright","","true","[""ArrowLeft"",""ArrowRight""]","ArrowRight","3000","true","1","100","0","0.09","0","3","1","-1","2","300","300","[""hsl(0, 50%, 50%)"",""hsl(225, 50%, 50%)""]","[""white""]","0","0","0","circle","black","3","2","2","16.895833333333332","[18,16,17,17,17,17,17,17,17,17,17,17,17,17,17,17,17,17,17,17,17,17,17,17,16,17,17,17,17,17,17,16,17,17,16,17,17,16,17,17,17,17,16,17,17,17,17,17]","48","960","482","false","20","20","black","1","false","1","1","1920","964","ArrowRight","staircase_motion","","","","",""
"","","","","","html-keyboard-response","171","2104289","0.0-5.0-1.0-0.0-0.0-4.0-0.0-0.0-2.5","null","","null","<p style='font-size: 60px; color: green'>正确!</p>","","","","","","","","","","","","","","","","","","","","","","","","","","","","","","","","","","","","","","","","","","","","","","","",""
"","","","","","html-keyboard-response","172","2105410","0.0-5.0-1.0-0.0-0.0-4.0-0.0-0.0-0.6","null","fixation","null","<p style='font-size: 48px; color: white'>+</p >","","","","","","","","","","","","","","","","","","","","","","","","","","","","","","","","","","","","","","","","","","","","","","","",""
"","","","","","rdk","173","2107876","0.0-5.0-1.0-0.0-0.0-4.0-0.0-0.0-1.6","1838","motion_test","arrowleft","","false","[""ArrowLeft"",""ArrowRight""]","ArrowRight","3000","true","1","100","0","0.09","0","3","1","-1","2","300","300","[""hsl(0, 50%, 50%)"",""hsl(225, 50%, 50%)""]","[""white""]","0","0","0","circle","black","3","2","2","16.675675675675677","[2,17,17,17,17,17,17,16,17,17,17,17,17,16,17,17,17,17,17,16,17,17,17,17,16,17,17,16,17,16,17,17,16,17,16,17,17,17,17,17,17,17,16,17,17,17,16,17,16,17,17,17,17,16,17,17,17,17,16,17,16,17,17,16,17,17,17,17,17,17,16,17,17,17,17,17,17,17,17,17,16,17,17,17,16,17,17,17,17,17,17,16,17,17,17,17,17,17,17,17,17,17,17,17,16,17,17,17,17,16,17]","111","960","482","false","20","20","black","1","false","1","1","1920","964","ArrowRight","staircase_motion","","","","",""
"","","","","","html-keyboard-response","174","2109006","0.0-5.0-1.0-0.0-0.0-4.0-0.0-0.0-2.6","null","","null","<p style='font-size: 60px; color: red'>错误!</p>","","","","","","","","","","","","","","","","","","","","","","","","","","","","","","","","","","","","","","","","","","","","","","","",""
"","","","","","html-keyboard-response","175","2110133","0.0-5.0-1.0-0.0-0.0-4.0-0.0-0.0-0.7","null","fixation","null","<p style='font-size: 48px; color: white'>+</p >","","","","","","","","","","","","","","","","","","","","","","","","","","","","","","","","","","","","","","","","","","","","","","","",""
"","","","","","rdk","176","2112076","0.0-5.0-1.0-0.0-0.0-4.0-0.0-0.0-1.7","1321","motion_test","arrowleft","","true","[""ArrowLeft"",""ArrowRight""]","ArrowLeft","3000","true","1","100","180","0.09","0","3","1","-1","2","300","300","[""hsl(0, 50%, 50%)"",""hsl(225, 50%, 50%)""]","[""white""]","0","0","0","circle","black","3","2","2","16.6375","[1,17,17,17,17,17,16,17,17,17,17,16,17,17,17,17,17,17,17,17,16,17,17,17,17,17,17,16,17,16,17,16,17,17,17,17,17,17,17,17,17,17,17,17,16,17,17,17,17,17,17,16,17,17,17,17,17,17,17,17,16,17,17,17,17,16,17,17,17,16,17,17,16,17,17,17,17,17,16,17]","80","960","482","false","20","20","black","1","false","1","1","1920","964","ArrowLeft","staircase_motion","","","","",""
"","","","","","html-keyboard-response","177","2113206","0.0-5.0-1.0-0.0-0.0-4.0-0.0-0.0-2.7","null","","null","<p style='font-size: 60px; color: green'>正确!</p>","","","","","","","","","","","","","","","","","","","","","","","","","","","","","","","","","","","","","","","","","","","","","","","",""
"","","","","","html-keyboard-response","178","2114332","0.0-5.0-1.0-0.0-0.0-4.0-0.0-0.0-0.8","null","fixation","null","<p style='font-size: 48px; color: white'>+</p >","","","","","","","","","","","","","","","","","","","","","","","","","","","","","","","","","","","","","","","","","","","","","","","",""
"","","","","","rdk","179","2115884","0.0-5.0-1.0-0.0-0.0-4.0-0.0-0.0-1.8","931","motion_test","arrowleft","","true","[""ArrowLeft"",""ArrowRight""]","ArrowLeft","3000","true","1","100","180","0.09","0","3","1","-1","2","300","300","[""hsl(0, 50%, 50%)"",""hsl(225, 50%, 50%)""]","[""white""]","0","0","0","circle","black","3","2","2","16.660714285714285","[5,16,17,17,17,16,17,17,16,17,17,17,17,16,17,17,17,17,17,17,17,17,17,17,17,17,17,17,17,17,17,17,17,16,17,16,17,17,17,17,17,17,17,17,17,17,17,17,17,17,17,17,17,17,16,17]","56","960","482","false","20","20","black","1","false","1","1","1920","964","ArrowLeft","staircase_motion","","","","",""
"","","","","","html-keyboard-response","180","2117006","0.0-5.0-1.0-0.0-0.0-4.0-0.0-0.0-2.8","null","","null","<p style='font-size: 60px; color: green'>正确!</p>","","","","","","","","","","","","","","","","","","","","","","","","","","","","","","","","","","","","","","","","","","","","","","","",""
"","","","","","html-keyboard-response","181","2118133","0.0-5.0-1.0-0.0-0.0-4.0-0.0-0.0-0.9","null","fixation","null","<p style='font-size: 48px; color: white'>+</p >","","","","","","","","","","","","","","","","","","","","","","","","","","","","","","","","","","","","","","","","","","","","","","","",""
"","","","","","rdk","182","2120868","0.0-5.0-1.0-0.0-0.0-4.0-0.0-0.0-1.9","2114","motion_test","arrowleft","","false","[""ArrowLeft"",""ArrowRight""]","ArrowRight","3000","true","1","100","0","0.09","0","3","1","-1","2","300","300","[""hsl(0, 50%, 50%)"",""hsl(225, 50%, 50%)""]","[""white""]","0","0","0","circle","black","3","2","2","16.68503937007874","[2,17,17,16,17,17,17,17,17,17,17,17,17,17,17,16,17,17,16,17,17,17,16,17,16,17,16,17,17,17,17,17,17,16,17,17,16,17,17,17,17,17,16,17,16,17,17,17,16,17,17,16,17,17,17,16,17,17,17,17,17,17,16,17,17,16,17,17,17,17,17,17,17,17,17,17,17,17,17,16,17,17,17,17,17,17,17,16,17,17,16,17,17,17,17,17,17,17,17,17,17,16,17,17,16,17,17,17,17,17,17,17,17,17,16,17,16,17,16,17,16,17,16,17,17,17,17]","127","960","482","false","20","20","black","1","false","1","1","1920","964","ArrowRight","staircase_motion","","","","",""
"","","","","","html-keyboard-response","183","2121990","0.0-5.0-1.0-0.0-0.0-4.0-0.0-0.0-2.9","null","","null","<p style='font-size: 60px; color: red'>错误!</p>","","","","","","","","","","","","","","","","","","","","","","","","","","","","","","","","","","","","","","","","","","","","","","","",""
"","","","","","html-keyboard-response","184","2123134","0.0-5.0-1.0-0.0-0.0-4.0-0.0-0.0-0.10","null","fixation","null","<p style='font-size: 48px; color: white'>+</p >","","","","","","","","","","","","","","","","","","","","","","","","","","","","","","","","","","","","","","","","","","","","","","","",""
"","","","","","rdk","185","2125380","0.0-5.0-1.0-0.0-0.0-4.0-0.0-0.0-1.10","1625","motion_test","arrowleft","","true","[""ArrowLeft"",""ArrowRight""]","ArrowLeft","3000","true","1","100","180","0.09","0","3","1","-1","2","300","300","[""hsl(0, 50%, 50%)"",""hsl(225, 50%, 50%)""]","[""white""]","0","0","0","circle","black","3","2","2","16.632653061224488","[1,17,17,17,17,16,17,17,17,17,17,16,17,16,17,17,17,17,17,16,17,16,17,17,17,17,17,16,17,17,16,17,17,17,17,17,16,17,16,17,17,17,17,17,17,17,17,17,17,17,16,17,16,17,17,17,16,17,16,17,16,17,17,17,17,17,16,17,17,17,17,17,17,17,17,17,17,16,17,16,17,17,17,17,17,16,17,17,17,16,17,17,17,17,17,16,17,17]","98","960","482","false","20","20","black","1","false","1","1","1920","964","ArrowLeft","staircase_motion","","","","",""
"","","","","","html-keyboard-response","186","2126506","0.0-5.0-1.0-0.0-0.0-4.0-0.0-0.0-2.10","null","","null","<p style='font-size: 60px; color: green'>正确!</p>","","","","","","","","","","","","","","","","","","","","","","","","","","","","","","","","","","","","","","","","","","","","","","","",""
"","","","","","html-keyboard-response","187","2127627","0.0-5.0-1.0-0.0-0.0-4.0-0.0-0.0-0.11","null","fixation","null","<p style='font-size: 48px; color: white'>+</p >","","","","","","","","","","","","","","","","","","","","","","","","","","","","","","","","","","","","","","","","","","","","","","","",""
"","","","","","rdk","188","2129156","0.0-5.0-1.0-0.0-0.0-4.0-0.0-0.0-1.11","907","motion_test","arrowright","","true","[""ArrowLeft"",""ArrowRight""]","ArrowRight","3000","true","1","100","0","0.09","0","3","1","-1","2","300","300","[""hsl(0, 50%, 50%)"",""hsl(225, 50%, 50%)""]","[""white""]","0","0","0","circle","black","3","2","2","16.75925925925926","[8,17,17,17,16,17,17,17,17,16,17,17,17,17,17,17,17,17,17,16,17,17,17,17,17,17,17,17,17,17,17,17,17,17,17,17,17,17,17,17,17,17,17,17,17,17,17,17,17,16,17,17,17,17]","54","960","482","false","20","20","black","1","false","1","1","1920","964","ArrowRight","staircase_motion","","","","",""
"","","","","","html-keyboard-response","189","2130288","0.0-5.0-1.0-0.0-0.0-4.0-0.0-0.0-2.11","null","","null","<p style='font-size: 60px; color: green'>正确!</p>","","","","","","","","","","","","","","","","","","","","","","","","","","","","","","","","","","","","","","","","","","","","","","","",""
"","","","","","html-keyboard-response","190","2131980","0.0-5.0-1.0-0.0-0.0-4.0-0.0-1.0","1071",""," ","<p style='font-size: 35px; color: white'>您的正确率为： 83% 。平均反应时为：1391毫秒。</p>","","","","","","","","","","","","","","","","","","","","","","","","","","","","","","","","","","","","","","","","","","","","","","","",""
"","","","","","html-keyboard-response","191","2133110","0.0-5.0-1.0-0.0-0.0-5.0-0.0-0.0-0.0","null","fixation","null","<p style='font-size: 48px; color: white'>+</p >","","","","","","","","","","","","","","","","","","","","","","","","","","","","","","","","","","","","","","","","","","","","","","","",""
"","","","","","rdk","192","2134556","0.0-5.0-1.0-0.0-0.0-5.0-0.0-0.0-1.0","811","motion_test","arrowleft","","true","[""ArrowLeft"",""ArrowRight""]","ArrowLeft","3000","true","1","100","180","0.11","0","3","1","-1","2","300","300","[""hsl(0, 50%, 50%)"",""hsl(225, 50%, 50%)""]","[""white""]","0","0","0","circle","black","3","2","2","16.791666666666668","[12,17,17,17,17,16,17,17,16,17,17,17,17,17,17,17,17,17,17,17,17,17,16,17,17,17,17,17,17,17,16,17,17,17,17,17,17,17,17,17,17,17,17,17,17,16,17,17]","48","960","482","false","20","20","black","1","false","1","1","1920","964","ArrowLeft","staircase_motion","","","","",""
"","","","","","html-keyboard-response","193","2135685","0.0-5.0-1.0-0.0-0.0-5.0-0.0-0.0-2.0","null","","null","<p style='font-size: 60px; color: green'>正确!</p>","","","","","","","","","","","","","","","","","","","","","","","","","","","","","","","","","","","","","","","","","","","","","","","",""
"","","","","","html-keyboard-response","194","2136817","0.0-5.0-1.0-0.0-0.0-5.0-0.0-0.0-0.1","null","fixation","null","<p style='font-size: 48px; color: white'>+</p >","","","","","","","","","","","","","","","","","","","","","","","","","","","","","","","","","","","","","","","","","","","","","","","",""
"","","","","","rdk","195","2138996","0.0-5.0-1.0-0.0-0.0-5.0-0.0-0.0-1.1","1546","motion_test","arrowright","","true","[""ArrowLeft"",""ArrowRight""]","ArrowRight","3000","true","1","100","0","0.11","0","3","1","-1","2","300","300","[""hsl(0, 50%, 50%)"",""hsl(225, 50%, 50%)""]","[""white""]","0","0","0","circle","black","3","2","2","16.806451612903224","[7,17,17,17,17,17,17,17,17,17,17,17,17,16,17,17,17,17,17,16,17,17,17,17,17,17,17,17,17,17,17,17,16,17,17,17,16,17,17,16,17,17,17,17,16,17,17,17,17,17,17,17,17,17,17,17,17,17,16,17,17,17,17,17,17,17,17,17,17,17,17,17,17,16,17,17,17,17,17,17,17,17,17,17,17,17,17,17,17,17,17,17,17]","93","960","482","false","20","20","black","1","false","1","1","1920","964","ArrowRight","staircase_motion","","","","",""
"","","","","","html-keyboard-response","196","2140122","0.0-5.0-1.0-0.0-0.0-5.0-0.0-0.0-2.1","null","","null","<p style='font-size: 60px; color: green'>正确!</p>","","","","","","","","","","","","","","","","","","","","","","","","","","","","","","","","","","","","","","","","","","","","","","","",""
"","","","","","html-keyboard-response","197","2141253","0.0-5.0-1.0-0.0-0.0-5.0-0.0-0.0-0.2","null","fixation","null","<p style='font-size: 48px; color: white'>+</p >","","","","","","","","","","","","","","","","","","","","","","","","","","","","","","","","","","","","","","","","","","","","","","","",""
"","","","","","rdk","198","2143852","0.0-5.0-1.0-0.0-0.0-5.0-0.0-0.0-1.2","1978","motion_test","arrowleft","","false","[""ArrowLeft"",""ArrowRight""]","ArrowRight","3000","true","1","100","0","0.11","0","3","1","-1","2","300","300","[""hsl(0, 50%, 50%)"",""hsl(225, 50%, 50%)""]","[""white""]","0","0","0","circle","black","3","2","2","16.89830508474576","[15,17,17,17,17,17,17,17,17,17,17,17,17,17,17,17,17,17,17,17,17,17,17,17,17,17,16,17,17,17,17,17,17,17,17,17,17,17,16,17,17,17,17,17,16,17,17,17,17,17,16,17,17,16,17,17,17,17,17,17,17,17,17,17,17,17,17,17,17,17,17,17,16,17,17,17,17,17,17,17,17,17,17,17,17,17,17,16,17,17,17,17,17,17,17,17,16,17,17,17,17,16,17,17,17,17,17,17,17,17,17,17,17,16,17,17,17,17]","118","960","482","false","20","20","black","1","false","1","1","1920","964","ArrowRight","staircase_motion","","","","",""
"","","","","","html-keyboard-response","199","2144987","0.0-5.0-1.0-0.0-0.0-5.0-0.0-0.0-2.2","null","","null","<p style='font-size: 60px; color: red'>错误!</p>","","","","","","","","","","","","","","","","","","","","","","","","","","","","","","","","","","","","","","","","","","","","","","","",""
"","","","","","html-keyboard-response","200","2146108","0.0-5.0-1.0-0.0-0.0-5.0-0.0-0.0-0.3","null","fixation","null","<p style='font-size: 48px; color: white'>+</p >","","","","","","","","","","","","","","","","","","","","","","","","","","","","","","","","","","","","","","","","","","","","","","","",""
"","","","","","rdk","201","2147692","0.0-5.0-1.0-0.0-0.0-5.0-0.0-0.0-1.3","951","motion_test","arrowleft","","true","[""ArrowLeft"",""ArrowRight""]","ArrowLeft","3000","true","1","100","180","0.11","0","3","1","-1","2","300","300","[""hsl(0, 50%, 50%)"",""hsl(225, 50%, 50%)""]","[""white""]","0","0","0","circle","black","3","2","2","16.82456140350877","[16,17,17,17,16,17,16,17,17,16,17,17,17,17,17,17,17,17,17,17,17,17,17,17,17,17,17,17,17,17,17,17,17,17,16,17,17,17,17,17,17,17,17,17,17,16,17,16,17,16,17,17,17,16,17,16,17]","57","960","482","false","20","20","black","1","false","1","1","1920","964","ArrowLeft","staircase_motion","","","","",""
"","","","","","html-keyboard-response","202","2148822","0.0-5.0-1.0-0.0-0.0-5.0-0.0-0.0-2.3","null","","null","<p style='font-size: 60px; color: green'>正确!</p>","","","","","","","","","","","","","","","","","","","","","","","","","","","","","","","","","","","","","","","","","","","","","","","",""
"","","","","","html-keyboard-response","203","2149968","0.0-5.0-1.0-0.0-0.0-5.0-0.0-0.0-0.4","null","fixation","null","<p style='font-size: 48px; color: white'>+</p >","","","","","","","","","","","","","","","","","","","","","","","","","","","","","","","","","","","","","","","","","","","","","","","",""
"","","","","","rdk","204","2152180","0.0-5.0-1.0-0.0-0.0-5.0-0.0-0.0-1.4","1580","motion_test","arrowright","","true","[""ArrowLeft"",""ArrowRight""]","ArrowRight","3000","true","1","100","0","0.11","0","3","1","-1","2","300","300","[""hsl(0, 50%, 50%)"",""hsl(225, 50%, 50%)""]","[""white""]","0","0","0","circle","black","3","2","2","16.652631578947368","[6,17,17,17,16,17,17,17,17,17,17,17,17,17,17,16,17,16,17,16,17,16,16,17,17,17,17,17,17,17,17,17,17,17,17,17,17,17,17,17,17,17,16,17,17,17,16,17,17,17,17,17,16,17,16,17,16,17,16,17,17,17,16,17,17,16,17,17,17,17,16,17,17,17,17,16,17,17,17,17,16,17,16,17,17,16,17,17,16,17,16,17,17,16,17]","95","960","482","false","20","20","black","1","false","1","1","1920","964","ArrowRight","staircase_motion","","","","",""
"","","","","","html-keyboard-response","205","2153320","0.0-5.0-1.0-0.0-0.0-5.0-0.0-0.0-2.4","null","","null","<p style='font-size: 60px; color: green'>正确!</p>","","","","","","","","","","","","","","","","","","","","","","","","","","","","","","","","","","","","","","","","","","","","","","","",""
"","","","","","html-keyboard-response","206","2154455","0.0-5.0-1.0-0.0-0.0-5.0-0.0-0.0-0.5","null","fixation","null","<p style='font-size: 48px; color: white'>+</p >","","","","","","","","","","","","","","","","","","","","","","","","","","","","","","","","","","","","","","","","","","","","","","","",""
"","","","","","rdk","207","2156780","0.0-5.0-1.0-0.0-0.0-5.0-0.0-0.0-1.5","1694","motion_test","arrowleft","","false","[""ArrowLeft"",""ArrowRight""]","ArrowRight","3000","true","1","100","0","0.11","0","3","1","-1","2","300","300","[""hsl(0, 50%, 50%)"",""hsl(225, 50%, 50%)""]","[""white""]","0","0","0","circle","black","3","2","2","16.676470588235293","[3,17,16,17,16,17,17,17,17,17,17,17,17,17,17,16,17,17,17,16,17,17,17,17,17,17,17,17,17,17,17,17,16,17,17,16,17,17,16,17,17,16,17,17,16,17,17,17,17,16,17,16,17,17,17,17,17,17,16,17,17,17,17,17,17,17,16,17,17,17,17,17,16,17,17,17,17,17,17,17,16,17,16,17,17,17,17,16,17,17,17,17,17,16,17,17,17,17,16,17,17,17]","102","960","482","false","20","20","black","1","false","1","1","1920","964","ArrowRight","staircase_motion","","","","",""
"","","","","","html-keyboard-response","208","2157917","0.0-5.0-1.0-0.0-0.0-5.0-0.0-0.0-2.5","null","","null","<p style='font-size: 60px; color: red'>错误!</p>","","","","","","","","","","","","","","","","","","","","","","","","","","","","","","","","","","","","","","","","","","","","","","","",""
"","","","","","html-keyboard-response","209","2159054","0.0-5.0-1.0-0.0-0.0-5.0-0.0-0.0-0.6","null","fixation","null","<p style='font-size: 48px; color: white'>+</p >","","","","","","","","","","","","","","","","","","","","","","","","","","","","","","","","","","","","","","","","","","","","","","","",""
"","","","","","rdk","210","2161444","0.0-5.0-1.0-0.0-0.0-5.0-0.0-0.0-1.6","1769","motion_test","arrowleft","","true","[""ArrowLeft"",""ArrowRight""]","ArrowLeft","3000","true","1","100","180","0.11","0","3","1","-1","2","300","300","[""hsl(0, 50%, 50%)"",""hsl(225, 50%, 50%)""]","[""white""]","0","0","0","circle","black","3","2","2","16.830188679245282","[15,17,17,17,17,17,17,17,17,17,17,17,17,17,17,16,17,17,16,17,17,17,16,17,17,17,17,17,17,17,17,16,17,17,16,17,17,17,17,16,17,17,17,17,17,17,16,17,17,17,17,17,16,17,16,17,17,17,17,17,16,17,17,17,17,17,17,17,17,17,16,17,17,17,17,17,16,17,17,17,17,16,17,17,17,16,17,17,17,17,17,16,17,16,17,17,17,17,17,17,17,17,17,17,17,17]","106","960","482","false","20","20","black","1","false","1","1","1920","964","ArrowLeft","staircase_motion","","","","",""
"","","","","","html-keyboard-response","211","2162572","0.0-5.0-1.0-0.0-0.0-5.0-0.0-0.0-2.6","null","","null","<p style='font-size: 60px; color: green'>正确!</p>","","","","","","","","","","","","","","","","","","","","","","","","","","","","","","","","","","","","","","","","","","","","","","","",""
"","","","","","html-keyboard-response","212","2163694","0.0-5.0-1.0-0.0-0.0-5.0-0.0-0.0-0.7","null","fixation","null","<p style='font-size: 48px; color: white'>+</p >","","","","","","","","","","","","","","","","","","","","","","","","","","","","","","","","","","","","","","","","","","","","","","","",""
"","","","","","rdk","213","2165220","0.0-5.0-1.0-0.0-0.0-5.0-0.0-0.0-1.7","895","motion_test","arrowleft","","true","[""ArrowLeft"",""ArrowRight""]","ArrowLeft","3000","true","1","100","180","0.11","0","3","1","-1","2","300","300","[""hsl(0, 50%, 50%)"",""hsl(225, 50%, 50%)""]","[""white""]","0","0","0","circle","black","3","2","2","16.867924528301888","[15,17,17,17,17,17,17,17,17,17,17,17,16,17,16,17,17,17,17,17,17,17,17,16,17,17,17,17,17,17,17,17,17,17,17,17,16,17,17,17,17,17,16,17,17,17,17,17,17,17,17,17,17]","53","960","482","false","20","20","black","1","false","1","1","1920","964","ArrowLeft","staircase_motion","","","","",""
"","","","","","html-keyboard-response","214","2166358","0.0-5.0-1.0-0.0-0.0-5.0-0.0-0.0-2.7","null","","null","<p style='font-size: 60px; color: green'>正确!</p>","","","","","","","","","","","","","","","","","","","","","","","","","","","","","","","","","","","","","","","","","","","","","","","",""
"","","","","","html-keyboard-response","215","2167479","0.0-5.0-1.0-0.0-0.0-5.0-0.0-0.0-0.8","null","fixation","null","<p style='font-size: 48px; color: white'>+</p >","","","","","","","","","","","","","","","","","","","","","","","","","","","","","","","","","","","","","","","","","","","","","","","",""
"","","","","","rdk","216","2168900","0.0-5.0-1.0-0.0-0.0-5.0-0.0-0.0-1.8","796","motion_test","arrowright","","true","[""ArrowLeft"",""ArrowRight""]","ArrowRight","3000","true","1","100","0","0.11","0","3","1","-1","2","300","300","[""hsl(0, 50%, 50%)"",""hsl(225, 50%, 50%)""]","[""white""]","0","0","0","circle","black","3","2","2","16.645833333333332","[4,15,17,17,17,17,17,17,17,17,17,17,17,17,17,17,17,16,17,17,17,17,17,17,17,17,17,17,17,17,16,17,17,17,17,17,17,17,17,17,17,17,17,17,17,17,17,17]","48","960","482","false","20","20","black","1","false","1","1","1920","964","ArrowRight","staircase_motion","","","","",""
"","","","","","html-keyboard-response","217","2170023","0.0-5.0-1.0-0.0-0.0-5.0-0.0-0.0-2.8","null","","null","<p style='font-size: 60px; color: green'>正确!</p>","","","","","","","","","","","","","","","","","","","","","","","","","","","","","","","","","","","","","","","","","","","","","","","",""
"","","","","","html-keyboard-response","218","2171163","0.0-5.0-1.0-0.0-0.0-5.0-0.0-0.0-0.9","null","fixation","null","<p style='font-size: 48px; color: white'>+</p >","","","","","","","","","","","","","","","","","","","","","","","","","","","","","","","","","","","","","","","","","","","","","","","",""
"","","","","","rdk","219","2172508","0.0-5.0-1.0-0.0-0.0-5.0-0.0-0.0-1.9","723","motion_test","arrowleft","","true","[""ArrowLeft"",""ArrowRight""]","ArrowLeft","3000","true","1","100","180","0.11","0","3","1","-1","2","300","300","[""hsl(0, 50%, 50%)"",""hsl(225, 50%, 50%)""]","[""white""]","0","0","0","circle","black","3","2","2","16.681818181818183","[4,17,17,17,17,17,17,16,17,17,17,17,17,17,17,17,17,17,17,17,17,17,17,17,17,17,17,17,17,17,17,17,17,17,17,17,17,17,17,17,17,17,17,17]","44","960","482","false","20","20","black","1","false","1","1","1920","964","ArrowLeft","staircase_motion","","","","",""
"","","","","","html-keyboard-response","220","2173635","0.0-5.0-1.0-0.0-0.0-5.0-0.0-0.0-2.9","null","","null","<p style='font-size: 60px; color: green'>正确!</p>","","","","","","","","","","","","","","","","","","","","","","","","","","","","","","","","","","","","","","","","","","","","","","","",""
"","","","","","html-keyboard-response","221","2174758","0.0-5.0-1.0-0.0-0.0-5.0-0.0-0.0-0.10","null","fixation","null","<p style='font-size: 48px; color: white'>+</p >","","","","","","","","","","","","","","","","","","","","","","","","","","","","","","","","","","","","","","","","","","","","","","","",""
