"success","timeout","failed_images","failed_audio","failed_video","trial_type","trial_index","time_elapsed","internal_node_id","rt","part","response","stimulus","correct","choices","correct_choice","trial_duration","response_ends_trial","number_of_apertures","number_of_dots","coherent_direction","coherence","opposite_coherence","dot_radius","dot_side_length","dot_life","move_distance","aperture_width","aperture_height","dot_color","dot_color_final","color_change_delay","target_color_proportion","motion_change_delay","dot_shape","background_color","RDK_type","aperture_type","reinsert_type","frame_rate","frame_rate_array","number_of_frames","aperture_center_x","aperture_center_y","fixation_cross","fixation_cross_width","fixation_cross_height","fixation_cross_color","fixation_cross_thickness","border","border_thickness","border_color","canvas_width","canvas_height","correct_response","data_label","task","difficulty","isMatch","association","label"
"true","false","[]","[]","[]","preload","0","6","0.0-0.0","","","","","","","","","","","","","","","","","","","","","","","","","","","","","","","","","","","","","","","","","","","","","","","","","","","",""
"true","","","","","fullscreen","1","94461","0.0-1.0","92935","fullScreen","","","","","","","","","","","","","","","","","","","","","","","","","","","","","","","","","","","","","","","","","","","","","","","","","",""
"","","","","","survey","2","105442","0.0-2.0","10432","survey","{""sex"":""女"",""age"":23,""hands"":""右"",""color_blindness"":""都不是""}","","","","","","","","","","","","","","","","","","","","","","","","","","","","","","","","","","","","","","","","","","","","","","","","",""
"","","","","","survey-text","3","114279","0.0-3.0","8320","color_test","{""Q0"":""be""}","","","","","","","","","","","","","","","","","","","","","","","","","","","","","","","","","","","","","","","","","","","","","","","","",""
"","","","","","html-keyboard-response","4","117568","0.0-4.0","2782","instruction_beginning"," ","
      <div style=""text-align: left; color: white"">
        <h3 style=""text-align: center; font-size: 30px; margin: 0;"">欢迎参与本实验</h3>
          <p>为充分保障您的权利，请确保您已经知晓并同意《参与实验同意书》以及《数据公开知情同意书》，</p>
          <p>如果您未见过上述内容，请咨询实验员 ，</p>
          <p>如果您选择继续实验，则表示您已经清楚两份知情同意书的内容并同意 。</p>
          <p>在整个实验中，您需要完成两项任务，具体的任务要求会在后面说明 ，</p>
          <p>请按空格键进入实验</p >
      </div>","","","","","","","","","","","","","","","","","","","","","","","","","","","","","","","","","","","","","","","","","","","","","","","",""
"","","","","","html-keyboard-response","5","140080","0.0-5.0-0.0","22010","instruction_getThreshold"," ","
      <div style=""text-align: left; color: white; padding: 10px""> 
        <h3 style=""text-align: center; font-size: 30px; margin: 10px"">欢迎进入实验！</h3>
        <p>在正式开始前，我们将通过一个快速测试为您打造专属的难度水平。<p>
        <p>接下来，屏幕上会呈现一些运动的彩色圆点，</p>
        <p>大约 <span style=""font-weight: bold"">0.2秒</span> 后会有一定比例的点 <span style=""font-weight: bold"">一致地向左或向右运动</span> ，其余点随机运动</p >
        <p>您需要忽略点的颜色并在3秒内判断 <span style=""font-weight: bold"">一致的运动方向是向左还是向右</span>:</p >
        <ul>
          <li><span style=""font-weight: bold"">向左</span>，请按键盘 <span style=""font-weight: bold"">左键</span></li>
          <li><span style=""font-weight: bold"">向右</span>，请按键盘 <span style=""font-weight: bold"">右键</span> </li>
        </ul>
        <p>如有疑问请向主试咨询，没有则按下空格键开始</p>
      </div>","","","","","","","","","","","","","","","","","","","","","","","","","","","","","","","","","","","","","","","","","","","","","","","",""
"","","","","","html-keyboard-response","6","141101","0.0-5.0-1.0-0.0-0.0-0.0-0.0-0.0-0.0","null","fixation","null","<p style='font-size: 48px; color: white'>+</p >","","","","","","","","","","","","","","","","","","","","","","","","","","","","","","","","","","","","","","","","","","","","","","","",""
"","","","","","rdk","7","144616","0.0-5.0-1.0-0.0-0.0-0.0-0.0-0.0-1.0","-1","motion_test","","","false","[""ArrowLeft"",""ArrowRight""]","ArrowLeft","3000","true","1","100","180","0.2","0","5.7","1","-1","3","550","550","[""hsl(0, 50%, 50%)"",""hsl(225, 50%, 50%)""]","[""white""]","0","0","12","circle","black","3","2","2","16.705555555555556","[6,18,16,16,17,17,17,17,17,17,17,17,16,17,17,17,17,17,17,17,17,16,17,17,17,17,16,17,17,16,16,16,16,17,17,16,17,16,17,16,17,17,17,17,17,17,17,17,17,17,17,17,17,17,17,18,16,17,17,17,17,16,17,17,16,17,17,17,16,17,16,17,17,17,17,17,17,16,17,17,17,17,16,17,17,16,17,17,17,16,17,17,17,16,17,15,16,17,17,17,17,17,17,17,17,17,16,17,17,16,17,17,17,17,16,16,17,17,17,17,16,17,17,16,17,17,17,16,17,17,17,16,17,16,17,17,17,17,17,17,16,16,17,17,16,17,16,17,17,16,17,17,17,17,17,17,17,16,17,17,17,17,17,17,17,16,17,16,16,17,17,17,17,17,17,16,17,17,17,17]","180","965","360","false","20","20","black","1","false","1","1","1820","630","ArrowLeft","staircase_motion","","","","",""
"","","","","","html-keyboard-response","8","145634","0.0-5.0-1.0-0.0-0.0-0.0-0.0-0.0-2.0","null","","null","<p style='font-size: 60px; color: yellow'>太慢!</p>","","","","","","","","","","","","","","","","","","","","","","","","","","","","","","","","","","","","","","","","","","","","","","","",""
"","","","","","html-keyboard-response","9","146651","0.0-5.0-1.0-0.0-0.0-0.0-0.0-0.0-0.1","null","fixation","null","<p style='font-size: 48px; color: white'>+</p >","","","","","","","","","","","","","","","","","","","","","","","","","","","","","","","","","","","","","","","","","","","","","","","",""
"","","","","","rdk","10","148032","0.0-5.0-1.0-0.0-0.0-0.0-0.0-0.0-1.1","863","motion_test","arrowright","","true","[""ArrowLeft"",""ArrowRight""]","ArrowRight","3000","true","1","100","0","0.2","0","5.7","1","-1","3","550","550","[""hsl(0, 50%, 50%)"",""hsl(225, 50%, 50%)""]","[""white""]","0","0","12","circle","black","3","2","2","16.80392156862745","[10,17,17,17,17,17,17,17,17,16,17,17,17,17,17,17,17,17,17,17,17,17,16,17,17,17,17,17,17,17,17,17,17,17,17,17,17,17,17,17,16,17,17,17,17,17,17,17,17,17,17]","51","965","360","false","20","20","black","1","false","1","1","1820","630","ArrowRight","staircase_motion","","","","",""
"","","","","","html-keyboard-response","11","149036","0.0-5.0-1.0-0.0-0.0-0.0-0.0-0.0-2.1","null","","null","<p style='font-size: 60px; color: green'>正确!</p>","","","","","","","","","","","","","","","","","","","","","","","","","","","","","","","","","","","","","","","","","","","","","","","",""
"","","","","","html-keyboard-response","12","150052","0.0-5.0-1.0-0.0-0.0-0.0-0.0-0.0-0.2","null","fixation","null","<p style='font-size: 48px; color: white'>+</p >","","","","","","","","","","","","","","","","","","","","","","","","","","","","","","","","","","","","","","","","","","","","","","","",""
"","","","","","rdk","13","151711","0.0-5.0-1.0-0.0-0.0-0.0-0.0-0.0-1.2","1142","motion_test","arrowleft","","true","[""ArrowLeft"",""ArrowRight""]","ArrowLeft","3000","true","1","100","180","0.2","0","5.7","1","-1","3","550","550","[""hsl(0, 50%, 50%)"",""hsl(225, 50%, 50%)""]","[""white""]","0","0","12","circle","black","3","2","2","16.808823529411764","[11,17,17,17,17,17,17,17,17,16,17,17,17,17,17,17,17,17,17,17,17,17,17,16,17,17,17,17,17,17,17,16,17,17,17,17,17,17,17,17,17,16,17,17,17,17,17,17,17,17,16,17,17,17,17,17,17,17,17,17,16,17,17,16,17,17,17,17]","68","965","360","false","20","20","black","1","false","1","1","1820","630","ArrowLeft","staircase_motion","","","","",""
"","","","","","html-keyboard-response","14","152734","0.0-5.0-1.0-0.0-0.0-0.0-0.0-0.0-2.2","null","","null","<p style='font-size: 60px; color: green'>正确!</p>","","","","","","","","","","","","","","","","","","","","","","","","","","","","","","","","","","","","","","","","","","","","","","","",""
"","","","","","html-keyboard-response","15","153750","0.0-5.0-1.0-0.0-0.0-0.0-0.0-0.0-0.3","null","fixation","null","<p style='font-size: 48px; color: white'>+</p >","","","","","","","","","","","","","","","","","","","","","","","","","","","","","","","","","","","","","","","","","","","","","","","",""
"","","","","","rdk","16","155103","0.0-5.0-1.0-0.0-0.0-0.0-0.0-0.0-1.3","849","motion_test","arrowright","","true","[""ArrowLeft"",""ArrowRight""]","ArrowRight","3000","true","1","100","0","0.2","0","5.7","1","-1","3","550","550","[""hsl(0, 50%, 50%)"",""hsl(225, 50%, 50%)""]","[""white""]","0","0","12","circle","black","3","2","2","16.745098039215687","[10,17,17,17,17,17,17,17,17,17,17,16,17,17,17,17,16,17,17,17,16,17,17,17,17,17,17,17,17,16,16,17,17,17,17,17,17,17,17,17,17,16,17,17,17,17,17,17,17,17,17]","51","965","360","false","20","20","black","1","false","1","1","1820","630","ArrowRight","staircase_motion","","","","",""
"","","","","","html-keyboard-response","17","156117","0.0-5.0-1.0-0.0-0.0-0.0-0.0-0.0-2.3","null","","null","<p style='font-size: 60px; color: green'>正确!</p>","","","","","","","","","","","","","","","","","","","","","","","","","","","","","","","","","","","","","","","","","","","","","","","",""
"","","","","","html-keyboard-response","18","157135","0.0-5.0-1.0-0.0-0.0-0.0-0.0-0.0-0.4","null","fixation","null","<p style='font-size: 48px; color: white'>+</p >","","","","","","","","","","","","","","","","","","","","","","","","","","","","","","","","","","","","","","","","","","","","","","","",""
"","","","","","rdk","19","159631","0.0-5.0-1.0-0.0-0.0-0.0-0.0-0.0-1.4","1981","motion_test","arrowright","","false","[""ArrowLeft"",""ArrowRight""]","ArrowLeft","3000","true","1","100","180","0.2","0","5.7","1","-1","3","550","550","[""hsl(0, 50%, 50%)"",""hsl(225, 50%, 50%)""]","[""white""]","0","0","12","circle","black","3","2","2","16.872881355932204","[13,17,17,17,17,17,17,16,17,17,17,17,17,17,17,17,17,17,17,16,17,17,17,17,17,17,17,17,17,17,16,17,17,17,17,17,17,17,17,16,17,17,16,17,17,17,17,17,17,17,17,16,17,17,17,17,16,17,17,17,17,17,17,17,17,17,17,17,17,17,17,17,17,17,17,17,17,17,17,17,17,17,17,17,17,17,17,17,17,17,17,16,17,17,17,16,17,17,17,17,17,17,17,16,17,17,17,17,17,16,17,17,17,17,17,17,17,17]","118","965","360","false","20","20","black","1","false","1","1","1820","630","ArrowLeft","staircase_motion","","","","",""
"","","","","","html-keyboard-response","20","160650","0.0-5.0-1.0-0.0-0.0-0.0-0.0-0.0-2.4","null","","null","<p style='font-size: 60px; color: red'>错误!</p>","","","","","","","","","","","","","","","","","","","","","","","","","","","","","","","","","","","","","","","","","","","","","","","",""
"","","","","","html-keyboard-response","21","161667","0.0-5.0-1.0-0.0-0.0-0.0-0.0-0.0-0.5","null","fixation","null","<p style='font-size: 48px; color: white'>+</p >","","","","","","","","","","","","","","","","","","","","","","","","","","","","","","","","","","","","","","","","","","","","","","","",""
"","","","","","rdk","22","163823","0.0-5.0-1.0-0.0-0.0-0.0-0.0-0.0-1.5","1653","motion_test","arrowright","","true","[""ArrowLeft"",""ArrowRight""]","ArrowRight","3000","true","1","100","0","0.2","0","5.7","1","-1","3","550","550","[""hsl(0, 50%, 50%)"",""hsl(225, 50%, 50%)""]","[""white""]","0","0","12","circle","black","3","2","2","16.707070707070706","[9,17,17,17,17,17,16,17,17,16,17,17,17,17,17,16,17,17,17,17,16,17,17,17,17,16,17,17,16,17,17,17,17,17,17,16,17,17,17,17,17,16,17,17,17,17,15,17,18,16,17,17,16,17,17,17,17,17,16,17,16,16,17,17,17,17,17,17,17,17,17,17,17,17,16,17,17,17,16,17,17,17,16,17,17,17,17,17,16,17,17,16,17,17,16,16,18,16,17]","99","965","360","false","20","20","black","1","false","1","1","1820","630","ArrowRight","staircase_motion","","","","",""
"","","","","","html-keyboard-response","23","164850","0.0-5.0-1.0-0.0-0.0-0.0-0.0-0.0-2.5","null","","null","<p style='font-size: 60px; color: green'>正确!</p>","","","","","","","","","","","","","","","","","","","","","","","","","","","","","","","","","","","","","","","","","","","","","","","",""
"","","","","","html-keyboard-response","24","165867","0.0-5.0-1.0-0.0-0.0-0.0-0.0-0.0-0.6","null","fixation","null","<p style='font-size: 48px; color: white'>+</p >","","","","","","","","","","","","","","","","","","","","","","","","","","","","","","","","","","","","","","","","","","","","","","","",""
"","","","","","rdk","25","168001","0.0-5.0-1.0-0.0-0.0-0.0-0.0-0.0-1.6","1616","motion_test","arrowright","","true","[""ArrowLeft"",""ArrowRight""]","ArrowRight","3000","true","1","100","0","0.2","0","5.7","1","-1","3","550","550","[""hsl(0, 50%, 50%)"",""hsl(225, 50%, 50%)""]","[""white""]","0","0","12","circle","black","3","2","2","16.896907216494846","[11,17,17,17,17,17,17,17,17,17,17,17,17,17,17,17,17,17,17,17,17,17,17,17,17,17,17,17,17,17,17,17,16,17,17,17,17,17,17,17,17,16,17,17,17,17,17,17,17,17,17,17,17,17,17,17,17,17,17,16,17,17,17,17,17,16,17,17,17,17,17,17,17,17,17,17,17,17,17,17,17,17,17,17,17,17,17,17,17,16,17,17,17,17,17,17,18]","97","965","360","false","20","20","black","1","false","1","1","1820","630","ArrowRight","staircase_motion","","","","",""
"","","","","","html-keyboard-response","26","169017","0.0-5.0-1.0-0.0-0.0-0.0-0.0-0.0-2.6","null","","null","<p style='font-size: 60px; color: green'>正确!</p>","","","","","","","","","","","","","","","","","","","","","","","","","","","","","","","","","","","","","","","","","","","","","","","",""
"","","","","","html-keyboard-response","27","170034","0.0-5.0-1.0-0.0-0.0-0.0-0.0-0.0-0.7","null","fixation","null","<p style='font-size: 48px; color: white'>+</p >","","","","","","","","","","","","","","","","","","","","","","","","","","","","","","","","","","","","","","","","","","","","","","","",""
"","","","","","rdk","28","171616","0.0-5.0-1.0-0.0-0.0-0.0-0.0-0.0-1.7","1064","motion_test","arrowleft","","true","[""ArrowLeft"",""ArrowRight""]","ArrowLeft","3000","true","1","100","180","0.2","0","5.7","1","-1","3","550","550","[""hsl(0, 50%, 50%)"",""hsl(225, 50%, 50%)""]","[""white""]","0","0","12","circle","black","3","2","2","16.828125","[11,17,17,17,17,17,17,16,16,17,17,17,17,17,17,17,17,17,17,17,17,17,17,17,16,17,17,17,17,17,17,17,17,17,17,17,17,17,17,17,17,17,17,17,17,17,17,17,17,17,16,16,18,16,17,17,17,17,18,16,17,17,17,17]","64","965","360","false","20","20","black","1","false","1","1","1820","630","ArrowLeft","staircase_motion","","","","",""
"","","","","","html-keyboard-response","29","172634","0.0-5.0-1.0-0.0-0.0-0.0-0.0-0.0-2.7","null","","null","<p style='font-size: 60px; color: green'>正确!</p>","","","","","","","","","","","","","","","","","","","","","","","","","","","","","","","","","","","","","","","","","","","","","","","",""
"","","","","","html-keyboard-response","30","173651","0.0-5.0-1.0-0.0-0.0-0.0-0.0-0.0-0.8","null","fixation","null","<p style='font-size: 48px; color: white'>+</p >","","","","","","","","","","","","","","","","","","","","","","","","","","","","","","","","","","","","","","","","","","","","","","","",""
"","","","","","rdk","31","175535","0.0-5.0-1.0-0.0-0.0-0.0-0.0-0.0-1.8","1367","motion_test","arrowright","","true","[""ArrowLeft"",""ArrowRight""]","ArrowRight","3000","true","1","100","0","0.2","0","5.7","1","-1","3","550","550","[""hsl(0, 50%, 50%)"",""hsl(225, 50%, 50%)""]","[""white""]","0","0","12","circle","black","3","2","2","16.829268292682926","[12,17,17,17,17,17,17,17,17,17,17,17,17,17,17,17,17,17,17,17,17,17,16,17,17,17,16,17,17,16,17,17,16,17,17,17,17,17,17,17,17,17,17,17,17,17,17,17,17,17,17,17,17,17,17,17,16,17,16,17,16,17,17,17,16,17,17,17,17,17,17,17,17,17,17,17,17,17,16,17,17,17]","82","965","360","false","20","20","black","1","false","1","1","1820","630","ArrowRight","staircase_motion","","","","",""
"","","","","","html-keyboard-response","32","176551","0.0-5.0-1.0-0.0-0.0-0.0-0.0-0.0-2.8","null","","null","<p style='font-size: 60px; color: green'>正确!</p>","","","","","","","","","","","","","","","","","","","","","","","","","","","","","","","","","","","","","","","","","","","","","","","",""
"","","","","","html-keyboard-response","33","177568","0.0-5.0-1.0-0.0-0.0-0.0-0.0-0.0-0.9","null","fixation","null","<p style='font-size: 48px; color: white'>+</p >","","","","","","","","","","","","","","","","","","","","","","","","","","","","","","","","","","","","","","","","","","","","","","","",""
"","","","","","rdk","34","179584","0.0-5.0-1.0-0.0-0.0-0.0-0.0-0.0-1.9","1500","motion_test","arrowright","","true","[""ArrowLeft"",""ArrowRight""]","ArrowRight","3000","true","1","100","0","0.2","0","5.7","1","-1","3","550","550","[""hsl(0, 50%, 50%)"",""hsl(225, 50%, 50%)""]","[""white""]","0","0","12","circle","black","3","2","2","16.855555555555554","[12,17,17,17,17,17,17,17,17,17,17,17,16,17,17,17,16,17,17,17,17,17,17,17,17,17,17,17,17,17,17,16,17,17,17,17,17,16,17,17,17,17,17,17,16,17,17,17,16,17,17,17,17,17,17,17,17,17,17,16,17,17,17,17,17,17,17,17,17,17,17,17,17,17,17,17,17,17,17,17,17,17,17,17,16,17,17,17,17,17]","90","965","360","false","20","20","black","1","false","1","1","1820","630","ArrowRight","staircase_motion","","","","",""
"","","","","","html-keyboard-response","35","180601","0.0-5.0-1.0-0.0-0.0-0.0-0.0-0.0-2.9","null","","null","<p style='font-size: 60px; color: green'>正确!</p>","","","","","","","","","","","","","","","","","","","","","","","","","","","","","","","","","","","","","","","","","","","","","","","",""
"","","","","","html-keyboard-response","36","181618","0.0-5.0-1.0-0.0-0.0-0.0-0.0-0.0-0.10","null","fixation","null","<p style='font-size: 48px; color: white'>+</p >","","","","","","","","","","","","","","","","","","","","","","","","","","","","","","","","","","","","","","","","","","","","","","","",""
"","","","","","rdk","37","183023","0.0-5.0-1.0-0.0-0.0-0.0-0.0-0.0-1.10","888","motion_test","arrowleft","","true","[""ArrowLeft"",""ArrowRight""]","ArrowLeft","3000","true","1","100","180","0.2","0","5.7","1","-1","3","550","550","[""hsl(0, 50%, 50%)"",""hsl(225, 50%, 50%)""]","[""white""]","0","0","12","circle","black","3","2","2","16.67924528301887","[11,17,17,17,17,17,17,17,16,16,17,17,16,16,17,17,17,17,17,17,17,17,17,17,17,17,17,17,17,17,16,17,17,17,16,16,17,17,16,17,16,17,17,17,17,17,16,17,17,17,17,16,17]","53","965","360","false","20","20","black","1","false","1","1","1820","630","ArrowLeft","staircase_motion","","","","",""
"","","","","","html-keyboard-response","38","184051","0.0-5.0-1.0-0.0-0.0-0.0-0.0-0.0-2.10","null","","null","<p style='font-size: 60px; color: green'>正确!</p>","","","","","","","","","","","","","","","","","","","","","","","","","","","","","","","","","","","","","","","","","","","","","","","",""
"","","","","","html-keyboard-response","39","185069","0.0-5.0-1.0-0.0-0.0-0.0-0.0-0.0-0.11","null","fixation","null","<p style='font-size: 48px; color: white'>+</p >","","","","","","","","","","","","","","","","","","","","","","","","","","","","","","","","","","","","","","","","","","","","","","","",""
"","","","","","rdk","40","186879","0.0-5.0-1.0-0.0-0.0-0.0-0.0-0.0-1.11","1294","motion_test","arrowleft","","true","[""ArrowLeft"",""ArrowRight""]","ArrowLeft","3000","true","1","100","180","0.2","0","5.7","1","-1","3","550","550","[""hsl(0, 50%, 50%)"",""hsl(225, 50%, 50%)""]","[""white""]","0","0","12","circle","black","3","2","2","16.844155844155843","[12,17,17,17,17,17,16,17,17,17,17,17,16,17,17,17,17,17,17,17,16,17,17,17,17,17,17,16,17,17,17,17,17,17,17,17,17,17,17,17,17,17,17,17,17,17,17,17,17,17,17,17,16,17,17,17,17,17,17,16,17,17,17,17,17,17,17,17,17,16,17,17,17,17,17,17,17]","77","965","360","false","20","20","black","1","false","1","1","1820","630","ArrowLeft","staircase_motion","","","","",""
"","","","","","html-keyboard-response","41","187901","0.0-5.0-1.0-0.0-0.0-0.0-0.0-0.0-2.11","null","","null","<p style='font-size: 60px; color: green'>正确!</p>","","","","","","","","","","","","","","","","","","","","","","","","","","","","","","","","","","","","","","","","","","","","","","","",""
"","","","","","html-keyboard-response","42","190418","0.0-5.0-1.0-0.0-0.0-0.0-0.0-1.0","null","","null","<p style='font-size: 35px; color: white'>您的正确率为： 83% 。平均反应时为：1185毫秒。</p>","","","","","","","","","","","","","","","","","","","","","","","","","","","","","","","","","","","","","","","","","","","","","","","",""
"","","","","","html-keyboard-response","43","191434","0.0-5.0-1.0-0.0-0.0-0.1-0.1-0.1-0.12","null","fixation","null","<p style='font-size: 48px; color: white'>+</p >","","","","","","","","","","","","","","","","","","","","","","","","","","","","","","","","","","","","","","","","","","","","","","","",""
"","","","","","rdk","44","193023","0.0-5.0-1.0-0.0-0.0-0.1-0.1-0.1-1.12","1072","motion_test","arrowleft","","true","[""ArrowLeft"",""ArrowRight""]","ArrowLeft","3000","true","1","100","180","0.16","0","5.7","1","-1","3","550","550","[""hsl(0, 50%, 50%)"",""hsl(225, 50%, 50%)""]","[""white""]","0","0","12","circle","black","3","2","2","16.875","[13,17,17,17,16,17,17,17,17,16,17,17,17,17,17,17,17,17,17,17,17,17,17,17,17,17,17,17,17,17,17,17,17,17,17,17,17,17,16,17,17,17,17,17,17,17,17,17,17,17,17,17,17,16,17,17,17,17,17,17,17,17,17,17]","64","965","360","false","20","20","black","1","false","1","1","1820","630","ArrowLeft","staircase_motion","","","","",""
"","","","","","html-keyboard-response","45","194051","0.0-5.0-1.0-0.0-0.0-0.1-0.1-0.1-2.12","null","","null","<p style='font-size: 60px; color: green'>正确!</p>","","","","","","","","","","","","","","","","","","","","","","","","","","","","","","","","","","","","","","","","","","","","","","","",""
"","","","","","html-keyboard-response","46","195068","0.0-5.0-1.0-0.0-0.0-0.1-0.1-0.1-0.13","null","fixation","null","<p style='font-size: 48px; color: white'>+</p >","","","","","","","","","","","","","","","","","","","","","","","","","","","","","","","","","","","","","","","","","","","","","","","",""
"","","","","","rdk","47","196607","0.0-5.0-1.0-0.0-0.0-0.1-0.1-0.1-1.13","1022","motion_test","arrowleft","","true","[""ArrowLeft"",""ArrowRight""]","ArrowLeft","3000","true","1","100","180","0.16","0","5.7","1","-1","3","550","550","[""hsl(0, 50%, 50%)"",""hsl(225, 50%, 50%)""]","[""white""]","0","0","12","circle","black","3","2","2","16.852459016393443","[12,17,17,17,17,17,17,17,17,17,17,17,17,17,17,17,17,17,17,17,17,17,16,17,17,17,17,17,17,17,17,17,16,17,17,17,17,17,17,17,17,17,17,17,17,17,17,17,16,17,17,17,17,17,17,17,17,17,17,16,17]","61","965","360","false","20","20","black","1","false","1","1","1820","630","ArrowLeft","staircase_motion","","","","",""
"","","","","","html-keyboard-response","48","197634","0.0-5.0-1.0-0.0-0.0-0.1-0.1-0.1-2.13","null","","null","<p style='font-size: 60px; color: green'>正确!</p>","","","","","","","","","","","","","","","","","","","","","","","","","","","","","","","","","","","","","","","","","","","","","","","",""
"","","","","","html-keyboard-response","49","198651","0.0-5.0-1.0-0.0-0.0-0.1-0.1-0.1-0.14","null","fixation","null","<p style='font-size: 48px; color: white'>+</p >","","","","","","","","","","","","","","","","","","","","","","","","","","","","","","","","","","","","","","","","","","","","","","","",""
"","","","","","rdk","50","200079","0.0-5.0-1.0-0.0-0.0-0.1-0.1-0.1-1.14","926","motion_test","arrowright","","true","[""ArrowLeft"",""ArrowRight""]","ArrowRight","3000","true","1","100","0","0.16","0","5.7","1","-1","3","550","550","[""hsl(0, 50%, 50%)"",""hsl(225, 50%, 50%)""]","[""white""]","0","0","12","circle","black","3","2","2","16.745454545454546","[10,17,17,17,17,17,17,17,17,17,17,17,17,17,17,17,16,17,17,17,16,17,17,17,17,17,17,16,17,17,17,17,17,16,17,17,16,17,17,17,16,17,17,17,17,17,17,17,17,17,17,16,17,17,17]","55","965","360","false","20","20","black","1","false","1","1","1820","630","ArrowRight","staircase_motion","","","","",""
"","","","","","html-keyboard-response","51","201101","0.0-5.0-1.0-0.0-0.0-0.1-0.1-0.1-2.14","null","","null","<p style='font-size: 60px; color: green'>正确!</p>","","","","","","","","","","","","","","","","","","","","","","","","","","","","","","","","","","","","","","","","","","","","","","","",""
"","","","","","html-keyboard-response","52","202117","0.0-5.0-1.0-0.0-0.0-0.1-0.1-0.1-0.15","null","fixation","null","<p style='font-size: 48px; color: white'>+</p >","","","","","","","","","","","","","","","","","","","","","","","","","","","","","","","","","","","","","","","","","","","","","","","",""
"","","","","","rdk","53","203775","0.0-5.0-1.0-0.0-0.0-0.1-0.1-0.1-1.15","1156","motion_test","arrowright","","true","[""ArrowLeft"",""ArrowRight""]","ArrowRight","3000","true","1","100","0","0.16","0","5.7","1","-1","3","550","550","[""hsl(0, 50%, 50%)"",""hsl(225, 50%, 50%)""]","[""white""]","0","0","12","circle","black","3","2","2","16.681159420289855","[12,16,17,17,16,17,17,17,17,17,17,16,17,17,16,17,17,17,16,18,16,17,17,17,17,17,17,17,17,16,17,17,16,17,16,17,17,17,16,17,17,17,16,17,17,16,16,16,17,17,17,17,17,17,17,17,17,16,17,17,17,16,17,17,16,17,17,16,17]","69","965","360","false","20","20","black","1","false","1","1","1820","630","ArrowRight","staircase_motion","","","","",""
"","","","","","html-keyboard-response","54","204801","0.0-5.0-1.0-0.0-0.0-0.1-0.1-0.1-2.15","null","","null","<p style='font-size: 60px; color: green'>正确!</p>","","","","","","","","","","","","","","","","","","","","","","","","","","","","","","","","","","","","","","","","","","","","","","","",""
"","","","","","html-keyboard-response","55","205817","0.0-5.0-1.0-0.0-0.0-0.1-0.1-0.1-0.16","null","fixation","null","<p style='font-size: 48px; color: white'>+</p >","","","","","","","","","","","","","","","","","","","","","","","","","","","","","","","","","","","","","","","","","","","","","","","",""
"","","","","","rdk","56","207201","0.0-5.0-1.0-0.0-0.0-0.1-0.1-0.1-1.16","881","motion_test","arrowright","","true","[""ArrowLeft"",""ArrowRight""]","ArrowRight","3000","true","1","100","0","0.16","0","5.7","1","-1","3","550","550","[""hsl(0, 50%, 50%)"",""hsl(225, 50%, 50%)""]","[""white""]","0","0","12","circle","black","3","2","2","16.81132075471698","[10,17,17,17,17,17,17,17,16,16,17,17,17,17,17,17,17,17,17,16,17,16,17,17,17,17,17,17,17,17,17,17,17,17,17,17,17,17,17,17,17,17,17,17,17,17,17,17,17,17,17,17,18]","53","965","360","false","20","20","black","1","false","1","1","1820","630","ArrowRight","staircase_motion","","","","",""
"","","","","","html-keyboard-response","57","208218","0.0-5.0-1.0-0.0-0.0-0.1-0.1-0.1-2.16","null","","null","<p style='font-size: 60px; color: green'>正确!</p>","","","","","","","","","","","","","","","","","","","","","","","","","","","","","","","","","","","","","","","","","","","","","","","",""
"","","","","","html-keyboard-response","58","209234","0.0-5.0-1.0-0.0-0.0-0.1-0.1-0.1-0.17","null","fixation","null","<p style='font-size: 48px; color: white'>+</p >","","","","","","","","","","","","","","","","","","","","","","","","","","","","","","","","","","","","","","","","","","","","","","","",""
"","","","","","rdk","59","210543","0.0-5.0-1.0-0.0-0.0-0.1-0.1-0.1-1.17","792","motion_test","arrowright","","true","[""ArrowLeft"",""ArrowRight""]","ArrowRight","3000","true","1","100","0","0.16","0","5.7","1","-1","3","550","550","[""hsl(0, 50%, 50%)"",""hsl(225, 50%, 50%)""]","[""white""]","0","0","12","circle","black","3","2","2","16.851063829787233","[12,17,17,17,17,17,17,17,17,17,17,16,17,17,16,17,17,17,17,17,17,17,17,17,17,17,17,17,17,17,17,17,17,17,17,17,17,17,17,17,17,17,17,17,17,17,17]","47","965","360","false","20","20","black","1","false","1","1","1820","630","ArrowRight","staircase_motion","","","","",""
"","","","","","html-keyboard-response","60","211566","0.0-5.0-1.0-0.0-0.0-0.1-0.1-0.1-2.17","null","","null","<p style='font-size: 60px; color: green'>正确!</p>","","","","","","","","","","","","","","","","","","","","","","","","","","","","","","","","","","","","","","","","","","","","","","","",""
"","","","","","html-keyboard-response","61","212583","0.0-5.0-1.0-0.0-0.0-0.1-0.1-0.1-0.18","null","fixation","null","<p style='font-size: 48px; color: white'>+</p >","","","","","","","","","","","","","","","","","","","","","","","","","","","","","","","","","","","","","","","","","","","","","","","",""
"","","","","","rdk","62","213775","0.0-5.0-1.0-0.0-0.0-0.1-0.1-0.1-1.18","689","motion_test","arrowleft","","true","[""ArrowLeft"",""ArrowRight""]","ArrowLeft","3000","true","1","100","180","0.16","0","5.7","1","-1","3","550","550","[""hsl(0, 50%, 50%)"",""hsl(225, 50%, 50%)""]","[""white""]","0","0","12","circle","black","3","2","2","16.853658536585368","[12,17,17,17,17,17,17,17,17,17,17,17,17,17,17,17,17,17,17,17,16,17,17,17,17,17,17,17,17,17,17,17,17,17,17,17,17,17,17,17,17]","41","965","360","false","20","20","black","1","false","1","1","1820","630","ArrowLeft","staircase_motion","","","","",""
"","","","","","html-keyboard-response","63","214800","0.0-5.0-1.0-0.0-0.0-0.1-0.1-0.1-2.18","null","","null","<p style='font-size: 60px; color: green'>正确!</p>","","","","","","","","","","","","","","","","","","","","","","","","","","","","","","","","","","","","","","","","","","","","","","","",""
"","","","","","html-keyboard-response","64","215817","0.0-5.0-1.0-0.0-0.0-0.1-0.1-0.1-0.19","null","fixation","null","<p style='font-size: 48px; color: white'>+</p >","","","","","","","","","","","","","","","","","","","","","","","","","","","","","","","","","","","","","","","","","","","","","","","",""
"","","","","","rdk","65","216767","0.0-5.0-1.0-0.0-0.0-0.1-0.1-0.1-1.19","448","motion_test","arrowright","","false","[""ArrowLeft"",""ArrowRight""]","ArrowLeft","3000","true","1","100","180","0.16","0","5.7","1","-1","3","550","550","[""hsl(0, 50%, 50%)"",""hsl(225, 50%, 50%)""]","[""white""]","0","0","12","circle","black","3","2","2","16.666666666666668","[10,17,17,16,17,17,17,17,17,17,17,17,17,17,17,17,17,17,17,17,17,17,17,17,17,16,17]","27","965","360","false","20","20","black","1","false","1","1","1820","630","ArrowLeft","staircase_motion","","","","",""
"","","","","","html-keyboard-response","66","217784","0.0-5.0-1.0-0.0-0.0-0.1-0.1-0.1-2.19","null","","null","<p style='font-size: 60px; color: red'>错误!</p>","","","","","","","","","","","","","","","","","","","","","","","","","","","","","","","","","","","","","","","","","","","","","","","",""
"","","","","","html-keyboard-response","67","218801","0.0-5.0-1.0-0.0-0.0-0.1-0.1-0.1-0.20","null","fixation","null","<p style='font-size: 48px; color: white'>+</p >","","","","","","","","","","","","","","","","","","","","","","","","","","","","","","","","","","","","","","","","","","","","","","","",""
"","","","","","rdk","68","220800","0.0-5.0-1.0-0.0-0.0-0.1-0.1-0.1-1.20","1482","motion_test","arrowright","","true","[""ArrowLeft"",""ArrowRight""]","ArrowRight","3000","true","1","100","0","0.16","0","5.7","1","-1","3","550","550","[""hsl(0, 50%, 50%)"",""hsl(225, 50%, 50%)""]","[""white""]","0","0","12","circle","black","3","2","2","16.685393258426966","[11,17,17,17,17,17,17,18,17,16,17,17,17,16,17,16,17,16,17,17,17,17,16,17,17,17,15,17,17,17,17,17,17,17,16,17,16,17,16,17,17,16,17,17,17,17,17,16,17,16,17,17,17,16,17,17,16,17,16,17,16,17,17,17,17,16,17,17,16,16,17,17,17,17,16,17,17,17,17,16,17,16,17,17,17,17,17,17,17]","89","965","360","false","20","20","black","1","false","1","1","1820","630","ArrowRight","staircase_motion","","","","",""
"","","","","","html-keyboard-response","69","221817","0.0-5.0-1.0-0.0-0.0-0.1-0.1-0.1-2.20","null","","null","<p style='font-size: 60px; color: green'>正确!</p>","","","","","","","","","","","","","","","","","","","","","","","","","","","","","","","","","","","","","","","","","","","","","","","",""
"","","","","","html-keyboard-response","70","222834","0.0-5.0-1.0-0.0-0.0-0.1-0.1-0.1-0.21","null","fixation","null","<p style='font-size: 48px; color: white'>+</p >","","","","","","","","","","","","","","","","","","","","","","","","","","","","","","","","","","","","","","","","","","","","","","","",""
"","","","","","rdk","71","224671","0.0-5.0-1.0-0.0-0.0-0.1-0.1-0.1-1.21","1335","motion_test","arrowleft","","true","[""ArrowLeft"",""ArrowRight""]","ArrowLeft","3000","true","1","100","180","0.16","0","5.7","1","-1","3","550","550","[""hsl(0, 50%, 50%)"",""hsl(225, 50%, 50%)""]","[""white""]","0","0","12","circle","black","3","2","2","16.85","[10,17,17,17,17,17,17,17,17,17,17,17,16,17,17,16,17,17,16,17,17,17,17,17,17,17,17,17,17,17,17,17,17,17,17,16,17,17,17,17,17,17,17,17,17,17,17,17,17,17,17,17,17,17,17,17,17,17,17,17,16,17,17,17,17,17,17,17,17,17,17,17,17,17,17,17,17,17,17,17]","80","965","360","false","20","20","black","1","false","1","1","1820","630","ArrowLeft","staircase_motion","","","","",""
"","","","","","html-keyboard-response","72","225701","0.0-5.0-1.0-0.0-0.0-0.1-0.1-0.1-2.21","null","","null","<p style='font-size: 60px; color: green'>正确!</p>","","","","","","","","","","","","","","","","","","","","","","","","","","","","","","","","","","","","","","","","","","","","","","","",""
"","","","","","html-keyboard-response","73","226702","0.0-5.0-1.0-0.0-0.0-0.1-0.1-0.1-0.22","null","fixation","null","<p style='font-size: 48px; color: white'>+</p >","","","","","","","","","","","","","","","","","","","","","","","","","","","","","","","","","","","","","","","","","","","","","","","",""
"","","","","","rdk","74","228831","0.0-5.0-1.0-0.0-0.0-0.1-0.1-0.1-1.22","1613","motion_test","arrowright","","false","[""ArrowLeft"",""ArrowRight""]","ArrowLeft","3000","true","1","100","180","0.16","0","5.7","1","-1","3","550","550","[""hsl(0, 50%, 50%)"",""hsl(225, 50%, 50%)""]","[""white""]","0","0","12","circle","black","3","2","2","16.875","[12,17,17,17,17,17,17,16,17,17,17,17,17,17,17,17,17,17,17,16,17,17,17,17,17,17,17,17,17,17,17,17,17,16,17,17,17,17,17,17,17,16,17,17,17,17,17,17,17,17,17,17,17,17,17,17,17,17,17,17,16,17,17,17,17,17,17,17,17,17,17,17,17,17,17,16,17,17,17,17,17,17,17,17,17,17,17,17,16,17,17,17,17,17,17,17]","96","965","360","false","20","20","black","1","false","1","1","1820","630","ArrowLeft","staircase_motion","","","","",""
"","","","","","html-keyboard-response","75","229850","0.0-5.0-1.0-0.0-0.0-0.1-0.1-0.1-2.22","null","","null","<p style='font-size: 60px; color: red'>错误!</p>","","","","","","","","","","","","","","","","","","","","","","","","","","","","","","","","","","","","","","","","","","","","","","","",""
"","","","","","html-keyboard-response","76","230867","0.0-5.0-1.0-0.0-0.0-0.1-0.1-0.1-0.23","null","fixation","null","<p style='font-size: 48px; color: white'>+</p >","","","","","","","","","","","","","","","","","","","","","","","","","","","","","","","","","","","","","","","","","","","","","","","",""
"","","","","","rdk","77","232239","0.0-5.0-1.0-0.0-0.0-0.1-0.1-0.1-1.23","870","motion_test","arrowright","","true","[""ArrowLeft"",""ArrowRight""]","ArrowRight","3000","true","1","100","0","0.16","0","5.7","1","-1","3","550","550","[""hsl(0, 50%, 50%)"",""hsl(225, 50%, 50%)""]","[""white""]","0","0","12","circle","black","3","2","2","16.75","[10,17,17,17,17,16,17,17,17,17,17,17,17,17,16,17,17,17,17,17,16,17,17,17,17,17,17,17,16,17,17,16,17,17,17,17,17,17,17,17,17,17,17,17,17,17,17,17,17,16,17,17]","52","965","360","false","20","20","black","1","false","1","1","1820","630","ArrowRight","staircase_motion","","","","",""
"","","","","","html-keyboard-response","78","233267","0.0-5.0-1.0-0.0-0.0-0.1-0.1-0.1-2.23","null","","null","<p style='font-size: 60px; color: green'>正确!</p>","","","","","","","","","","","","","","","","","","","","","","","","","","","","","","","","","","","","","","","","","","","","","","","",""
"","","","","","html-keyboard-response","79","235784","0.0-5.0-1.0-0.0-0.0-0.1-0.1-1.1","null","","null","<p style='font-size: 35px; color: white'>您的正确率为： 83% 。平均反应时为：1024毫秒。</p>","","","","","","","","","","","","","","","","","","","","","","","","","","","","","","","","","","","","","","","","","","","","","","","",""
"","","","","","html-keyboard-response","80","236800","0.0-5.0-1.0-0.0-0.0-1.0-0.0-0.0-0.0","null","fixation","null","<p style='font-size: 48px; color: white'>+</p >","","","","","","","","","","","","","","","","","","","","","","","","","","","","","","","","","","","","","","","","","","","","","","","",""
"","","","","","rdk","81","238479","0.0-5.0-1.0-0.0-0.0-1.0-0.0-0.0-1.0","1176","motion_test","arrowleft","","true","[""ArrowLeft"",""ArrowRight""]","ArrowLeft","3000","true","1","100","180","0.16","0","5.7","1","-1","3","550","550","[""hsl(0, 50%, 50%)"",""hsl(225, 50%, 50%)""]","[""white""]","0","0","12","circle","black","3","2","2","16.771428571428572","[10,17,17,17,17,17,17,17,17,17,17,16,17,17,17,17,17,17,17,17,17,17,17,16,17,17,16,17,17,17,17,17,17,17,16,17,17,17,16,17,17,17,17,16,17,17,16,17,17,17,16,17,17,17,17,17,17,17,16,17,17,17,17,17,17,17,17,17,17,17]","70","965","360","false","20","20","black","1","false","1","1","1820","630","ArrowLeft","staircase_motion","","","","",""
"","","","","","html-keyboard-response","82","239501","0.0-5.0-1.0-0.0-0.0-1.0-0.0-0.0-2.0","null","","null","<p style='font-size: 60px; color: green'>正确!</p>","","","","","","","","","","","","","","","","","","","","","","","","","","","","","","","","","","","","","","","","","","","","","","","",""
"","","","","","html-keyboard-response","83","240533","0.0-5.0-1.0-0.0-0.0-1.0-0.0-0.0-0.1","null","fixation","null","<p style='font-size: 48px; color: white'>+</p >","","","","","","","","","","","","","","","","","","","","","","","","","","","","","","","","","","","","","","","","","","","","","","","",""
"","","","","","rdk","84","241871","0.0-5.0-1.0-0.0-0.0-1.0-0.0-0.0-1.1","834","motion_test","arrowright","","true","[""ArrowLeft"",""ArrowRight""]","ArrowRight","3000","true","1","100","0","0.16","0","5.7","1","-1","3","550","550","[""hsl(0, 50%, 50%)"",""hsl(225, 50%, 50%)""]","[""white""]","0","0","12","circle","black","3","2","2","16.68","[9,17,17,17,17,18,17,16,17,17,17,16,17,17,17,17,17,17,17,16,17,17,15,17,16,17,17,17,18,17,16,17,17,17,17,17,17,17,16,17,16,17,17,17,17,17,16,17,17,17]","50","965","360","false","20","20","black","1","false","1","1","1820","630","ArrowRight","staircase_motion","","","","",""
"","","","","","html-keyboard-response","85","242900","0.0-5.0-1.0-0.0-0.0-1.0-0.0-0.0-2.1","null","","null","<p style='font-size: 60px; color: green'>正确!</p>","","","","","","","","","","","","","","","","","","","","","","","","","","","","","","","","","","","","","","","","","","","","","","","",""
"","","","","","html-keyboard-response","86","243917","0.0-5.0-1.0-0.0-0.0-1.0-0.0-0.0-0.2","null","fixation","null","<p style='font-size: 48px; color: white'>+</p >","","","","","","","","","","","","","","","","","","","","","","","","","","","","","","","","","","","","","","","","","","","","","","","",""
"","","","","","rdk","87","245870","0.0-5.0-1.0-0.0-0.0-1.0-0.0-0.0-1.2","1451","motion_test","arrowleft","","false","[""ArrowLeft"",""ArrowRight""]","ArrowRight","3000","true","1","100","0","0.16","0","5.7","1","-1","3","550","550","[""hsl(0, 50%, 50%)"",""hsl(225, 50%, 50%)""]","[""white""]","0","0","12","circle","black","3","2","2","16.804597701149426","[11,17,17,17,17,17,17,17,17,17,16,17,16,17,16,17,17,17,17,17,16,17,17,17,17,17,17,17,16,17,17,17,17,17,17,17,17,17,17,17,17,17,17,17,17,17,17,17,17,17,17,17,17,17,17,17,16,17,17,17,17,16,17,17,17,17,17,17,17,17,17,16,17,17,17,17,17,17,16,17,16,17,17,17,17,16,17]","87","965","360","false","20","20","black","1","false","1","1","1820","630","ArrowRight","staircase_motion","","","","",""
"","","","","","html-keyboard-response","88","246900","0.0-5.0-1.0-0.0-0.0-1.0-0.0-0.0-2.2","null","","null","<p style='font-size: 60px; color: red'>错误!</p>","","","","","","","","","","","","","","","","","","","","","","","","","","","","","","","","","","","","","","","","","","","","","","","",""
"","","","","","html-keyboard-response","89","247918","0.0-5.0-1.0-0.0-0.0-1.0-0.0-0.0-0.3","null","fixation","null","<p style='font-size: 48px; color: white'>+</p >","","","","","","","","","","","","","","","","","","","","","","","","","","","","","","","","","","","","","","","","","","","","","","","",""
"","","","","","rdk","90","249327","0.0-5.0-1.0-0.0-0.0-1.0-0.0-0.0-1.3","892","motion_test","arrowleft","","true","[""ArrowLeft"",""ArrowRight""]","ArrowLeft","3000","true","1","100","180","0.16","0","5.7","1","-1","3","550","550","[""hsl(0, 50%, 50%)"",""hsl(225, 50%, 50%)""]","[""white""]","0","0","12","circle","black","3","2","2","16.867924528301888","[12,16,17,17,17,17,17,17,17,17,17,17,17,17,17,17,17,17,17,17,17,17,17,17,17,17,17,17,16,17,17,17,17,17,17,17,17,17,17,17,17,17,17,17,17,17,17,17,17,17,17,17,17]","53","965","360","false","20","20","black","1","false","1","1","1820","630","ArrowLeft","staircase_motion","","","","",""
"","","","","","html-keyboard-response","91","250350","0.0-5.0-1.0-0.0-0.0-1.0-0.0-0.0-2.3","null","","null","<p style='font-size: 60px; color: green'>正确!</p>","","","","","","","","","","","","","","","","","","","","","","","","","","","","","","","","","","","","","","","","","","","","","","","",""
"","","","","","html-keyboard-response","92","251368","0.0-5.0-1.0-0.0-0.0-1.0-0.0-0.0-0.4","null","fixation","null","<p style='font-size: 48px; color: white'>+</p >","","","","","","","","","","","","","","","","","","","","","","","","","","","","","","","","","","","","","","","","","","","","","","","",""
"","","","","","rdk","93","252511","0.0-5.0-1.0-0.0-0.0-1.0-0.0-0.0-1.4","626","motion_test","arrowright","","false","[""ArrowLeft"",""ArrowRight""]","ArrowLeft","3000","true","1","100","180","0.16","0","5.7","1","-1","3","550","550","[""hsl(0, 50%, 50%)"",""hsl(225, 50%, 50%)""]","[""white""]","0","0","12","circle","black","3","2","2","16.81081081081081","[12,17,17,17,17,17,17,17,17,17,17,17,17,17,17,17,16,17,17,17,17,17,17,17,17,17,17,17,17,17,17,17,17,17,17,16,17]","37","965","360","false","20","20","black","1","false","1","1","1820","630","ArrowLeft","staircase_motion","","","","",""
"","","","","","html-keyboard-response","94","253533","0.0-5.0-1.0-0.0-0.0-1.0-0.0-0.0-2.4","null","","null","<p style='font-size: 60px; color: red'>错误!</p>","","","","","","","","","","","","","","","","","","","","","","","","","","","","","","","","","","","","","","","","","","","","","","","",""
"","","","","","html-keyboard-response","95","254551","0.0-5.0-1.0-0.0-0.0-1.0-0.0-0.0-0.5","null","fixation","null","<p style='font-size: 48px; color: white'>+</p >","","","","","","","","","","","","","","","","","","","","","","","","","","","","","","","","","","","","","","","","","","","","","","","",""
"","","","","","rdk","96","255983","0.0-5.0-1.0-0.0-0.0-1.0-0.0-0.0-1.5","915","motion_test","arrowleft","","true","[""ArrowLeft"",""ArrowRight""]","ArrowLeft","3000","true","1","100","180","0.16","0","5.7","1","-1","3","550","550","[""hsl(0, 50%, 50%)"",""hsl(225, 50%, 50%)""]","[""white""]","0","0","12","circle","black","3","2","2","16.854545454545455","[12,17,17,17,17,17,16,17,17,17,17,17,17,17,17,17,17,17,17,17,17,16,17,16,17,17,17,17,17,17,17,17,17,17,17,17,17,17,17,17,17,17,17,17,17,17,17,17,17,17,17,17,17,17,17]","55","965","360","false","20","20","black","1","false","1","1","1820","630","ArrowLeft","staircase_motion","","","","",""
"","","","","","html-keyboard-response","97","257000","0.0-5.0-1.0-0.0-0.0-1.0-0.0-0.0-2.5","null","","null","<p style='font-size: 60px; color: green'>正确!</p>","","","","","","","","","","","","","","","","","","","","","","","","","","","","","","","","","","","","","","","","","","","","","","","",""
"","","","","","html-keyboard-response","98","258018","0.0-5.0-1.0-0.0-0.0-1.0-0.0-0.0-0.6","null","fixation","null","<p style='font-size: 48px; color: white'>+</p >","","","","","","","","","","","","","","","","","","","","","","","","","","","","","","","","","","","","","","","","","","","","","","","",""
"","","","","","rdk","99","259871","0.0-5.0-1.0-0.0-0.0-1.0-0.0-0.0-1.6","1351","motion_test","arrowleft","","false","[""ArrowLeft"",""ArrowRight""]","ArrowRight","3000","true","1","100","0","0.16","0","5.7","1","-1","3","550","550","[""hsl(0, 50%, 50%)"",""hsl(225, 50%, 50%)""]","[""white""]","0","0","12","circle","black","3","2","2","16.691358024691358","[9,17,17,17,17,16,17,16,17,17,17,17,17,17,17,17,17,17,17,17,17,17,17,16,17,17,17,17,16,17,17,16,17,17,17,17,16,17,17,17,15,17,17,17,17,17,17,16,17,17,17,18,17,16,17,16,16,17,16,17,16,17,17,17,17,17,16,17,16,17,17,17,16,17,17,17,17,17,17,16,17]","81","965","360","false","20","20","black","1","false","1","1","1820","630","ArrowRight","staircase_motion","","","","",""
"","","","","","html-keyboard-response","100","260900","0.0-5.0-1.0-0.0-0.0-1.0-0.0-0.0-2.6","null","","null","<p style='font-size: 60px; color: red'>错误!</p>","","","","","","","","","","","","","","","","","","","","","","","","","","","","","","","","","","","","","","","","","","","","","","","",""
"","","","","","html-keyboard-response","101","261918","0.0-5.0-1.0-0.0-0.0-1.0-0.0-0.0-0.7","null","fixation","null","<p style='font-size: 48px; color: white'>+</p >","","","","","","","","","","","","","","","","","","","","","","","","","","","","","","","","","","","","","","","","","","","","","","","",""
"","","","","","rdk","102","263694","0.0-5.0-1.0-0.0-0.0-1.0-0.0-0.0-1.7","1259","motion_test","arrowright","","true","[""ArrowLeft"",""ArrowRight""]","ArrowRight","3000","true","1","100","0","0.16","0","5.7","1","-1","3","550","550","[""hsl(0, 50%, 50%)"",""hsl(225, 50%, 50%)""]","[""white""]","0","0","12","circle","black","3","2","2","16.813333333333333","[12,16,17,17,17,17,17,16,17,17,17,17,17,16,17,17,17,16,17,17,16,17,17,17,17,17,17,17,17,17,17,17,16,18,17,17,17,17,17,17,17,17,17,17,17,16,17,17,17,17,17,17,17,16,17,17,17,17,17,17,17,17,17,17,17,17,17,17,16,17,17,17,17,16,17]","75","965","360","false","20","20","black","1","false","1","1","1820","630","ArrowRight","staircase_motion","","","","",""
"","","","","","html-keyboard-response","103","264717","0.0-5.0-1.0-0.0-0.0-1.0-0.0-0.0-2.7","null","","null","<p style='font-size: 60px; color: green'>正确!</p>","","","","","","","","","","","","","","","","","","","","","","","","","","","","","","","","","","","","","","","","","","","","","","","",""
"","","","","","html-keyboard-response","104","265734","0.0-5.0-1.0-0.0-0.0-1.0-0.0-0.0-0.8","null","fixation","null","<p style='font-size: 48px; color: white'>+</p >","","","","","","","","","","","","","","","","","","","","","","","","","","","","","","","","","","","","","","","","","","","","","","","",""
"","","","","","rdk","105","267279","0.0-5.0-1.0-0.0-0.0-1.0-0.0-0.0-1.8","1043","motion_test","arrowright","","true","[""ArrowLeft"",""ArrowRight""]","ArrowRight","3000","true","1","100","0","0.16","0","5.7","1","-1","3","550","550","[""hsl(0, 50%, 50%)"",""hsl(225, 50%, 50%)""]","[""white""]","0","0","12","circle","black","3","2","2","16.79032258064516","[10,17,17,17,17,17,17,17,17,17,16,17,17,17,17,17,17,17,17,17,17,17,17,17,17,17,17,17,17,17,17,17,16,17,17,17,17,17,17,16,17,17,17,17,17,17,17,17,16,17,17,17,17,17,16,17,17,17,17,17,17,16]","62","965","360","false","20","20","black","1","false","1","1","1820","630","ArrowRight","staircase_motion","","","","",""
"","","","","","html-keyboard-response","106","268301","0.0-5.0-1.0-0.0-0.0-1.0-0.0-0.0-2.8","null","","null","<p style='font-size: 60px; color: green'>正确!</p>","","","","","","","","","","","","","","","","","","","","","","","","","","","","","","","","","","","","","","","","","","","","","","","",""
"","","","","","html-keyboard-response","107","269317","0.0-5.0-1.0-0.0-0.0-1.0-0.0-0.0-0.9","null","fixation","null","<p style='font-size: 48px; color: white'>+</p >","","","","","","","","","","","","","","","","","","","","","","","","","","","","","","","","","","","","","","","","","","","","","","","",""
"","","","","","rdk","108","270702","0.0-5.0-1.0-0.0-0.0-1.0-0.0-0.0-1.9","868","motion_test","arrowleft","","true","[""ArrowLeft"",""ArrowRight""]","ArrowLeft","3000","true","1","100","180","0.16","0","5.7","1","-1","3","550","550","[""hsl(0, 50%, 50%)"",""hsl(225, 50%, 50%)""]","[""white""]","0","0","12","circle","black","3","2","2","16.807692307692307","[12,17,17,17,17,17,17,17,17,17,17,17,17,17,16,17,17,17,17,17,17,17,17,16,17,17,17,17,17,17,17,16,17,17,17,17,17,17,17,17,17,17,17,17,17,17,17,17,16,17,16,17]","52","965","360","false","20","20","black","1","false","1","1","1820","630","ArrowLeft","staircase_motion","","","","",""
"","","","","","html-keyboard-response","109","271734","0.0-5.0-1.0-0.0-0.0-1.0-0.0-0.0-2.9","null","","null","<p style='font-size: 60px; color: green'>正确!</p>","","","","","","","","","","","","","","","","","","","","","","","","","","","","","","","","","","","","","","","","","","","","","","","",""
"","","","","","html-keyboard-response","110","272751","0.0-5.0-1.0-0.0-0.0-1.0-0.0-0.0-0.10","null","fixation","null","<p style='font-size: 48px; color: white'>+</p >","","","","","","","","","","","","","","","","","","","","","","","","","","","","","","","","","","","","","","","","","","","","","","","",""
"","","","","","rdk","111","274190","0.0-5.0-1.0-0.0-0.0-1.0-0.0-0.0-1.10","937","motion_test","arrowright","","true","[""ArrowLeft"",""ArrowRight""]","ArrowRight","3000","true","1","100","0","0.16","0","5.7","1","-1","3","550","550","[""hsl(0, 50%, 50%)"",""hsl(225, 50%, 50%)""]","[""white""]","0","0","12","circle","black","3","2","2","16.803571428571427","[10,17,17,17,17,17,16,17,16,17,17,17,17,17,17,16,17,17,17,17,17,17,17,17,17,17,17,17,17,17,17,17,17,17,17,17,17,17,17,17,17,17,17,17,17,17,17,17,17,17,17,17,17,17,17,16]","56","965","360","false","20","20","black","1","false","1","1","1820","630","ArrowRight","staircase_motion","","","","",""
"","","","","","html-keyboard-response","112","275217","0.0-5.0-1.0-0.0-0.0-1.0-0.0-0.0-2.10","null","","null","<p style='font-size: 60px; color: green'>正确!</p>","","","","","","","","","","","","","","","","","","","","","","","","","","","","","","","","","","","","","","","","","","","","","","","",""
"","","","","","html-keyboard-response","113","276234","0.0-5.0-1.0-0.0-0.0-1.0-0.0-0.0-0.11","null","fixation","null","<p style='font-size: 48px; color: white'>+</p >","","","","","","","","","","","","","","","","","","","","","","","","","","","","","","","","","","","","","","","","","","","","","","","",""
"","","","","","rdk","114","277406","0.0-5.0-1.0-0.0-0.0-1.0-0.0-0.0-1.11","670","motion_test","arrowleft","","true","[""ArrowLeft"",""ArrowRight""]","ArrowLeft","3000","true","1","100","180","0.16","0","5.7","1","-1","3","550","550","[""hsl(0, 50%, 50%)"",""hsl(225, 50%, 50%)""]","[""white""]","0","0","12","circle","black","3","2","2","16.6","[9,17,17,17,17,17,17,18,16,17,17,17,16,17,17,16,17,17,17,17,16,17,17,16,17,16,17,17,17,17,16,17,17,16,17,17,17,17,16,17]","40","965","360","false","20","20","black","1","false","1","1","1820","630","ArrowLeft","staircase_motion","","","","",""
"","","","","","html-keyboard-response","115","278433","0.0-5.0-1.0-0.0-0.0-1.0-0.0-0.0-2.11","null","","null","<p style='font-size: 60px; color: green'>正确!</p>","","","","","","","","","","","","","","","","","","","","","","","","","","","","","","","","","","","","","","","","","","","","","","","",""
"","","","","","html-keyboard-response","116","280950","0.0-5.0-1.0-0.0-0.0-1.0-0.0-1.0","null","","null","<p style='font-size: 35px; color: white'>您的正确率为： 75% 。平均反应时为：1002毫秒。</p>","","","","","","","","","","","","","","","","","","","","","","","","","","","","","","","","","","","","","","","","","","","","","","","",""
"","","","","","html-keyboard-response","117","281967","0.0-5.0-1.0-0.0-0.0-1.1-0.1-0.1-0.12","null","fixation","null","<p style='font-size: 48px; color: white'>+</p >","","","","","","","","","","","","","","","","","","","","","","","","","","","","","","","","","","","","","","","","","","","","","","","",""
"","","","","","rdk","118","283518","0.0-5.0-1.0-0.0-0.0-1.1-0.1-0.1-1.12","1050","motion_test","arrowleft","","true","[""ArrowLeft"",""ArrowRight""]","ArrowLeft","3000","true","1","100","180","0.1","0","5.7","1","-1","3","550","550","[""hsl(0, 50%, 50%)"",""hsl(225, 50%, 50%)""]","[""white""]","0","0","12","circle","black","3","2","2","16.841269841269842","[12,17,17,17,16,17,17,17,17,17,17,17,17,17,17,17,17,17,17,17,17,17,17,17,17,17,17,17,17,16,17,17,17,17,17,16,17,17,17,17,17,17,17,17,17,17,17,17,17,17,17,17,17,17,17,16,16,17,17,17,17,17,17]","63","965","360","false","20","20","black","1","false","1","1","1820","630","ArrowLeft","staircase_motion","","","","",""
"","","","","","html-keyboard-response","119","284550","0.0-5.0-1.0-0.0-0.0-1.1-0.1-0.1-2.12","null","","null","<p style='font-size: 60px; color: green'>正确!</p>","","","","","","","","","","","","","","","","","","","","","","","","","","","","","","","","","","","","","","","","","","","","","","","",""
"","","","","","html-keyboard-response","120","285567","0.0-5.0-1.0-0.0-0.0-1.1-0.1-0.1-0.13","null","fixation","null","<p style='font-size: 48px; color: white'>+</p >","","","","","","","","","","","","","","","","","","","","","","","","","","","","","","","","","","","","","","","","","","","","","","","",""
"","","","","","rdk","121","286911","0.0-5.0-1.0-0.0-0.0-1.1-0.1-0.1-1.13","842","motion_test","arrowleft","","false","[""ArrowLeft"",""ArrowRight""]","ArrowRight","3000","true","1","100","0","0.1","0","5.7","1","-1","3","550","550","[""hsl(0, 50%, 50%)"",""hsl(225, 50%, 50%)""]","[""white""]","0","0","12","circle","black","3","2","2","16.8","[12,17,17,17,16,17,17,17,17,17,17,17,17,17,17,17,17,17,17,17,17,17,17,17,17,17,17,17,17,17,17,17,16,17,17,17,17,16,17,17,17,17,16,17,17,17,17,17,17,16]","50","965","360","false","20","20","black","1","false","1","1","1820","630","ArrowRight","staircase_motion","","","","",""
"","","","","","html-keyboard-response","122","287934","0.0-5.0-1.0-0.0-0.0-1.1-0.1-0.1-2.13","null","","null","<p style='font-size: 60px; color: red'>错误!</p>","","","","","","","","","","","","","","","","","","","","","","","","","","","","","","","","","","","","","","","","","","","","","","","",""
"","","","","","html-keyboard-response","123","288951","0.0-5.0-1.0-0.0-0.0-1.1-0.1-0.1-0.14","null","fixation","null","<p style='font-size: 48px; color: white'>+</p >","","","","","","","","","","","","","","","","","","","","","","","","","","","","","","","","","","","","","","","","","","","","","","","",""
"","","","","","rdk","124","290416","0.0-5.0-1.0-0.0-0.0-1.1-0.1-0.1-1.14","948","motion_test","arrowleft","","true","[""ArrowLeft"",""ArrowRight""]","ArrowLeft","3000","true","1","100","180","0.1","0","5.7","1","-1","3","550","550","[""hsl(0, 50%, 50%)"",""hsl(225, 50%, 50%)""]","[""white""]","0","0","12","circle","black","3","2","2","16.842105263157894","[12,16,17,17,17,17,17,17,17,17,17,17,17,17,17,17,17,16,17,17,17,17,17,17,17,17,17,17,17,17,17,17,17,17,17,17,17,17,17,17,16,17,16,17,17,17,17,17,17,17,17,17,17,17,17,17,17]","57","965","360","false","20","20","black","1","false","1","1","1820","630","ArrowLeft","staircase_motion","","","","",""
"","","","","","html-keyboard-response","125","291433","0.0-5.0-1.0-0.0-0.0-1.1-0.1-0.1-2.14","null","","null","<p style='font-size: 60px; color: green'>正确!</p>","","","","","","","","","","","","","","","","","","","","","","","","","","","","","","","","","","","","","","","","","","","","","","","",""
"","","","","","html-keyboard-response","126","292451","0.0-5.0-1.0-0.0-0.0-1.1-0.1-0.1-0.15","null","fixation","null","<p style='font-size: 48px; color: white'>+</p >","","","","","","","","","","","","","","","","","","","","","","","","","","","","","","","","","","","","","","","","","","","","","","","",""
"","","","","","rdk","127","293951","0.0-5.0-1.0-0.0-0.0-1.1-0.1-0.1-1.15","982","motion_test","arrowright","","true","[""ArrowLeft"",""ArrowRight""]","ArrowRight","3000","true","1","100","0","0.1","0","5.7","1","-1","3","550","550","[""hsl(0, 50%, 50%)"",""hsl(225, 50%, 50%)""]","[""white""]","0","0","12","circle","black","3","2","2","16.8135593220339","[11,17,17,17,17,17,16,18,16,17,17,17,17,17,17,17,16,17,17,17,17,17,17,17,17,17,17,17,17,17,17,17,17,17,17,17,17,16,17,17,17,17,17,17,17,17,16,17,17,17,17,17,17,17,16,17,17,17,17]","59","965","360","false","20","20","black","1","false","1","1","1820","630","ArrowRight","staircase_motion","","","","",""
"","","","","","html-keyboard-response","128","294967","0.0-5.0-1.0-0.0-0.0-1.1-0.1-0.1-2.15","null","","null","<p style='font-size: 60px; color: green'>正确!</p>","","","","","","","","","","","","","","","","","","","","","","","","","","","","","","","","","","","","","","","","","","","","","","","",""
"","","","","","html-keyboard-response","129","295983","0.0-5.0-1.0-0.0-0.0-1.1-0.1-0.1-0.16","null","fixation","null","<p style='font-size: 48px; color: white'>+</p >","","","","","","","","","","","","","","","","","","","","","","","","","","","","","","","","","","","","","","","","","","","","","","","",""
"","","","","","rdk","130","297279","0.0-5.0-1.0-0.0-0.0-1.1-0.1-0.1-1.16","793","motion_test","arrowleft","","true","[""ArrowLeft"",""ArrowRight""]","ArrowLeft","3000","true","1","100","180","0.1","0","5.7","1","-1","3","550","550","[""hsl(0, 50%, 50%)"",""hsl(225, 50%, 50%)""]","[""white""]","0","0","12","circle","black","3","2","2","16.638297872340427","[10,18,16,17,17,17,17,17,17,16,17,16,17,17,16,17,17,16,17,17,17,17,16,17,17,17,17,16,17,17,16,17,17,17,17,16,17,17,16,17,17,16,17,17,17,17,17]","47","965","360","false","20","20","black","1","false","1","1","1820","630","ArrowLeft","staircase_motion","","","","",""
"","","","","","html-keyboard-response","131","298301","0.0-5.0-1.0-0.0-0.0-1.1-0.1-0.1-2.16","null","","null","<p style='font-size: 60px; color: green'>正确!</p>","","","","","","","","","","","","","","","","","","","","","","","","","","","","","","","","","","","","","","","","","","","","","","","",""
"","","","","","html-keyboard-response","132","299318","0.0-5.0-1.0-0.0-0.0-1.1-0.1-0.1-0.17","null","fixation","null","<p style='font-size: 48px; color: white'>+</p >","","","","","","","","","","","","","","","","","","","","","","","","","","","","","","","","","","","","","","","","","","","","","","","",""
"","","","","","rdk","133","300703","0.0-5.0-1.0-0.0-0.0-1.1-0.1-0.1-1.17","868","motion_test","arrowright","","true","[""ArrowLeft"",""ArrowRight""]","ArrowRight","3000","true","1","100","0","0.1","0","5.7","1","-1","3","550","550","[""hsl(0, 50%, 50%)"",""hsl(225, 50%, 50%)""]","[""white""]","0","0","12","circle","black","3","2","2","16.73076923076923","[12,17,17,17,17,17,17,17,16,17,17,17,17,17,16,17,17,17,17,17,17,17,17,16,17,17,17,17,16,17,17,17,17,17,17,17,17,16,17,17,17,16,17,16,17,17,16,17,17,17,16,17]","52","965","360","false","20","20","black","1","false","1","1","1820","630","ArrowRight","staircase_motion","","","","",""
"","","","","","html-keyboard-response","134","301734","0.0-5.0-1.0-0.0-0.0-1.1-0.1-0.1-2.17","null","","null","<p style='font-size: 60px; color: green'>正确!</p>","","","","","","","","","","","","","","","","","","","","","","","","","","","","","","","","","","","","","","","","","","","","","","","",""
"","","","","","html-keyboard-response","135","302750","0.0-5.0-1.0-0.0-0.0-1.1-0.1-0.1-0.18","null","fixation","null","<p style='font-size: 48px; color: white'>+</p >","","","","","","","","","","","","","","","","","","","","","","","","","","","","","","","","","","","","","","","","","","","","","","","",""
"","","","","","rdk","136","304095","0.0-5.0-1.0-0.0-0.0-1.1-0.1-0.1-1.18","843","motion_test","arrowleft","","true","[""ArrowLeft"",""ArrowRight""]","ArrowLeft","3000","true","1","100","180","0.1","0","5.7","1","-1","3","550","550","[""hsl(0, 50%, 50%)"",""hsl(225, 50%, 50%)""]","[""white""]","0","0","12","circle","black","3","2","2","16.74","[11,17,17,17,17,17,17,16,16,17,17,17,17,17,17,17,17,17,16,17,17,17,17,17,17,17,17,17,17,17,16,17,17,17,17,17,17,17,16,17,16,17,17,16,17,17,17,17,17,17]","50","965","360","false","20","20","black","1","false","1","1","1820","630","ArrowLeft","staircase_motion","","","","",""
"","","","","","html-keyboard-response","137","305117","0.0-5.0-1.0-0.0-0.0-1.1-0.1-0.1-2.18","null","","null","<p style='font-size: 60px; color: green'>正确!</p>","","","","","","","","","","","","","","","","","","","","","","","","","","","","","","","","","","","","","","","","","","","","","","","",""
"","","","","","html-keyboard-response","138","306133","0.0-5.0-1.0-0.0-0.0-1.1-0.1-0.1-0.19","null","fixation","null","<p style='font-size: 48px; color: white'>+</p >","","","","","","","","","","","","","","","","","","","","","","","","","","","","","","","","","","","","","","","","","","","","","","","",""
"","","","","","rdk","139","307823","0.0-5.0-1.0-0.0-0.0-1.1-0.1-0.1-1.19","1187","motion_test","arrowright","","true","[""ArrowLeft"",""ArrowRight""]","ArrowRight","3000","true","1","100","0","0.1","0","5.7","1","-1","3","550","550","[""hsl(0, 50%, 50%)"",""hsl(225, 50%, 50%)""]","[""white""]","0","0","12","circle","black","3","2","2","16.788732394366196","[12,17,17,17,16,17,17,16,17,17,17,17,17,17,17,16,17,17,17,17,17,17,17,17,16,17,17,17,16,17,17,17,17,17,17,17,17,17,17,17,17,17,17,17,17,17,17,16,17,17,17,17,17,17,17,17,16,16,17,17,17,17,17,17,17,17,17,16,17,16,17]","71","965","360","false","20","20","black","1","false","1","1","1820","630","ArrowRight","staircase_motion","","","","",""
"","","","","","html-keyboard-response","140","308850","0.0-5.0-1.0-0.0-0.0-1.1-0.1-0.1-2.19","null","","null","<p style='font-size: 60px; color: green'>正确!</p>","","","","","","","","","","","","","","","","","","","","","","","","","","","","","","","","","","","","","","","","","","","","","","","",""
"","","","","","html-keyboard-response","141","309867","0.0-5.0-1.0-0.0-0.0-1.1-0.1-0.1-0.20","null","fixation","null","<p style='font-size: 48px; color: white'>+</p >","","","","","","","","","","","","","","","","","","","","","","","","","","","","","","","","","","","","","","","","","","","","","","","",""
"","","","","","rdk","142","311118","0.0-5.0-1.0-0.0-0.0-1.1-0.1-0.1-1.20","734","motion_test","arrowleft","","true","[""ArrowLeft"",""ArrowRight""]","ArrowLeft","3000","true","1","100","180","0.1","0","5.7","1","-1","3","550","550","[""hsl(0, 50%, 50%)"",""hsl(225, 50%, 50%)""]","[""white""]","0","0","12","circle","black","3","2","2","16.84090909090909","[12,17,17,17,17,17,17,17,16,17,17,17,17,17,17,17,17,17,17,17,17,17,17,17,17,17,17,17,17,17,17,17,17,17,17,17,17,16,17,17,17,17,17,17]","44","965","360","false","20","20","black","1","false","1","1","1820","630","ArrowLeft","staircase_motion","","","","",""
"","","","","","html-keyboard-response","143","312134","0.0-5.0-1.0-0.0-0.0-1.1-0.1-0.1-2.20","null","","null","<p style='font-size: 60px; color: green'>正确!</p>","","","","","","","","","","","","","","","","","","","","","","","","","","","","","","","","","","","","","","","","","","","","","","","",""
"","","","","","html-keyboard-response","144","313135","0.0-5.0-1.0-0.0-0.0-1.1-0.1-0.1-0.21","null","fixation","null","<p style='font-size: 48px; color: white'>+</p >","","","","","","","","","","","","","","","","","","","","","","","","","","","","","","","","","","","","","","","","","","","","","","","",""
"","","","","","rdk","145","314895","0.0-5.0-1.0-0.0-0.0-1.1-0.1-0.1-1.21","1244","motion_test","arrowright","","true","[""ArrowLeft"",""ArrowRight""]","ArrowRight","3000","true","1","100","0","0.1","0","5.7","1","-1","3","550","550","[""hsl(0, 50%, 50%)"",""hsl(225, 50%, 50%)""]","[""white""]","0","0","12","circle","black","3","2","2","16.89189189189189","[13,17,17,17,17,17,17,17,17,17,16,17,17,17,17,16,17,17,17,17,17,17,17,17,17,16,17,17,17,17,17,17,17,17,17,17,17,17,16,17,17,17,17,17,17,17,17,17,17,17,17,17,17,17,17,17,17,17,17,17,17,17,17,17,17,17,17,17,17,17,17,17,17,17]","74","965","360","false","20","20","black","1","false","1","1","1820","630","ArrowRight","staircase_motion","","","","",""
"","","","","","html-keyboard-response","146","315918","0.0-5.0-1.0-0.0-0.0-1.1-0.1-0.1-2.21","null","","null","<p style='font-size: 60px; color: green'>正确!</p>","","","","","","","","","","","","","","","","","","","","","","","","","","","","","","","","","","","","","","","","","","","","","","","",""
"","","","","","html-keyboard-response","147","316934","0.0-5.0-1.0-0.0-0.0-1.1-0.1-0.1-0.22","null","fixation","null","<p style='font-size: 48px; color: white'>+</p >","","","","","","","","","","","","","","","","","","","","","","","","","","","","","","","","","","","","","","","","","","","","","","","",""
"","","","","","rdk","148","319135","0.0-5.0-1.0-0.0-0.0-1.1-0.1-0.1-1.22","1699","motion_test","arrowleft","","true","[""ArrowLeft"",""ArrowRight""]","ArrowLeft","3000","true","1","100","180","0.1","0","5.7","1","-1","3","550","550","[""hsl(0, 50%, 50%)"",""hsl(225, 50%, 50%)""]","[""white""]","0","0","12","circle","black","3","2","2","16.862745098039216","[10,17,16,17,17,17,17,17,17,17,17,17,17,17,17,17,17,17,17,17,17,17,17,17,17,17,17,17,16,17,17,17,17,17,17,17,17,17,17,17,17,17,17,17,17,17,17,17,17,17,17,17,17,17,16,17,17,17,16,17,16,17,17,17,17,17,17,17,17,17,17,17,16,17,17,17,17,16,17,17,17,17,17,17,17,17,17,17,17,17,17,17,17,17,17,17,17,17,17,17,17,17]","102","965","360","false","20","20","black","1","false","1","1","1820","630","ArrowLeft","staircase_motion","","","","",""
"","","","","","html-keyboard-response","149","320151","0.0-5.0-1.0-0.0-0.0-1.1-0.1-0.1-2.22","null","","null","<p style='font-size: 60px; color: green'>正确!</p>","","","","","","","","","","","","","","","","","","","","","","","","","","","","","","","","","","","","","","","","","","","","","","","",""
"","","","","","html-keyboard-response","150","321168","0.0-5.0-1.0-0.0-0.0-1.1-0.1-0.1-0.23","null","fixation","null","<p style='font-size: 48px; color: white'>+</p >","","","","","","","","","","","","","","","","","","","","","","","","","","","","","","","","","","","","","","","","","","","","","","","",""
"","","","","","rdk","151","322623","0.0-5.0-1.0-0.0-0.0-1.1-0.1-0.1-1.23","938","motion_test","arrowright","","true","[""ArrowLeft"",""ArrowRight""]","ArrowRight","3000","true","1","100","0","0.1","0","5.7","1","-1","3","550","550","[""hsl(0, 50%, 50%)"",""hsl(225, 50%, 50%)""]","[""white""]","0","0","12","circle","black","3","2","2","16.785714285714285","[11,17,17,17,17,17,17,16,17,17,17,17,16,17,17,16,17,17,17,17,17,17,17,17,16,17,17,16,17,17,17,17,17,17,17,17,17,17,16,17,17,17,17,17,17,17,17,17,17,17,17,17,17,17,17,17]","56","965","360","false","20","20","black","1","false","1","1","1820","630","ArrowRight","staircase_motion","","","","",""
"","","","","","html-keyboard-response","152","323636","0.0-5.0-1.0-0.0-0.0-1.1-0.1-0.1-2.23","null","","null","<p style='font-size: 60px; color: green'>正确!</p>","","","","","","","","","","","","","","","","","","","","","","","","","","","","","","","","","","","","","","","","","","","","","","","",""
"","","","","","html-keyboard-response","153","326167","0.0-5.0-1.0-0.0-0.0-1.1-0.1-1.1","null","","null","<p style='font-size: 35px; color: white'>您的正确率为： 92% 。平均反应时为：1011毫秒。</p>","","","","","","","","","","","","","","","","","","","","","","","","","","","","","","","","","","","","","","","","","","","","","","","",""
"","","","","","html-keyboard-response","154","327183","0.0-5.0-1.0-0.0-0.0-2.0-0.0-0.0-0.0","null","fixation","null","<p style='font-size: 48px; color: white'>+</p >","","","","","","","","","","","","","","","","","","","","","","","","","","","","","","","","","","","","","","","","","","","","","","","",""
"","","","","","rdk","155","329375","0.0-5.0-1.0-0.0-0.0-2.0-0.0-0.0-1.0","1688","motion_test","arrowright","","false","[""ArrowLeft"",""ArrowRight""]","ArrowLeft","3000","true","1","100","180","0.1","0","5.7","1","-1","3","550","550","[""hsl(0, 50%, 50%)"",""hsl(225, 50%, 50%)""]","[""white""]","0","0","12","circle","black","3","2","2","16.762376237623762","[9,17,17,16,18,16,17,18,17,17,17,17,17,17,16,17,17,17,17,17,17,16,17,17,17,16,17,17,17,17,17,17,17,17,17,17,17,17,17,17,17,17,17,16,17,17,17,17,17,17,16,17,17,17,17,17,16,17,17,17,16,17,17,17,17,17,16,17,17,17,17,16,17,17,17,17,17,17,17,16,16,17,17,17,17,17,16,17,17,17,17,16,17,16,17,17,16,17,17,17,16]","101","965","360","false","20","20","black","1","false","1","1","1820","630","ArrowLeft","staircase_motion","","","","",""
"","","","","","html-keyboard-response","156","330400","0.0-5.0-1.0-0.0-0.0-2.0-0.0-0.0-2.0","null","","null","<p style='font-size: 60px; color: red'>错误!</p>","","","","","","","","","","","","","","","","","","","","","","","","","","","","","","","","","","","","","","","","","","","","","","","",""
"","","","","","html-keyboard-response","157","331416","0.0-5.0-1.0-0.0-0.0-2.0-0.0-0.0-0.1","null","fixation","null","<p style='font-size: 48px; color: white'>+</p >","","","","","","","","","","","","","","","","","","","","","","","","","","","","","","","","","","","","","","","","","","","","","","","",""
"","","","","","rdk","158","333103","0.0-5.0-1.0-0.0-0.0-2.0-0.0-0.0-1.1","1183","motion_test","arrowright","","true","[""ArrowLeft"",""ArrowRight""]","ArrowRight","3000","true","1","100","0","0.1","0","5.7","1","-1","3","550","550","[""hsl(0, 50%, 50%)"",""hsl(225, 50%, 50%)""]","[""white""]","0","0","12","circle","black","3","2","2","16.788732394366196","[11,17,17,16,17,17,17,16,17,17,17,18,16,17,17,17,17,17,17,17,17,17,17,17,16,17,17,17,17,17,17,17,17,17,17,16,17,17,17,17,17,17,17,17,17,17,16,17,17,17,17,17,17,17,17,17,17,16,17,17,16,17,17,17,16,17,16,17,17,17,17]","71","965","360","false","20","20","black","1","false","1","1","1820","630","ArrowRight","staircase_motion","","","","",""
"","","","","","html-keyboard-response","159","334134","0.0-5.0-1.0-0.0-0.0-2.0-0.0-0.0-2.1","null","","null","<p style='font-size: 60px; color: green'>正确!</p>","","","","","","","","","","","","","","","","","","","","","","","","","","","","","","","","","","","","","","","","","","","","","","","",""
"","","","","","html-keyboard-response","160","335151","0.0-5.0-1.0-0.0-0.0-2.0-0.0-0.0-0.2","null","fixation","null","<p style='font-size: 48px; color: white'>+</p >","","","","","","","","","","","","","","","","","","","","","","","","","","","","","","","","","","","","","","","","","","","","","","","",""
"","","","","","rdk","161","336607","0.0-5.0-1.0-0.0-0.0-2.0-0.0-0.0-1.2","938","motion_test","arrowleft","","false","[""ArrowLeft"",""ArrowRight""]","ArrowRight","3000","true","1","100","0","0.1","0","5.7","1","-1","3","550","550","[""hsl(0, 50%, 50%)"",""hsl(225, 50%, 50%)""]","[""white""]","0","0","12","circle","black","3","2","2","16.696428571428573","[12,17,17,17,18,17,17,16,17,17,17,17,16,16,16,17,17,17,17,17,17,16,16,17,17,17,18,17,17,16,17,17,17,16,17,16,17,17,16,16,17,17,16,17,17,16,17,17,17,16,17,17,17,17,17,17]","56","965","360","false","20","20","black","1","false","1","1","1820","630","ArrowRight","staircase_motion","","","","",""
"","","","","","html-keyboard-response","162","337634","0.0-5.0-1.0-0.0-0.0-2.0-0.0-0.0-2.2","null","","null","<p style='font-size: 60px; color: red'>错误!</p>","","","","","","","","","","","","","","","","","","","","","","","","","","","","","","","","","","","","","","","","","","","","","","","",""
"","","","","","html-keyboard-response","163","338651","0.0-5.0-1.0-0.0-0.0-2.0-0.0-0.0-0.3","null","fixation","null","<p style='font-size: 48px; color: white'>+</p >","","","","","","","","","","","","","","","","","","","","","","","","","","","","","","","","","","","","","","","","","","","","","","","",""
"","","","","","rdk","164","340271","0.0-5.0-1.0-0.0-0.0-2.0-0.0-0.0-1.3","1103","motion_test","arrowleft","","true","[""ArrowLeft"",""ArrowRight""]","ArrowLeft","3000","true","1","100","180","0.1","0","5.7","1","-1","3","550","550","[""hsl(0, 50%, 50%)"",""hsl(225, 50%, 50%)""]","[""white""]","0","0","12","circle","black","3","2","2","16.818181818181817","[12,17,17,17,17,17,17,17,17,16,17,17,17,17,17,16,17,17,17,17,17,16,17,17,17,16,17,17,17,17,17,17,17,17,17,16,17,16,17,17,17,17,17,17,17,17,17,17,17,17,17,17,17,17,17,17,17,17,17,16,17,17,17,17,17,17]","66","965","360","false","20","20","black","1","false","1","1","1820","630","ArrowLeft","staircase_motion","","","","",""
"","","","","","html-keyboard-response","165","341301","0.0-5.0-1.0-0.0-0.0-2.0-0.0-0.0-2.3","null","","null","<p style='font-size: 60px; color: green'>正确!</p>","","","","","","","","","","","","","","","","","","","","","","","","","","","","","","","","","","","","","","","","","","","","","","","",""
"","","","","","html-keyboard-response","166","342318","0.0-5.0-1.0-0.0-0.0-2.0-0.0-0.0-0.4","null","fixation","null","<p style='font-size: 48px; color: white'>+</p >","","","","","","","","","","","","","","","","","","","","","","","","","","","","","","","","","","","","","","","","","","","","","","","",""
"","","","","","rdk","167","343983","0.0-5.0-1.0-0.0-0.0-2.0-0.0-0.0-1.4","1148","motion_test","arrowleft","","true","[""ArrowLeft"",""ArrowRight""]","ArrowLeft","3000","true","1","100","180","0.1","0","5.7","1","-1","3","550","550","[""hsl(0, 50%, 50%)"",""hsl(225, 50%, 50%)""]","[""white""]","0","0","12","circle","black","3","2","2","16.855072463768117","[11,17,17,17,17,17,17,17,17,16,17,17,17,17,17,17,17,17,17,17,17,17,17,17,17,17,17,17,17,17,17,17,17,16,17,17,17,17,16,17,17,17,17,17,17,17,17,17,17,17,17,17,17,17,17,17,17,17,17,16,17,17,17,17,17,17,17,17,17]","69","965","360","false","20","20","black","1","false","1","1","1820","630","ArrowLeft","staircase_motion","","","","",""
"","","","","","html-keyboard-response","168","345000","0.0-5.0-1.0-0.0-0.0-2.0-0.0-0.0-2.4","null","","null","<p style='font-size: 60px; color: green'>正确!</p>","","","","","","","","","","","","","","","","","","","","","","","","","","","","","","","","","","","","","","","","","","","","","","","",""
"","","","","","html-keyboard-response","169","346002","0.0-5.0-1.0-0.0-0.0-2.0-0.0-0.0-0.5","null","fixation","null","<p style='font-size: 48px; color: white'>+</p >","","","","","","","","","","","","","","","","","","","","","","","","","","","","","","","","","","","","","","","","","","","","","","","",""
"","","","","","rdk","170","347583","0.0-5.0-1.0-0.0-0.0-2.0-0.0-0.0-1.5","1065","motion_test","arrowleft","","false","[""ArrowLeft"",""ArrowRight""]","ArrowRight","3000","true","1","100","0","0.1","0","5.7","1","-1","3","550","550","[""hsl(0, 50%, 50%)"",""hsl(225, 50%, 50%)""]","[""white""]","0","0","12","circle","black","3","2","2","16.84375","[11,17,17,17,17,17,17,16,17,17,17,17,16,17,16,17,17,17,17,17,17,17,17,17,17,17,17,17,17,17,17,17,17,17,17,17,17,17,17,17,17,17,17,17,17,17,17,17,17,17,16,17,17,17,17,17,17,17,17,17,17,17,17,17]","64","965","360","false","20","20","black","1","false","1","1","1820","630","ArrowRight","staircase_motion","","","","",""
"","","","","","html-keyboard-response","171","348601","0.0-5.0-1.0-0.0-0.0-2.0-0.0-0.0-2.5","null","","null","<p style='font-size: 60px; color: red'>错误!</p>","","","","","","","","","","","","","","","","","","","","","","","","","","","","","","","","","","","","","","","","","","","","","","","",""
"","","","","","html-keyboard-response","172","349618","0.0-5.0-1.0-0.0-0.0-2.0-0.0-0.0-0.6","null","fixation","null","<p style='font-size: 48px; color: white'>+</p >","","","","","","","","","","","","","","","","","","","","","","","","","","","","","","","","","","","","","","","","","","","","","","","",""
"","","","","","rdk","173","351039","0.0-5.0-1.0-0.0-0.0-2.0-0.0-0.0-1.6","905","motion_test","arrowleft","","true","[""ArrowLeft"",""ArrowRight""]","ArrowLeft","3000","true","1","100","180","0.1","0","5.7","1","-1","3","550","550","[""hsl(0, 50%, 50%)"",""hsl(225, 50%, 50%)""]","[""white""]","0","0","12","circle","black","3","2","2","16.87037037037037","[14,17,17,17,17,17,17,17,16,17,16,17,17,17,17,17,17,17,17,17,17,17,16,17,17,17,17,17,17,17,17,16,17,17,17,17,17,17,17,17,17,17,17,17,17,17,17,17,17,17,17,17,17,17]","54","965","360","false","20","20","black","1","false","1","1","1820","630","ArrowLeft","staircase_motion","","","","",""
"","","","","","html-keyboard-response","174","352068","0.0-5.0-1.0-0.0-0.0-2.0-0.0-0.0-2.6","null","","null","<p style='font-size: 60px; color: green'>正确!</p>","","","","","","","","","","","","","","","","","","","","","","","","","","","","","","","","","","","","","","","","","","","","","","","",""
"","","","","","html-keyboard-response","175","353084","0.0-5.0-1.0-0.0-0.0-2.0-0.0-0.0-0.7","null","fixation","null","<p style='font-size: 48px; color: white'>+</p >","","","","","","","","","","","","","","","","","","","","","","","","","","","","","","","","","","","","","","","","","","","","","","","",""
"","","","","","rdk","176","355039","0.0-5.0-1.0-0.0-0.0-2.0-0.0-0.0-1.7","1453","motion_test","arrowright","","true","[""ArrowLeft"",""ArrowRight""]","ArrowRight","3000","true","1","100","0","0.1","0","5.7","1","-1","3","550","550","[""hsl(0, 50%, 50%)"",""hsl(225, 50%, 50%)""]","[""white""]","0","0","12","circle","black","3","2","2","16.701149425287355","[10,17,17,17,17,17,17,17,16,17,17,17,17,17,16,17,17,17,17,17,17,17,16,17,17,17,17,17,17,17,16,17,17,17,17,17,17,17,17,17,17,17,16,17,16,17,16,17,17,16,16,17,16,17,17,18,16,17,16,17,17,16,17,17,16,17,17,17,17,16,17,17,16,17,17,17,16,17,17,17,16,17,17,17,17,16,16]","87","965","360","false","20","20","black","1","false","1","1","1820","630","ArrowRight","staircase_motion","","","","",""
"","","","","","html-keyboard-response","177","356068","0.0-5.0-1.0-0.0-0.0-2.0-0.0-0.0-2.7","null","","null","<p style='font-size: 60px; color: green'>正确!</p>","","","","","","","","","","","","","","","","","","","","","","","","","","","","","","","","","","","","","","","","","","","","","","","",""
"","","","","","html-keyboard-response","178","357084","0.0-5.0-1.0-0.0-0.0-2.0-0.0-0.0-0.8","null","fixation","null","<p style='font-size: 48px; color: white'>+</p >","","","","","","","","","","","","","","","","","","","","","","","","","","","","","","","","","","","","","","","","","","","","","","","",""
"","","","","","rdk","179","358590","0.0-5.0-1.0-0.0-0.0-2.0-0.0-0.0-1.8","989","motion_test","arrowright","","true","[""ArrowLeft"",""ArrowRight""]","ArrowRight","3000","true","1","100","0","0.1","0","5.7","1","-1","3","550","550","[""hsl(0, 50%, 50%)"",""hsl(225, 50%, 50%)""]","[""white""]","0","0","12","circle","black","3","2","2","16.864406779661017","[12,17,17,17,17,17,17,17,17,17,17,17,17,16,17,17,17,17,17,17,17,17,17,17,17,17,17,17,17,17,17,17,17,17,17,17,17,17,17,17,17,17,17,17,17,17,17,17,17,16,17,17,17,16,17,17,17,17,17]","59","965","360","false","20","20","black","1","false","1","1","1820","630","ArrowRight","staircase_motion","","","","",""
"","","","","","html-keyboard-response","180","359617","0.0-5.0-1.0-0.0-0.0-2.0-0.0-0.0-2.8","null","","null","<p style='font-size: 60px; color: green'>正确!</p>","","","","","","","","","","","","","","","","","","","","","","","","","","","","","","","","","","","","","","","","","","","","","","","",""
"","","","","","html-keyboard-response","181","360634","0.0-5.0-1.0-0.0-0.0-2.0-0.0-0.0-0.9","null","fixation","null","<p style='font-size: 48px; color: white'>+</p >","","","","","","","","","","","","","","","","","","","","","","","","","","","","","","","","","","","","","","","","","","","","","","","",""
"","","","","","rdk","182","362047","0.0-5.0-1.0-0.0-0.0-2.0-0.0-0.0-1.9","911","motion_test","arrowleft","","true","[""ArrowLeft"",""ArrowRight""]","ArrowLeft","3000","true","1","100","180","0.1","0","5.7","1","-1","3","550","550","[""hsl(0, 50%, 50%)"",""hsl(225, 50%, 50%)""]","[""white""]","0","0","12","circle","black","3","2","2","16.685185185185187","[11,16,17,17,17,17,17,17,17,17,17,17,17,17,17,17,15,17,16,17,17,17,17,17,17,17,17,17,17,17,17,17,16,17,17,16,17,17,16,17,16,17,17,16,17,17,16,17,17,16,17,17,17,17]","54","965","360","false","20","20","black","1","false","1","1","1820","630","ArrowLeft","staircase_motion","","","","",""
"","","","","","html-keyboard-response","183","363068","0.0-5.0-1.0-0.0-0.0-2.0-0.0-0.0-2.9","null","","null","<p style='font-size: 60px; color: green'>正确!</p>","","","","","","","","","","","","","","","","","","","","","","","","","","","","","","","","","","","","","","","","","","","","","","","",""
"","","","","","html-keyboard-response","184","364084","0.0-5.0-1.0-0.0-0.0-2.0-0.0-0.0-0.10","null","fixation","null","<p style='font-size: 48px; color: white'>+</p >","","","","","","","","","","","","","","","","","","","","","","","","","","","","","","","","","","","","","","","","","","","","","","","",""
"","","","","","rdk","185","365407","0.0-5.0-1.0-0.0-0.0-2.0-0.0-0.0-1.10","821","motion_test","arrowleft","","true","[""ArrowLeft"",""ArrowRight""]","ArrowLeft","3000","true","1","100","180","0.1","0","5.7","1","-1","3","550","550","[""hsl(0, 50%, 50%)"",""hsl(225, 50%, 50%)""]","[""white""]","0","0","12","circle","black","3","2","2","16.775510204081634","[11,17,17,17,17,17,17,17,16,17,17,17,16,17,17,16,17,17,17,17,16,17,17,17,17,17,17,17,17,17,17,17,17,17,17,17,17,17,17,17,16,17,17,17,17,17,17,17,17]","49","965","360","false","20","20","black","1","false","1","1","1820","630","ArrowLeft","staircase_motion","","","","",""
"","","","","","html-keyboard-response","186","366434","0.0-5.0-1.0-0.0-0.0-2.0-0.0-0.0-2.10","null","","null","<p style='font-size: 60px; color: green'>正确!</p>","","","","","","","","","","","","","","","","","","","","","","","","","","","","","","","","","","","","","","","","","","","","","","","",""
"","","","","","html-keyboard-response","187","367450","0.0-5.0-1.0-0.0-0.0-2.0-0.0-0.0-0.11","null","fixation","null","<p style='font-size: 48px; color: white'>+</p >","","","","","","","","","","","","","","","","","","","","","","","","","","","","","","","","","","","","","","","","","","","","","","","",""
"","","","","","rdk","188","369071","0.0-5.0-1.0-0.0-0.0-2.0-0.0-0.0-1.11","1118","motion_test","arrowright","","true","[""ArrowLeft"",""ArrowRight""]","ArrowRight","3000","true","1","100","0","0.1","0","5.7","1","-1","3","550","550","[""hsl(0, 50%, 50%)"",""hsl(225, 50%, 50%)""]","[""white""]","0","0","12","circle","black","3","2","2","16.83582089552239","[11,17,17,17,17,17,16,17,17,17,17,17,17,17,17,16,17,17,17,17,17,17,17,17,17,17,17,17,17,17,17,17,17,17,17,17,17,17,17,17,17,17,17,17,17,17,17,17,17,17,17,17,17,16,17,17,17,16,17,17,17,16,17,17,17,17,17]","67","965","360","false","20","20","black","1","false","1","1","1820","630","ArrowRight","staircase_motion","","","","",""
"","","","","","html-keyboard-response","189","370100","0.0-5.0-1.0-0.0-0.0-2.0-0.0-0.0-2.11","null","","null","<p style='font-size: 60px; color: green'>正确!</p>","","","","","","","","","","","","","","","","","","","","","","","","","","","","","","","","","","","","","","","","","","","","","","","",""
"","","","","","html-keyboard-response","190","372617","0.0-5.0-1.0-0.0-0.0-2.0-0.0-1.0","null","","null","<p style='font-size: 35px; color: white'>您的正确率为： 75% 。平均反应时为：1110毫秒。</p>","","","","","","","","","","","","","","","","","","","","","","","","","","","","","","","","","","","","","","","","","","","","","","","",""
"","","","","","html-keyboard-response","191","373634","0.0-5.0-1.0-0.0-0.0-2.1-0.1-0.1-0.12","null","fixation","null","<p style='font-size: 48px; color: white'>+</p >","","","","","","","","","","","","","","","","","","","","","","","","","","","","","","","","","","","","","","","","","","","","","","","",""
"","","","","","rdk","192","375663","0.0-5.0-1.0-0.0-0.0-2.1-0.1-0.1-1.12","1527","motion_test","arrowleft","","true","[""ArrowLeft"",""ArrowRight""]","ArrowLeft","3000","true","1","100","180","0.05","0","5.7","1","-1","3","550","550","[""hsl(0, 50%, 50%)"",""hsl(225, 50%, 50%)""]","[""white""]","0","0","12","circle","black","3","2","2","16.67032967032967","[12,17,17,17,17,17,16,17,17,16,17,17,16,17,15,17,17,17,18,16,17,17,16,16,17,17,16,17,17,16,17,17,17,17,18,16,17,17,17,16,17,17,16,16,17,17,17,16,17,17,17,17,17,17,16,17,16,17,16,17,17,17,17,16,17,16,16,17,16,17,17,16,17,16,17,17,16,17,17,17,17,16,17,17,16,17,17,17,17,17,17]","91","965","360","false","20","20","black","1","false","1","1","1820","630","ArrowLeft","staircase_motion","","","","",""
"","","","","","html-keyboard-response","193","376684","0.0-5.0-1.0-0.0-0.0-2.1-0.1-0.1-2.12","null","","null","<p style='font-size: 60px; color: green'>正确!</p>","","","","","","","","","","","","","","","","","","","","","","","","","","","","","","","","","","","","","","","","","","","","","","","",""
"","","","","","html-keyboard-response","194","377701","0.0-5.0-1.0-0.0-0.0-2.1-0.1-0.1-0.13","null","fixation","null","<p style='font-size: 48px; color: white'>+</p >","","","","","","","","","","","","","","","","","","","","","","","","","","","","","","","","","","","","","","","","","","","","","","","",""
"","","","","","rdk","195","379247","0.0-5.0-1.0-0.0-0.0-2.1-0.1-0.1-1.13","1029","motion_test","arrowleft","","true","[""ArrowLeft"",""ArrowRight""]","ArrowLeft","3000","true","1","100","180","0.05","0","5.7","1","-1","3","550","550","[""hsl(0, 50%, 50%)"",""hsl(225, 50%, 50%)""]","[""white""]","0","0","12","circle","black","3","2","2","16.868852459016395","[12,17,17,17,17,17,17,17,17,16,17,17,17,17,17,17,17,17,17,17,17,17,17,17,17,17,17,17,17,17,17,17,17,17,17,17,17,17,17,17,17,17,17,17,17,17,17,17,17,17,17,17,17,17,17,17,16,17,17,16,17]","61","965","360","false","20","20","black","1","false","1","1","1820","630","ArrowLeft","staircase_motion","","","","",""
"","","","","","html-keyboard-response","196","380267","0.0-5.0-1.0-0.0-0.0-2.1-0.1-0.1-2.13","null","","null","<p style='font-size: 60px; color: green'>正确!</p>","","","","","","","","","","","","","","","","","","","","","","","","","","","","","","","","","","","","","","","","","","","","","","","",""
"","","","","","html-keyboard-response","197","381269","0.0-5.0-1.0-0.0-0.0-2.1-0.1-0.1-0.14","null","fixation","null","<p style='font-size: 48px; color: white'>+</p >","","","","","","","","","","","","","","","","","","","","","","","","","","","","","","","","","","","","","","","","","","","","","","","",""
"","","","","","rdk","198","383838","0.0-5.0-1.0-0.0-0.0-2.1-0.1-0.1-1.14","2053","motion_test","arrowright","","true","[""ArrowLeft"",""ArrowRight""]","ArrowRight","3000","true","1","100","0","0.05","0","5.7","1","-1","3","550","550","[""hsl(0, 50%, 50%)"",""hsl(225, 50%, 50%)""]","[""white""]","0","0","12","circle","black","3","2","2","16.89430894308943","[12,17,17,17,17,16,17,17,17,17,17,17,17,16,17,17,17,16,17,17,17,17,17,17,17,17,17,17,17,17,17,17,17,17,17,17,17,17,17,17,17,17,17,17,17,17,17,17,17,17,17,17,17,17,17,17,16,17,17,17,17,17,17,17,17,17,17,17,17,17,17,17,16,17,17,17,17,16,17,17,17,17,17,17,17,17,17,17,16,17,17,17,17,17,17,17,17,17,17,17,17,18,17,17,17,17,17,17,17,17,17,17,17,17,17,17,17,17,17,17,17,16,16]","123","965","360","false","20","20","black","1","false","1","1","1820","630","ArrowRight","staircase_motion","","","","",""
"","","","","","html-keyboard-response","199","384867","0.0-5.0-1.0-0.0-0.0-2.1-0.1-0.1-2.14","null","","null","<p style='font-size: 60px; color: green'>正确!</p>","","","","","","","","","","","","","","","","","","","","","","","","","","","","","","","","","","","","","","","","","","","","","","","",""
"","","","","","html-keyboard-response","200","385884","0.0-5.0-1.0-0.0-0.0-2.1-0.1-0.1-0.15","null","fixation","null","<p style='font-size: 48px; color: white'>+</p >","","","","","","","","","","","","","","","","","","","","","","","","","","","","","","","","","","","","","","","","","","","","","","","",""
"","","","","","rdk","201","387423","0.0-5.0-1.0-0.0-0.0-2.1-0.1-0.1-1.15","1037","motion_test","arrowleft","","false","[""ArrowLeft"",""ArrowRight""]","ArrowRight","3000","true","1","100","0","0.05","0","5.7","1","-1","3","550","550","[""hsl(0, 50%, 50%)"",""hsl(225, 50%, 50%)""]","[""white""]","0","0","12","circle","black","3","2","2","16.85483870967742","[11,17,17,17,17,17,17,16,17,17,17,17,17,17,17,17,17,17,17,17,17,17,17,17,17,17,17,17,17,17,17,16,17,17,17,17,17,17,17,17,17,17,17,17,17,17,17,17,17,17,16,17,17,17,17,17,17,17,17,17,17,17]","62","965","360","false","20","20","black","1","false","1","1","1820","630","ArrowRight","staircase_motion","","","","",""
"","","","","","html-keyboard-response","202","388450","0.0-5.0-1.0-0.0-0.0-2.1-0.1-0.1-2.15","null","","null","<p style='font-size: 60px; color: red'>错误!</p>","","","","","","","","","","","","","","","","","","","","","","","","","","","","","","","","","","","","","","","","","","","","","","","",""
"","","","","","html-keyboard-response","203","389468","0.0-5.0-1.0-0.0-0.0-2.1-0.1-0.1-0.16","null","fixation","null","<p style='font-size: 48px; color: white'>+</p >","","","","","","","","","","","","","","","","","","","","","","","","","","","","","","","","","","","","","","","","","","","","","","","",""
"","","","","","rdk","204","391279","0.0-5.0-1.0-0.0-0.0-2.1-0.1-0.1-1.16","1294","motion_test","arrowright","","false","[""ArrowLeft"",""ArrowRight""]","ArrowLeft","3000","true","1","100","180","0.05","0","5.7","1","-1","3","550","550","[""hsl(0, 50%, 50%)"",""hsl(225, 50%, 50%)""]","[""white""]","0","0","12","circle","black","3","2","2","16.83116883116883","[12,17,17,17,17,16,17,17,17,17,17,17,17,17,17,17,17,17,17,17,17,17,17,17,17,17,16,17,17,17,17,17,17,17,17,16,17,17,17,17,17,17,16,17,16,17,17,17,17,17,17,17,17,16,17,17,17,16,17,17,17,17,17,17,17,17,17,17,16,17,17,17,17,17,17,17,17]","77","965","360","false","20","20","black","1","false","1","1","1820","630","ArrowLeft","staircase_motion","","","","",""
"","","","","","html-keyboard-response","205","392300","0.0-5.0-1.0-0.0-0.0-2.1-0.1-0.1-2.16","null","","null","<p style='font-size: 60px; color: red'>错误!</p>","","","","","","","","","","","","","","","","","","","","","","","","","","","","","","","","","","","","","","","","","","","","","","","",""
"","","","","","html-keyboard-response","206","393317","0.0-5.0-1.0-0.0-0.0-2.1-0.1-0.1-0.17","null","fixation","null","<p style='font-size: 48px; color: white'>+</p >","","","","","","","","","","","","","","","","","","","","","","","","","","","","","","","","","","","","","","","","","","","","","","","",""
"","","","","","rdk","207","394991","0.0-5.0-1.0-0.0-0.0-2.1-0.1-0.1-1.17","1171","motion_test","arrowleft","","true","[""ArrowLeft"",""ArrowRight""]","ArrowLeft","3000","true","1","100","180","0.05","0","5.7","1","-1","3","550","550","[""hsl(0, 50%, 50%)"",""hsl(225, 50%, 50%)""]","[""white""]","0","0","12","circle","black","3","2","2","16.67142857142857","[10,18,17,17,17,16,17,17,16,17,17,16,17,17,17,17,16,17,17,17,17,16,17,17,17,17,16,16,17,17,17,16,17,16,17,17,17,17,16,17,17,17,17,17,17,17,16,17,17,17,16,17,16,16,17,16,16,17,17,17,17,16,17,17,17,17,17,17,17,17]","70","965","360","false","20","20","black","1","false","1","1","1820","630","ArrowLeft","staircase_motion","","","","",""
"","","","","","html-keyboard-response","208","396017","0.0-5.0-1.0-0.0-0.0-2.1-0.1-0.1-2.17","null","","null","<p style='font-size: 60px; color: green'>正确!</p>","","","","","","","","","","","","","","","","","","","","","","","","","","","","","","","","","","","","","","","","","","","","","","","",""
"","","","","","html-keyboard-response","209","397034","0.0-5.0-1.0-0.0-0.0-2.1-0.1-0.1-0.18","null","fixation","null","<p style='font-size: 48px; color: white'>+</p >","","","","","","","","","","","","","","","","","","","","","","","","","","","","","","","","","","","","","","","","","","","","","","","",""
"","","","","","rdk","210","398655","0.0-5.0-1.0-0.0-0.0-2.1-0.1-0.1-1.18","1103","motion_test","arrowleft","","false","[""ArrowLeft"",""ArrowRight""]","ArrowRight","3000","true","1","100","0","0.05","0","5.7","1","-1","3","550","550","[""hsl(0, 50%, 50%)"",""hsl(225, 50%, 50%)""]","[""white""]","0","0","12","circle","black","3","2","2","16.818181818181817","[12,17,17,17,17,17,17,17,17,17,17,17,17,17,17,17,16,17,17,17,17,17,17,16,17,17,17,17,17,17,17,17,17,17,17,17,17,17,17,17,17,17,17,16,17,17,16,17,17,17,17,17,17,16,17,17,17,17,17,16,17,16,17,17,17,17]","66","965","360","false","20","20","black","1","false","1","1","1820","630","ArrowRight","staircase_motion","","","","",""
"","","","","","html-keyboard-response","211","399669","0.0-5.0-1.0-0.0-0.0-2.1-0.1-0.1-2.18","null","","null","<p style='font-size: 60px; color: red'>错误!</p>","","","","","","","","","","","","","","","","","","","","","","","","","","","","","","","","","","","","","","","","","","","","","","","",""
"","","","","","html-keyboard-response","212","400685","0.0-5.0-1.0-0.0-0.0-2.1-0.1-0.1-0.19","null","fixation","null","<p style='font-size: 48px; color: white'>+</p >","","","","","","","","","","","","","","","","","","","","","","","","","","","","","","","","","","","","","","","","","","","","","","","",""
"","","","","","rdk","213","402895","0.0-5.0-1.0-0.0-0.0-2.1-0.1-0.1-1.19","1694","motion_test","arrowleft","","false","[""ArrowLeft"",""ArrowRight""]","ArrowRight","3000","true","1","100","0","0.05","0","5.7","1","-1","3","550","550","[""hsl(0, 50%, 50%)"",""hsl(225, 50%, 50%)""]","[""white""]","0","0","12","circle","black","3","2","2","16.81188118811881","[14,17,17,17,17,17,16,17,17,17,17,17,15,18,16,17,16,17,17,17,17,17,17,17,17,17,16,17,17,16,17,16,17,17,17,17,17,17,17,17,16,17,17,17,16,17,17,17,17,17,16,17,17,16,17,17,17,17,17,17,17,17,17,17,17,17,16,17,17,17,17,17,17,17,17,17,17,17,17,17,17,17,16,17,17,17,17,17,17,17,16,17,17,17,17,16,17,17,17,16,17]","101","965","360","false","20","20","black","1","false","1","1","1820","630","ArrowRight","staircase_motion","","","","",""
"","","","","","html-keyboard-response","214","403902","0.0-5.0-1.0-0.0-0.0-2.1-0.1-0.1-2.19","null","","null","<p style='font-size: 60px; color: red'>错误!</p>","","","","","","","","","","","","","","","","","","","","","","","","","","","","","","","","","","","","","","","","","","","","","","","",""
"","","","","","html-keyboard-response","215","404919","0.0-5.0-1.0-0.0-0.0-2.1-0.1-0.1-0.20","null","fixation","null","<p style='font-size: 48px; color: white'>+</p >","","","","","","","","","","","","","","","","","","","","","","","","","","","","","","","","","","","","","","","","","","","","","","","",""
"","","","","","rdk","216","406575","0.0-5.0-1.0-0.0-0.0-2.1-0.1-0.1-1.20","1140","motion_test","arrowright","","false","[""ArrowLeft"",""ArrowRight""]","ArrowLeft","3000","true","1","100","180","0.05","0","5.7","1","-1","3","550","550","[""hsl(0, 50%, 50%)"",""hsl(225, 50%, 50%)""]","[""white""]","0","0","12","circle","black","3","2","2","16.794117647058822","[12,16,17,17,17,17,17,17,17,17,17,17,17,17,17,17,17,17,16,17,17,16,16,17,17,17,17,17,16,17,17,17,16,17,17,17,17,17,17,17,17,17,17,17,17,17,16,17,17,17,17,17,17,17,17,17,17,17,17,17,16,17,17,17,17,17,16,17]","68","965","360","false","20","20","black","1","false","1","1","1820","630","ArrowLeft","staircase_motion","","","","",""
"","","","","","html-keyboard-response","217","407601","0.0-5.0-1.0-0.0-0.0-2.1-0.1-0.1-2.20","null","","null","<p style='font-size: 60px; color: red'>错误!</p>","","","","","","","","","","","","","","","","","","","","","","","","","","","","","","","","","","","","","","","","","","","","","","","",""
"","","","","","html-keyboard-response","218","408618","0.0-5.0-1.0-0.0-0.0-2.1-0.1-0.1-0.21","null","fixation","null","<p style='font-size: 48px; color: white'>+</p >","","","","","","","","","","","","","","","","","","","","","","","","","","","","","","","","","","","","","","","","","","","","","","","",""
"","","","","","rdk","219","411151","0.0-5.0-1.0-0.0-0.0-2.1-0.1-0.1-1.21","2032","motion_test","arrowright","","true","[""ArrowLeft"",""ArrowRight""]","ArrowRight","3000","true","1","100","0","0.05","0","5.7","1","-1","3","550","550","[""hsl(0, 50%, 50%)"",""hsl(225, 50%, 50%)""]","[""white""]","0","0","12","circle","black","3","2","2","16.89344262295082","[12,17,17,17,16,17,17,17,17,17,17,16,17,17,16,17,17,17,17,17,17,17,17,16,17,16,17,17,17,17,17,17,17,17,17,17,17,17,17,17,17,17,17,16,17,17,17,17,17,17,17,17,17,17,17,17,17,17,17,17,17,16,17,17,17,17,17,17,17,17,17,17,17,17,16,17,17,17,17,17,17,17,17,17,17,17,17,17,17,17,17,17,17,17,17,17,17,17,17,17,17,17,17,17,17,17,17,17,17,17,17,17,17,17,17,17,17,17,17,17,17,17]","122","965","360","false","20","20","black","1","false","1","1","1820","630","ArrowRight","staircase_motion","","","","",""
"","","","","","html-keyboard-response","220","412167","0.0-5.0-1.0-0.0-0.0-2.1-0.1-0.1-2.21","null","","null","<p style='font-size: 60px; color: green'>正确!</p>","","","","","","","","","","","","","","","","","","","","","","","","","","","","","","","","","","","","","","","","","","","","","","","",""
"","","","","","html-keyboard-response","221","413184","0.0-5.0-1.0-0.0-0.0-2.1-0.1-0.1-0.22","null","fixation","null","<p style='font-size: 48px; color: white'>+</p >","","","","","","","","","","","","","","","","","","","","","","","","","","","","","","","","","","","","","","","","","","","","","","","",""
"","","","","","rdk","222","415502","0.0-5.0-1.0-0.0-0.0-2.1-0.1-0.1-1.22","1816","motion_test","arrowright","","false","[""ArrowLeft"",""ArrowRight""]","ArrowLeft","3000","true","1","100","180","0.05","0","5.7","1","-1","3","550","550","[""hsl(0, 50%, 50%)"",""hsl(225, 50%, 50%)""]","[""white""]","0","0","12","circle","black","3","2","2","16.73394495412844","[10,17,17,18,16,17,17,17,16,16,17,18,16,18,16,17,16,17,17,17,16,17,17,17,16,17,17,17,17,16,17,17,17,15,17,17,17,17,17,17,17,17,17,17,17,16,17,17,16,17,17,17,17,17,17,16,17,16,17,16,17,17,17,16,17,17,17,17,17,17,16,17,17,17,17,17,16,17,16,17,17,16,17,17,17,17,17,17,17,16,17,16,17,17,18,17,16,17,17,17,17,17,17,17,16,17,17,16,17]","109","965","360","false","20","20","black","1","false","1","1","1820","630","ArrowLeft","staircase_motion","","","","",""
"","","","","","html-keyboard-response","223","416534","0.0-5.0-1.0-0.0-0.0-2.1-0.1-0.1-2.22","null","","null","<p style='font-size: 60px; color: red'>错误!</p>","","","","","","","","","","","","","","","","","","","","","","","","","","","","","","","","","","","","","","","","","","","","","","","",""
"","","","","","html-keyboard-response","224","417550","0.0-5.0-1.0-0.0-0.0-2.1-0.1-0.1-0.23","null","fixation","null","<p style='font-size: 48px; color: white'>+</p >","","","","","","","","","","","","","","","","","","","","","","","","","","","","","","","","","","","","","","","","","","","","","","","",""
"","","","","","rdk","225","420511","0.0-5.0-1.0-0.0-0.0-2.1-0.1-0.1-1.23","2458","motion_test","arrowleft","","false","[""ArrowLeft"",""ArrowRight""]","ArrowRight","3000","true","1","100","0","0.05","0","5.7","1","-1","3","550","550","[""hsl(0, 50%, 50%)"",""hsl(225, 50%, 50%)""]","[""white""]","0","0","12","circle","black","3","2","2","16.86394557823129","[11,17,17,17,17,17,17,17,17,17,17,17,16,16,17,17,17,17,17,17,17,17,17,17,17,17,17,17,17,17,17,17,17,17,17,17,17,17,16,17,17,17,17,17,17,17,17,17,16,17,17,17,16,17,17,17,17,17,17,17,16,17,17,17,17,17,17,17,17,17,17,17,17,17,17,17,16,17,17,17,17,17,17,17,17,17,17,17,17,17,17,17,17,17,17,17,16,17,17,17,17,17,17,17,17,17,17,17,16,17,17,17,16,17,17,17,17,17,17,17,17,17,17,16,17,17,17,17,17,17,17,17,16,17,16,17,17,17,17,17,17,17,16,17,17,17,17]","147","965","360","false","20","20","black","1","false","1","1","1820","630","ArrowRight","staircase_motion","","","","",""
"","","","","","html-keyboard-response","226","421518","0.0-5.0-1.0-0.0-0.0-2.1-0.1-0.1-2.23","null","","null","<p style='font-size: 60px; color: red'>错误!</p>","","","","","","","","","","","","","","","","","","","","","","","","","","","","","","","","","","","","","","","","","","","","","","","",""
"","","","","","html-keyboard-response","227","424034","0.0-5.0-1.0-0.0-0.0-2.1-0.1-1.1","null","","null","<p style='font-size: 35px; color: white'>您的正确率为： 42% 。平均反应时为：1530毫秒。</p>","","","","","","","","","","","","","","","","","","","","","","","","","","","","","","","","","","","","","","","","","","","","","","","",""
