"success","timeout","failed_images","failed_audio","failed_video","trial_type","trial_index","time_elapsed","internal_node_id","rt","part","response","stimulus","correct","choices","correct_choice","trial_duration","response_ends_trial","number_of_apertures","number_of_dots","coherent_direction","coherence","opposite_coherence","dot_radius","dot_side_length","dot_life","move_distance","aperture_width","aperture_height","dot_color","dot_color_final","color_change_delay","target_color_proportion","motion_change_delay","dot_shape","background_color","RDK_type","aperture_type","reinsert_type","frame_rate","frame_rate_array","number_of_frames","aperture_center_x","aperture_center_y","fixation_cross","fixation_cross_width","fixation_cross_height","fixation_cross_color","fixation_cross_thickness","border","border_thickness","border_color","canvas_width","canvas_height","correct_response","data_label","task","difficulty","isMatch","association","label"
"true","false","[]","[]","[]","preload","0","22","0.0-0.0","","","","","","","","","","","","","","","","","","","","","","","","","","","","","","","","","","","","","","","","","","","","","","","","","","","",""
"true","","","","","fullscreen","1","353918","0.0-1.0","352369","fullScreen","","","","","","","","","","","","","","","","","","","","","","","","","","","","","","","","","","","","","","","","","","","","","","","","","",""
"","","","","","survey","2","363935","0.0-2.0","9445","survey","{""sex"":""女"",""age"":23,""hands"":""右"",""color_blindness"":""都不是""}","","","","","","","","","","","","","","","","","","","","","","","","","","","","","","","","","","","","","","","","","","","","","","","","",""
"","","","","","survey-text","3","372706","0.0-3.0","8260","color_test","{""Q0"":""BE""}","","","","","","","","","","","","","","","","","","","","","","","","","","","","","","","","","","","","","","","","","","","","","","","","",""
"","","","","","html-keyboard-response","4","375819","0.0-4.0","2608","instruction_beginning"," ","
      <div style=""text-align: left; color: white"">
        <h3 style=""text-align: center; font-size: 30px; margin: 0;"">欢迎参与本实验</h3>
          <p>为充分保障您的权利，请确保您已经知晓并同意《参与实验同意书》以及《数据公开知情同意书》，</p>
          <p>如果您未见过上述内容，请咨询实验员 ，</p>
          <p>如果您选择继续实验，则表示您已经清楚两份知情同意书的内容并同意 。</p>
          <p>在整个实验中，您需要完成两项任务，具体的任务要求会在后面说明 ，</p>
          <p>请按空格键进入实验</p >
      </div>","","","","","","","","","","","","","","","","","","","","","","","","","","","","","","","","","","","","","","","","","","","","","","","",""
"","","","","","html-keyboard-response","5","404363","0.0-5.0-0.0","28034","instruction_getThreshold"," ","
        <div style=""text-align: left; color: white; padding: 10px""> 
          <h3 style=""text-align: center; font-size: 30px; margin: 10px"">欢迎进入实验！</h3>
          <p>在正式开始前，我们将通过一个快速测试为您打造专属的难度水平。<p>
          <p>接下来，屏幕上会呈现一些运动的圆点，其中一半为 <span style=""color: hsl(0, 50%, 50%)"">红色</span> ，一半为 <span style=""color: hsl(225, 50%, 50%)"">蓝色</span>，</p>
          <p><span style=""font-weight: bold"">大约0.2秒后,</span>  一部分点会随机变为另一种颜色（例如从红色变为蓝色），变化后某种颜色的数量会超过另一种。</p >
          <p>您需要在3秒内判断 <span style=""font-weight: bold"">变化后，散点图的整体颜色（即大多数点的颜色）是红色还是蓝色 </span>：</p >
          <ul>
            <li>整体为 <span style=""color: hsl(0, 50%, 50%)"">红色</span>，请按键盘 <span style=""color: hsl(0, 50%, 50%)"">""D"" 键</span></li>
            <li>整体为 <span style=""color: hsl(225, 50%, 50%)"">蓝色</span>，请按键盘 <span style=""color: hsl(225, 50%, 50%)"">""k"" 键</span> </li>
          </ul>
          <p>如有疑问请向主试咨询，没有则按下空格键开始</p>
        </div>","","","","","","","","","","","","","","","","","","","","","","","","","","","","","","","","","","","","","","","","","","","","","","","",""
"","","","","","html-keyboard-response","6","405393","0.0-5.0-1.0-1.0-0.0-0.0-0.0-0.0-0.0","null","fixation","null","<p style='font-size: 48px; color: white'>+</p >","","","","","","","","","","","","","","","","","","","","","","","","","","","","","","","","","","","","","","","","","","","","","","","",""
"","","","","","rdk","7","408908","0.0-5.0-1.0-1.0-0.0-0.0-0.0-0.0-1.0","-1","color_test","","","false","[""d"",""k""]","d","3000","true","1","100","0","0","0","5.7","1","-1","3","550","550","[""hsl(0, 50%, 50%)"",""hsl(225, 50%, 50%)""]","[""hsl(0, 50%, 50%)"",""hsl(225, 50%, 50%)""]","7","0.64","0","circle","black","3","2","2","16.861878453038674","[9,16,17,17,17,17,17,17,17,17,17,17,17,17,17,17,17,17,16,17,17,17,17,17,16,17,17,17,17,17,17,17,17,17,17,17,17,17,17,17,17,17,16,17,17,17,17,16,17,17,17,17,17,17,17,17,17,17,17,17,17,17,17,17,17,17,17,17,16,17,17,17,17,17,17,17,17,16,17,17,17,17,17,17,17,17,17,17,17,16,17,17,17,17,17,17,16,17,17,17,16,17,17,17,17,17,17,17,17,17,17,17,17,17,16,17,17,17,17,17,17,16,17,17,17,17,17,16,17,17,17,17,17,17,17,17,16,17,17,17,17,17,17,17,17,17,17,17,17,17,15,18,16,17,17,17,17,17,17,17,16,17,17,17,17,17,17,17,17,17,17,17,17,17,17,17,17,17,17,17,17]","181","965","360","false","20","20","black","1","false","1","1","1820","630","d","staircase_color","","","","",""
"","","","","","html-keyboard-response","8","409924","0.0-5.0-1.0-1.0-0.0-0.0-0.0-0.0-2.0","null","","null","<p style='font-size: 60px; color: yellow'>太慢!</p>","","","","","","","","","","","","","","","","","","","","","","","","","","","","","","","","","","","","","","","","","","","","","","","",""
"","","","","","html-keyboard-response","9","410943","0.0-5.0-1.0-1.0-0.0-0.0-0.0-0.0-0.1","null","fixation","null","<p style='font-size: 48px; color: white'>+</p >","","","","","","","","","","","","","","","","","","","","","","","","","","","","","","","","","","","","","","","","","","","","","","","",""
"","","","","","rdk","10","412922","0.0-5.0-1.0-1.0-0.0-0.0-0.0-0.0-1.1","1462","color_test","k","","true","[""d"",""k""]","k","3000","true","1","100","0","0","0","5.7","1","-1","3","550","550","[""hsl(0, 50%, 50%)"",""hsl(225, 50%, 50%)""]","[""hsl(225, 50%, 50%)"",""hsl(0, 50%, 50%)""]","7","0.64","0","circle","black","3","2","2","16.7816091954023","[11,17,17,17,17,17,17,17,17,17,17,16,16,17,17,17,17,17,17,17,17,17,17,17,16,17,17,17,17,17,16,17,17,16,17,17,17,17,17,17,16,17,17,16,17,17,16,17,17,17,17,17,17,17,17,16,17,16,17,17,16,17,17,17,17,17,17,17,17,17,17,17,16,17,17,17,17,17,17,17,17,17,17,17,17,17,16]","87","965","360","false","20","20","black","1","false","1","1","1820","630","k","staircase_color","","","","",""
"","","","","","html-keyboard-response","11","413926","0.0-5.0-1.0-1.0-0.0-0.0-0.0-0.0-2.1","null","","null","<p style='font-size: 60px; color: green'>正确!</p>","","","","","","","","","","","","","","","","","","","","","","","","","","","","","","","","","","","","","","","","","","","","","","","",""
"","","","","","html-keyboard-response","12","414958","0.0-5.0-1.0-1.0-0.0-0.0-0.0-0.0-0.2","null","fixation","null","<p style='font-size: 48px; color: white'>+</p >","","","","","","","","","","","","","","","","","","","","","","","","","","","","","","","","","","","","","","","","","","","","","","","",""
"","","","","","rdk","13","417466","0.0-5.0-1.0-1.0-0.0-0.0-0.0-0.0-1.2","1990","color_test","k","","true","[""d"",""k""]","k","3000","true","1","100","0","0","0","5.7","1","-1","3","550","550","[""hsl(0, 50%, 50%)"",""hsl(225, 50%, 50%)""]","[""hsl(225, 50%, 50%)"",""hsl(0, 50%, 50%)""]","7","0.64","0","circle","black","3","2","2","16.857142857142858","[11,17,17,17,17,17,17,17,17,16,17,17,17,17,17,17,17,17,17,17,17,17,17,17,17,17,17,17,17,17,17,17,17,17,17,16,17,16,17,17,17,17,16,17,17,16,17,16,17,17,17,17,17,17,17,17,17,16,17,16,17,17,16,17,17,17,17,16,17,17,17,17,17,17,17,17,17,17,17,17,17,17,17,17,17,17,17,17,17,17,17,17,17,17,17,17,16,17,17,17,17,17,17,17,17,17,17,17,17,17,17,17,17,17,17,17,17,17,17]","119","965","360","false","20","20","black","1","false","1","1","1820","630","k","staircase_color","","","","",""
"","","","","","html-keyboard-response","14","418491","0.0-5.0-1.0-1.0-0.0-0.0-0.0-0.0-2.2","null","","null","<p style='font-size: 60px; color: green'>正确!</p>","","","","","","","","","","","","","","","","","","","","","","","","","","","","","","","","","","","","","","","","","","","","","","","",""
"","","","","","html-keyboard-response","15","419508","0.0-5.0-1.0-1.0-0.0-0.0-0.0-0.0-0.3","null","fixation","null","<p style='font-size: 48px; color: white'>+</p >","","","","","","","","","","","","","","","","","","","","","","","","","","","","","","","","","","","","","","","","","","","","","","","",""
"","","","","","rdk","16","420778","0.0-5.0-1.0-1.0-0.0-0.0-0.0-0.0-1.3","767","color_test","d","","true","[""d"",""k""]","d","3000","true","1","100","0","0","0","5.7","1","-1","3","550","550","[""hsl(0, 50%, 50%)"",""hsl(225, 50%, 50%)""]","[""hsl(0, 50%, 50%)"",""hsl(225, 50%, 50%)""]","7","0.64","0","circle","black","3","2","2","16.82608695652174","[10,17,17,17,17,17,17,17,17,17,17,17,17,17,17,17,17,17,22,11,17,17,17,17,17,17,17,17,17,17,17,17,17,17,17,17,17,17,17,17,17,17,17,17,17,17]","46","965","360","false","20","20","black","1","false","1","1","1820","630","d","staircase_color","","","","",""
"","","","","","html-keyboard-response","17","421808","0.0-5.0-1.0-1.0-0.0-0.0-0.0-0.0-2.3","null","","null","<p style='font-size: 60px; color: green'>正确!</p>","","","","","","","","","","","","","","","","","","","","","","","","","","","","","","","","","","","","","","","","","","","","","","","",""
"","","","","","html-keyboard-response","18","422825","0.0-5.0-1.0-1.0-0.0-0.0-0.0-0.0-0.4","null","fixation","null","<p style='font-size: 48px; color: white'>+</p >","","","","","","","","","","","","","","","","","","","","","","","","","","","","","","","","","","","","","","","","","","","","","","","",""
"","","","","","rdk","19","424154","0.0-5.0-1.0-1.0-0.0-0.0-0.0-0.0-1.4","826","color_test","d","","true","[""d"",""k""]","d","3000","true","1","100","0","0","0","5.7","1","-1","3","550","550","[""hsl(0, 50%, 50%)"",""hsl(225, 50%, 50%)""]","[""hsl(0, 50%, 50%)"",""hsl(225, 50%, 50%)""]","7","0.64","0","circle","black","3","2","2","16.653061224489797","[10,17,17,17,17,17,17,17,16,16,17,17,16,17,17,17,16,17,17,17,17,16,17,17,17,17,17,16,17,17,17,17,17,16,17,17,17,17,16,17,17,17,17,17,17,16,17,16,17]","49","965","360","false","20","20","black","1","false","1","1","1820","630","d","staircase_color","","","","",""
"","","","","","html-keyboard-response","20","425174","0.0-5.0-1.0-1.0-0.0-0.0-0.0-0.0-2.4","null","","null","<p style='font-size: 60px; color: green'>正确!</p>","","","","","","","","","","","","","","","","","","","","","","","","","","","","","","","","","","","","","","","","","","","","","","","",""
"","","","","","html-keyboard-response","21","426176","0.0-5.0-1.0-1.0-0.0-0.0-0.0-0.0-0.5","null","fixation","null","<p style='font-size: 48px; color: white'>+</p >","","","","","","","","","","","","","","","","","","","","","","","","","","","","","","","","","","","","","","","","","","","","","","","",""
"","","","","","rdk","22","427370","0.0-5.0-1.0-1.0-0.0-0.0-0.0-0.0-1.5","678","color_test","k","","true","[""d"",""k""]","k","3000","true","1","100","0","0","0","5.7","1","-1","3","550","550","[""hsl(0, 50%, 50%)"",""hsl(225, 50%, 50%)""]","[""hsl(225, 50%, 50%)"",""hsl(0, 50%, 50%)""]","7","0.64","0","circle","black","3","2","2","16.8","[13,17,17,17,17,16,16,17,17,17,17,17,17,17,17,17,17,16,17,17,17,17,17,17,17,17,16,17,17,17,17,17,17,17,17,17,17,17,17,17]","40","965","360","false","20","20","black","1","false","1","1","1820","630","k","staircase_color","","","","",""
"","","","","","html-keyboard-response","23","428392","0.0-5.0-1.0-1.0-0.0-0.0-0.0-0.0-2.5","null","","null","<p style='font-size: 60px; color: green'>正确!</p>","","","","","","","","","","","","","","","","","","","","","","","","","","","","","","","","","","","","","","","","","","","","","","","",""
"","","","","","html-keyboard-response","24","429408","0.0-5.0-1.0-1.0-0.0-0.0-0.0-0.0-0.6","null","fixation","null","<p style='font-size: 48px; color: white'>+</p >","","","","","","","","","","","","","","","","","","","","","","","","","","","","","","","","","","","","","","","","","","","","","","","",""
"","","","","","rdk","25","430554","0.0-5.0-1.0-1.0-0.0-0.0-0.0-0.0-1.6","643","color_test","d","","true","[""d"",""k""]","d","3000","true","1","100","0","0","0","5.7","1","-1","3","550","550","[""hsl(0, 50%, 50%)"",""hsl(225, 50%, 50%)""]","[""hsl(0, 50%, 50%)"",""hsl(225, 50%, 50%)""]","7","0.64","0","circle","black","3","2","2","16.789473684210527","[10,17,17,17,17,17,17,17,17,17,16,17,17,17,17,17,17,17,17,17,17,17,17,17,17,17,17,17,17,17,17,17,17,17,17,17,17,17]","38","965","360","false","20","20","black","1","false","1","1","1820","630","d","staircase_color","","","","",""
"","","","","","html-keyboard-response","26","431575","0.0-5.0-1.0-1.0-0.0-0.0-0.0-0.0-2.6","null","","null","<p style='font-size: 60px; color: green'>正确!</p>","","","","","","","","","","","","","","","","","","","","","","","","","","","","","","","","","","","","","","","","","","","","","","","",""
"","","","","","html-keyboard-response","27","432592","0.0-5.0-1.0-1.0-0.0-0.0-0.0-0.0-0.7","null","fixation","null","<p style='font-size: 48px; color: white'>+</p >","","","","","","","","","","","","","","","","","","","","","","","","","","","","","","","","","","","","","","","","","","","","","","","",""
"","","","","","rdk","28","433818","0.0-5.0-1.0-1.0-0.0-0.0-0.0-0.0-1.7","723","color_test","k","","true","[""d"",""k""]","k","3000","true","1","100","0","0","0","5.7","1","-1","3","550","550","[""hsl(0, 50%, 50%)"",""hsl(225, 50%, 50%)""]","[""hsl(225, 50%, 50%)"",""hsl(0, 50%, 50%)""]","7","0.64","0","circle","black","3","2","2","16.651162790697676","[9,18,16,17,18,16,18,17,16,15,17,17,17,17,17,18,16,17,17,17,17,17,17,17,17,17,16,17,16,17,17,16,18,16,17,17,17,17,17,17,16,16,17]","43","965","360","false","20","20","black","1","false","1","1","1820","630","k","staircase_color","","","","",""
"","","","","","html-keyboard-response","29","434842","0.0-5.0-1.0-1.0-0.0-0.0-0.0-0.0-2.7","null","","null","<p style='font-size: 60px; color: green'>正确!</p>","","","","","","","","","","","","","","","","","","","","","","","","","","","","","","","","","","","","","","","","","","","","","","","",""
"","","","","","html-keyboard-response","30","435858","0.0-5.0-1.0-1.0-0.0-0.0-0.0-0.0-0.8","null","fixation","null","<p style='font-size: 48px; color: white'>+</p >","","","","","","","","","","","","","","","","","","","","","","","","","","","","","","","","","","","","","","","","","","","","","","","",""
"","","","","","rdk","31","437034","0.0-5.0-1.0-1.0-0.0-0.0-0.0-0.0-1.8","673","color_test","d","","true","[""d"",""k""]","d","3000","true","1","100","0","0","0","5.7","1","-1","3","550","550","[""hsl(0, 50%, 50%)"",""hsl(225, 50%, 50%)""]","[""hsl(0, 50%, 50%)"",""hsl(225, 50%, 50%)""]","7","0.64","0","circle","black","3","2","2","16.625","[10,19,17,17,16,17,17,17,17,17,17,16,17,16,18,16,17,16,17,17,17,17,16,17,17,16,17,16,17,16,17,17,16,16,17,17,17,17,17,17]","40","965","360","false","20","20","black","1","false","1","1","1820","630","d","staircase_color","","","","",""
"","","","","","html-keyboard-response","32","438059","0.0-5.0-1.0-1.0-0.0-0.0-0.0-0.0-2.8","null","","null","<p style='font-size: 60px; color: green'>正确!</p>","","","","","","","","","","","","","","","","","","","","","","","","","","","","","","","","","","","","","","","","","","","","","","","",""
"","","","","","html-keyboard-response","33","439075","0.0-5.0-1.0-1.0-0.0-0.0-0.0-0.0-0.9","null","fixation","null","<p style='font-size: 48px; color: white'>+</p >","","","","","","","","","","","","","","","","","","","","","","","","","","","","","","","","","","","","","","","","","","","","","","","",""
"","","","","","rdk","34","440282","0.0-5.0-1.0-1.0-0.0-0.0-0.0-0.0-1.9","704","color_test","k","","true","[""d"",""k""]","k","3000","true","1","100","0","0","0","5.7","1","-1","3","550","550","[""hsl(0, 50%, 50%)"",""hsl(225, 50%, 50%)""]","[""hsl(225, 50%, 50%)"",""hsl(0, 50%, 50%)""]","7","0.64","0","circle","black","3","2","2","16.785714285714285","[10,17,17,17,17,17,17,17,17,16,17,17,17,17,17,17,17,17,17,17,17,17,17,17,17,17,17,17,17,17,17,17,17,17,17,17,17,17,17,17,17,16]","42","965","360","false","20","20","black","1","false","1","1","1820","630","k","staircase_color","","","","",""
"","","","","","html-keyboard-response","35","441293","0.0-5.0-1.0-1.0-0.0-0.0-0.0-0.0-2.9","null","","null","<p style='font-size: 60px; color: green'>正确!</p>","","","","","","","","","","","","","","","","","","","","","","","","","","","","","","","","","","","","","","","","","","","","","","","",""
"","","","","","html-keyboard-response","36","442309","0.0-5.0-1.0-1.0-0.0-0.0-0.0-0.0-0.10","null","fixation","null","<p style='font-size: 48px; color: white'>+</p >","","","","","","","","","","","","","","","","","","","","","","","","","","","","","","","","","","","","","","","","","","","","","","","",""
"","","","","","rdk","37","443307","0.0-5.0-1.0-1.0-0.0-0.0-0.0-0.0-1.10","497","color_test","d","","false","[""d"",""k""]","k","3000","true","1","100","0","0","0","5.7","1","-1","3","550","550","[""hsl(0, 50%, 50%)"",""hsl(225, 50%, 50%)""]","[""hsl(225, 50%, 50%)"",""hsl(0, 50%, 50%)""]","7","0.64","0","circle","black","3","2","2","16.666666666666668","[11,17,17,16,17,17,17,17,17,17,17,17,17,17,17,17,17,17,17,17,16,17,17,17,16,17,17,16,17,17]","30","965","360","false","20","20","black","1","false","1","1","1820","630","k","staircase_color","","","","",""
"","","","","","html-keyboard-response","38","444324","0.0-5.0-1.0-1.0-0.0-0.0-0.0-0.0-2.10","null","","null","<p style='font-size: 60px; color: red'>错误!</p>","","","","","","","","","","","","","","","","","","","","","","","","","","","","","","","","","","","","","","","","","","","","","","","",""
"","","","","","html-keyboard-response","39","445341","0.0-5.0-1.0-1.0-0.0-0.0-0.0-0.0-0.11","null","fixation","null","<p style='font-size: 48px; color: white'>+</p >","","","","","","","","","","","","","","","","","","","","","","","","","","","","","","","","","","","","","","","","","","","","","","","",""
"","","","","","rdk","40","446650","0.0-5.0-1.0-1.0-0.0-0.0-0.0-0.0-1.11","807","color_test","d","","true","[""d"",""k""]","d","3000","true","1","100","0","0","0","5.7","1","-1","3","550","550","[""hsl(0, 50%, 50%)"",""hsl(225, 50%, 50%)""]","[""hsl(0, 50%, 50%)"",""hsl(225, 50%, 50%)""]","7","0.64","0","circle","black","3","2","2","16.791666666666668","[12,17,16,17,16,17,17,17,17,17,17,17,16,17,16,17,17,17,17,17,17,17,17,16,17,17,17,17,17,17,17,17,17,17,17,17,17,17,17,17,17,17,17,17,17,17,17,17]","48","965","360","false","20","20","black","1","false","1","1","1820","630","d","staircase_color","","","","",""
"","","","","","html-keyboard-response","41","447660","0.0-5.0-1.0-1.0-0.0-0.0-0.0-0.0-2.11","null","","null","<p style='font-size: 60px; color: green'>正确!</p>","","","","","","","","","","","","","","","","","","","","","","","","","","","","","","","","","","","","","","","","","","","","","","","",""
"","","","","","html-keyboard-response","42","450191","0.0-5.0-1.0-1.0-0.0-0.0-0.0-1.0","null","","null","<p style='font-size: 35px; color: white'>您的正确率为： 83% 。平均反应时为：814毫秒。</p>","","","","","","","","","","","","","","","","","","","","","","","","","","","","","","","","","","","","","","","","","","","","","","","",""
"","","","","","html-keyboard-response","43","451208","0.0-5.0-1.0-1.0-0.0-0.1-0.1-0.1-0.12","null","fixation","null","<p style='font-size: 48px; color: white'>+</p >","","","","","","","","","","","","","","","","","","","","","","","","","","","","","","","","","","","","","","","","","","","","","","","",""
"","","","","","rdk","44","452330","0.0-5.0-1.0-1.0-0.0-0.1-0.1-0.1-1.12","620","color_test","k","","false","[""d"",""k""]","d","3000","true","1","100","0","0","0","5.7","1","-1","3","550","550","[""hsl(0, 50%, 50%)"",""hsl(225, 50%, 50%)""]","[""hsl(0, 50%, 50%)"",""hsl(225, 50%, 50%)""]","7","0.59","0","circle","black","3","2","2","16.783783783783782","[12,17,17,17,17,17,17,16,17,17,17,17,17,17,16,17,17,17,17,17,16,17,17,17,17,17,17,17,17,17,17,17,17,17,17,17,17]","37","965","360","false","20","20","black","1","false","1","1","1820","630","d","staircase_color","","","","",""
"","","","","","html-keyboard-response","45","453343","0.0-5.0-1.0-1.0-0.0-0.1-0.1-0.1-2.12","null","","null","<p style='font-size: 60px; color: red'>错误!</p>","","","","","","","","","","","","","","","","","","","","","","","","","","","","","","","","","","","","","","","","","","","","","","","",""
"","","","","","html-keyboard-response","46","454359","0.0-5.0-1.0-1.0-0.0-0.1-0.1-0.1-0.13","null","fixation","null","<p style='font-size: 48px; color: white'>+</p >","","","","","","","","","","","","","","","","","","","","","","","","","","","","","","","","","","","","","","","","","","","","","","","",""
"","","","","","rdk","47","455754","0.0-5.0-1.0-1.0-0.0-0.1-0.1-0.1-1.13","878","color_test","d","","false","[""d"",""k""]","k","3000","true","1","100","0","0","0","5.7","1","-1","3","550","550","[""hsl(0, 50%, 50%)"",""hsl(225, 50%, 50%)""]","[""hsl(225, 50%, 50%)"",""hsl(0, 50%, 50%)""]","7","0.59","0","circle","black","3","2","2","16.673076923076923","[13,16,17,17,17,16,18,17,17,17,17,17,17,16,17,17,17,17,17,16,17,17,16,17,17,17,16,17,17,17,16,17,17,16,15,17,17,17,18,16,18,16,16,17,17,17,16,17,17,17,16,16]","52","965","360","false","20","20","black","1","false","1","1","1820","630","k","staircase_color","","","","",""
"","","","","","html-keyboard-response","48","456774","0.0-5.0-1.0-1.0-0.0-0.1-0.1-0.1-2.13","null","","null","<p style='font-size: 60px; color: red'>错误!</p>","","","","","","","","","","","","","","","","","","","","","","","","","","","","","","","","","","","","","","","","","","","","","","","",""
"","","","","","html-keyboard-response","49","457791","0.0-5.0-1.0-1.0-0.0-0.1-0.1-0.1-0.14","null","fixation","null","<p style='font-size: 48px; color: white'>+</p >","","","","","","","","","","","","","","","","","","","","","","","","","","","","","","","","","","","","","","","","","","","","","","","",""
"","","","","","rdk","50","459274","0.0-5.0-1.0-1.0-0.0-0.1-0.1-0.1-1.14","980","color_test","d","","true","[""d"",""k""]","d","3000","true","1","100","0","0","0","5.7","1","-1","3","550","550","[""hsl(0, 50%, 50%)"",""hsl(225, 50%, 50%)""]","[""hsl(0, 50%, 50%)"",""hsl(225, 50%, 50%)""]","7","0.59","0","circle","black","3","2","2","16.796610169491526","[11,17,17,17,17,17,16,18,16,17,17,17,17,17,17,17,16,17,17,16,17,17,17,17,17,17,17,17,17,16,17,17,17,17,17,17,17,17,17,17,17,17,17,17,17,16,17,17,17,17,17,17,16,17,17,17,17,17,17]","59","965","360","false","20","20","black","1","false","1","1","1820","630","d","staircase_color","","","","",""
"","","","","","html-keyboard-response","51","460291","0.0-5.0-1.0-1.0-0.0-0.1-0.1-0.1-2.14","null","","null","<p style='font-size: 60px; color: green'>正确!</p>","","","","","","","","","","","","","","","","","","","","","","","","","","","","","","","","","","","","","","","","","","","","","","","",""
"","","","","","html-keyboard-response","52","461308","0.0-5.0-1.0-1.0-0.0-0.1-0.1-0.1-0.15","null","fixation","null","<p style='font-size: 48px; color: white'>+</p >","","","","","","","","","","","","","","","","","","","","","","","","","","","","","","","","","","","","","","","","","","","","","","","",""
"","","","","","rdk","53","462666","0.0-5.0-1.0-1.0-0.0-0.1-0.1-0.1-1.15","855","color_test","k","","true","[""d"",""k""]","k","3000","true","1","100","0","0","0","5.7","1","-1","3","550","550","[""hsl(0, 50%, 50%)"",""hsl(225, 50%, 50%)""]","[""hsl(225, 50%, 50%)"",""hsl(0, 50%, 50%)""]","7","0.59","0","circle","black","3","2","2","16.80392156862745","[10,17,17,17,17,17,17,17,17,17,17,16,17,17,16,17,17,17,17,17,17,17,17,17,17,17,17,17,17,17,17,17,17,17,16,17,17,17,17,17,17,17,17,17,17,17,17,17,17,17,17]","51","965","360","false","20","20","black","1","false","1","1","1820","630","k","staircase_color","","","","",""
"","","","","","html-keyboard-response","54","463691","0.0-5.0-1.0-1.0-0.0-0.1-0.1-0.1-2.15","null","","null","<p style='font-size: 60px; color: green'>正确!</p>","","","","","","","","","","","","","","","","","","","","","","","","","","","","","","","","","","","","","","","","","","","","","","","",""
"","","","","","html-keyboard-response","55","464708","0.0-5.0-1.0-1.0-0.0-0.1-0.1-0.1-0.16","null","fixation","null","<p style='font-size: 48px; color: white'>+</p >","","","","","","","","","","","","","","","","","","","","","","","","","","","","","","","","","","","","","","","","","","","","","","","",""
"","","","","","rdk","56","466508","0.0-5.0-1.0-1.0-0.0-0.1-0.1-0.1-1.16","1281","color_test","d","","false","[""d"",""k""]","k","3000","true","1","100","0","0","0","5.7","1","-1","3","550","550","[""hsl(0, 50%, 50%)"",""hsl(225, 50%, 50%)""]","[""hsl(225, 50%, 50%)"",""hsl(0, 50%, 50%)""]","7","0.59","0","circle","black","3","2","2","16.896103896103895","[12,17,17,17,17,17,17,17,17,17,17,17,17,17,17,17,17,17,17,17,17,17,17,17,17,17,17,17,16,17,17,17,17,16,17,17,17,17,17,17,17,17,17,17,17,17,17,17,17,17,17,17,17,17,17,17,17,17,17,16,17,17,17,17,17,17,17,17,17,17,17,17,17,17,17,17,17]","77","965","360","false","20","20","black","1","false","1","1","1820","630","k","staircase_color","","","","",""
"","","","","","html-keyboard-response","57","467525","0.0-5.0-1.0-1.0-0.0-0.1-0.1-0.1-2.16","null","","null","<p style='font-size: 60px; color: red'>错误!</p>","","","","","","","","","","","","","","","","","","","","","","","","","","","","","","","","","","","","","","","","","","","","","","","",""
"","","","","","html-keyboard-response","58","468541","0.0-5.0-1.0-1.0-0.0-0.1-0.1-0.1-0.17","null","fixation","null","<p style='font-size: 48px; color: white'>+</p >","","","","","","","","","","","","","","","","","","","","","","","","","","","","","","","","","","","","","","","","","","","","","","","",""
"","","","","","rdk","59","469786","0.0-5.0-1.0-1.0-0.0-0.1-0.1-0.1-1.17","742","color_test","k","","true","[""d"",""k""]","k","3000","true","1","100","0","0","0","5.7","1","-1","3","550","550","[""hsl(0, 50%, 50%)"",""hsl(225, 50%, 50%)""]","[""hsl(225, 50%, 50%)"",""hsl(0, 50%, 50%)""]","7","0.59","0","circle","black","3","2","2","16.727272727272727","[11,17,17,17,17,17,17,17,17,17,17,17,17,17,17,17,17,17,17,17,16,17,17,17,17,16,17,16,17,17,17,17,17,16,17,17,17,17,17,16,17,16,17,17]","44","965","360","false","20","20","black","1","false","1","1","1820","630","k","staircase_color","","","","",""
"","","","","","html-keyboard-response","60","470808","0.0-5.0-1.0-1.0-0.0-0.1-0.1-0.1-2.17","null","","null","<p style='font-size: 60px; color: green'>正确!</p>","","","","","","","","","","","","","","","","","","","","","","","","","","","","","","","","","","","","","","","","","","","","","","","",""
"","","","","","html-keyboard-response","61","471824","0.0-5.0-1.0-1.0-0.0-0.1-0.1-0.1-0.18","null","fixation","null","<p style='font-size: 48px; color: white'>+</p >","","","","","","","","","","","","","","","","","","","","","","","","","","","","","","","","","","","","","","","","","","","","","","","",""
"","","","","","rdk","62","473292","0.0-5.0-1.0-1.0-0.0-0.1-0.1-0.1-1.18","966","color_test","d","","true","[""d"",""k""]","d","3000","true","1","100","0","0","0","5.7","1","-1","3","550","550","[""hsl(0, 50%, 50%)"",""hsl(225, 50%, 50%)""]","[""hsl(0, 50%, 50%)"",""hsl(225, 50%, 50%)""]","7","0.59","0","circle","black","3","2","2","16.74137931034483","[11,17,17,17,18,16,17,17,16,16,17,17,17,18,17,16,17,17,17,17,17,17,17,17,17,17,16,17,17,16,17,17,16,17,17,17,16,17,17,17,17,17,17,17,17,17,16,17,17,17,16,17,17,17,16,17,17,17]","58","965","360","false","20","20","black","1","false","1","1","1820","630","d","staircase_color","","","","",""
"","","","","","html-keyboard-response","63","474308","0.0-5.0-1.0-1.0-0.0-0.1-0.1-0.1-2.18","null","","null","<p style='font-size: 60px; color: green'>正确!</p>","","","","","","","","","","","","","","","","","","","","","","","","","","","","","","","","","","","","","","","","","","","","","","","",""
"","","","","","html-keyboard-response","64","475325","0.0-5.0-1.0-1.0-0.0-0.1-0.1-0.1-0.19","null","fixation","null","<p style='font-size: 48px; color: white'>+</p >","","","","","","","","","","","","","","","","","","","","","","","","","","","","","","","","","","","","","","","","","","","","","","","",""
"","","","","","rdk","65","476650","0.0-5.0-1.0-1.0-0.0-0.1-0.1-0.1-1.19","807","color_test","d","","true","[""d"",""k""]","d","3000","true","1","100","0","0","0","5.7","1","-1","3","550","550","[""hsl(0, 50%, 50%)"",""hsl(225, 50%, 50%)""]","[""hsl(0, 50%, 50%)"",""hsl(225, 50%, 50%)""]","7","0.59","0","circle","black","3","2","2","16.8125","[12,17,17,17,17,17,17,17,17,17,17,17,17,17,17,16,17,17,17,17,17,16,17,17,16,17,17,17,17,17,17,17,17,17,17,17,17,17,17,17,17,17,17,17,17,17,17,16]","48","965","360","false","20","20","black","1","false","1","1","1820","630","d","staircase_color","","","","",""
"","","","","","html-keyboard-response","66","477675","0.0-5.0-1.0-1.0-0.0-0.1-0.1-0.1-2.19","null","","null","<p style='font-size: 60px; color: green'>正确!</p>","","","","","","","","","","","","","","","","","","","","","","","","","","","","","","","","","","","","","","","","","","","","","","","",""
"","","","","","html-keyboard-response","67","478692","0.0-5.0-1.0-1.0-0.0-0.1-0.1-0.1-0.20","null","fixation","null","<p style='font-size: 48px; color: white'>+</p >","","","","","","","","","","","","","","","","","","","","","","","","","","","","","","","","","","","","","","","","","","","","","","","",""
"","","","","","rdk","68","479994","0.0-5.0-1.0-1.0-0.0-0.1-0.1-0.1-1.20","784","color_test","d","","true","[""d"",""k""]","d","3000","true","1","100","0","0","0","5.7","1","-1","3","550","550","[""hsl(0, 50%, 50%)"",""hsl(225, 50%, 50%)""]","[""hsl(0, 50%, 50%)"",""hsl(225, 50%, 50%)""]","7","0.59","0","circle","black","3","2","2","16.851063829787233","[12,17,17,17,17,17,17,17,17,17,17,17,17,17,17,17,17,17,17,16,17,17,17,17,17,17,17,17,17,16,17,17,17,17,17,17,17,17,17,17,17,17,17,17,17,17,17]","47","965","360","false","20","20","black","1","false","1","1","1820","630","d","staircase_color","","","","",""
"","","","","","html-keyboard-response","69","481025","0.0-5.0-1.0-1.0-0.0-0.1-0.1-0.1-2.20","null","","null","<p style='font-size: 60px; color: green'>正确!</p>","","","","","","","","","","","","","","","","","","","","","","","","","","","","","","","","","","","","","","","","","","","","","","","",""
"","","","","","html-keyboard-response","70","482026","0.0-5.0-1.0-1.0-0.0-0.1-0.1-0.1-0.21","null","fixation","null","<p style='font-size: 48px; color: white'>+</p >","","","","","","","","","","","","","","","","","","","","","","","","","","","","","","","","","","","","","","","","","","","","","","","",""
"","","","","","rdk","71","483433","0.0-5.0-1.0-1.0-0.0-0.1-0.1-0.1-1.21","891","color_test","k","","true","[""d"",""k""]","k","3000","true","1","100","0","0","0","5.7","1","-1","3","550","550","[""hsl(0, 50%, 50%)"",""hsl(225, 50%, 50%)""]","[""hsl(225, 50%, 50%)"",""hsl(0, 50%, 50%)""]","7","0.59","0","circle","black","3","2","2","16.81132075471698","[12,17,17,17,17,17,17,16,17,17,17,17,17,17,17,17,17,17,17,17,17,16,17,17,17,17,17,17,17,17,17,17,17,17,17,17,17,17,17,17,17,17,17,17,17,16,17,17,16,17,17,16,17]","53","965","360","false","20","20","black","1","false","1","1","1820","630","k","staircase_color","","","","",""
"","","","","","html-keyboard-response","72","484459","0.0-5.0-1.0-1.0-0.0-0.1-0.1-0.1-2.21","null","","null","<p style='font-size: 60px; color: green'>正确!</p>","","","","","","","","","","","","","","","","","","","","","","","","","","","","","","","","","","","","","","","","","","","","","","","",""
"","","","","","html-keyboard-response","73","485475","0.0-5.0-1.0-1.0-0.0-0.1-0.1-0.1-0.22","null","fixation","null","<p style='font-size: 48px; color: white'>+</p >","","","","","","","","","","","","","","","","","","","","","","","","","","","","","","","","","","","","","","","","","","","","","","","",""
"","","","","","rdk","74","487114","0.0-5.0-1.0-1.0-0.0-0.1-0.1-0.1-1.22","1135","color_test","k","","true","[""d"",""k""]","k","3000","true","1","100","0","0","0","5.7","1","-1","3","550","550","[""hsl(0, 50%, 50%)"",""hsl(225, 50%, 50%)""]","[""hsl(225, 50%, 50%)"",""hsl(0, 50%, 50%)""]","7","0.59","0","circle","black","3","2","2","16.647058823529413","[9,16,18,16,17,17,16,18,16,17,17,18,16,17,16,17,17,17,17,17,17,17,16,17,17,16,17,16,17,17,16,17,17,16,17,17,16,17,17,17,17,17,17,17,17,16,17,17,17,17,16,16,17,17,17,17,17,16,17,16,17,17,17,17,17,16,17,16]","68","965","360","false","20","20","black","1","false","1","1","1820","630","k","staircase_color","","","","",""
"","","","","","html-keyboard-response","75","488142","0.0-5.0-1.0-1.0-0.0-0.1-0.1-0.1-2.22","null","","null","<p style='font-size: 60px; color: green'>正确!</p>","","","","","","","","","","","","","","","","","","","","","","","","","","","","","","","","","","","","","","","","","","","","","","","",""
"","","","","","html-keyboard-response","76","489158","0.0-5.0-1.0-1.0-0.0-0.1-0.1-0.1-0.23","null","fixation","null","<p style='font-size: 48px; color: white'>+</p >","","","","","","","","","","","","","","","","","","","","","","","","","","","","","","","","","","","","","","","","","","","","","","","",""
"","","","","","rdk","77","490538","0.0-5.0-1.0-1.0-0.0-0.1-0.1-0.1-1.23","877","color_test","d","","true","[""d"",""k""]","d","3000","true","1","100","0","0","0","5.7","1","-1","3","550","550","[""hsl(0, 50%, 50%)"",""hsl(225, 50%, 50%)""]","[""hsl(0, 50%, 50%)"",""hsl(225, 50%, 50%)""]","7","0.59","0","circle","black","3","2","2","16.634615384615383","[9,17,17,17,17,17,17,17,17,16,17,16,17,17,16,17,17,16,17,17,17,17,17,17,16,17,17,17,17,16,17,17,17,17,16,17,16,17,16,17,17,17,16,17,16,17,17,17,17,17,17,17]","52","965","360","false","20","20","black","1","false","1","1","1820","630","d","staircase_color","","","","",""
"","","","","","html-keyboard-response","78","491543","0.0-5.0-1.0-1.0-0.0-0.1-0.1-0.1-2.23","null","","null","<p style='font-size: 60px; color: green'>正确!</p>","","","","","","","","","","","","","","","","","","","","","","","","","","","","","","","","","","","","","","","","","","","","","","","",""
"","","","","","html-keyboard-response","79","494075","0.0-5.0-1.0-1.0-0.0-0.1-0.1-1.1","null","","null","<p style='font-size: 35px; color: white'>您的正确率为： 75% 。平均反应时为：901毫秒。</p>","","","","","","","","","","","","","","","","","","","","","","","","","","","","","","","","","","","","","","","","","","","","","","","",""
"","","","","","html-keyboard-response","80","495091","0.0-5.0-1.0-1.0-0.0-1.0-0.0-0.0-0.0","null","fixation","null","<p style='font-size: 48px; color: white'>+</p >","","","","","","","","","","","","","","","","","","","","","","","","","","","","","","","","","","","","","","","","","","","","","","","",""
"","","","","","rdk","81","496713","0.0-5.0-1.0-1.0-0.0-1.0-0.0-0.0-1.0","1119","color_test","d","","true","[""d"",""k""]","d","3000","true","1","100","0","0","0","5.7","1","-1","3","550","550","[""hsl(0, 50%, 50%)"",""hsl(225, 50%, 50%)""]","[""hsl(0, 50%, 50%)"",""hsl(225, 50%, 50%)""]","7","0.59","0","circle","black","3","2","2","16.80597014925373","[11,17,17,16,17,17,17,16,17,17,17,17,16,17,17,17,17,17,17,17,17,17,17,16,17,17,16,17,17,17,17,17,17,17,17,17,17,17,17,17,17,17,17,17,17,17,17,17,16,17,17,17,17,17,17,17,17,17,17,17,17,17,17,17,17,17,16]","67","965","360","false","20","20","black","1","false","1","1","1820","630","d","staircase_color","","","","",""
"","","","","","html-keyboard-response","82","497742","0.0-5.0-1.0-1.0-0.0-1.0-0.0-0.0-2.0","null","","null","<p style='font-size: 60px; color: green'>正确!</p>","","","","","","","","","","","","","","","","","","","","","","","","","","","","","","","","","","","","","","","","","","","","","","","",""
"","","","","","html-keyboard-response","83","498758","0.0-5.0-1.0-1.0-0.0-1.0-0.0-0.0-0.1","null","fixation","null","<p style='font-size: 48px; color: white'>+</p >","","","","","","","","","","","","","","","","","","","","","","","","","","","","","","","","","","","","","","","","","","","","","","","",""
"","","","","","rdk","84","500027","0.0-5.0-1.0-1.0-0.0-1.0-0.0-0.0-1.1","765","color_test","k","","true","[""d"",""k""]","k","3000","true","1","100","0","0","0","5.7","1","-1","3","550","550","[""hsl(0, 50%, 50%)"",""hsl(225, 50%, 50%)""]","[""hsl(225, 50%, 50%)"",""hsl(0, 50%, 50%)""]","7","0.59","0","circle","black","3","2","2","16.76086956521739","[10,17,16,17,17,17,17,17,16,17,17,17,17,17,17,17,17,17,17,17,17,17,17,17,17,17,17,17,17,17,17,17,17,17,17,16,17,17,17,17,16,17,17,17,17,17]","46","965","360","false","20","20","black","1","false","1","1","1820","630","k","staircase_color","","","","",""
"","","","","","html-keyboard-response","85","501041","0.0-5.0-1.0-1.0-0.0-1.0-0.0-0.0-2.1","null","","null","<p style='font-size: 60px; color: green'>正确!</p>","","","","","","","","","","","","","","","","","","","","","","","","","","","","","","","","","","","","","","","","","","","","","","","",""
"","","","","","html-keyboard-response","86","502058","0.0-5.0-1.0-1.0-0.0-1.0-0.0-0.0-0.2","null","fixation","null","<p style='font-size: 48px; color: white'>+</p >","","","","","","","","","","","","","","","","","","","","","","","","","","","","","","","","","","","","","","","","","","","","","","","",""
"","","","","","rdk","87","503402","0.0-5.0-1.0-1.0-0.0-1.0-0.0-0.0-1.2","842","color_test","k","","true","[""d"",""k""]","k","3000","true","1","100","0","0","0","5.7","1","-1","3","550","550","[""hsl(0, 50%, 50%)"",""hsl(225, 50%, 50%)""]","[""hsl(225, 50%, 50%)"",""hsl(0, 50%, 50%)""]","7","0.59","0","circle","black","3","2","2","16.74","[11,17,17,17,17,17,17,17,17,17,16,17,17,17,17,17,17,17,16,17,17,17,17,17,17,16,17,17,17,17,17,17,17,16,17,17,17,17,16,17,16,17,17,17,17,16,17,17,17,17]","50","965","360","false","20","20","black","1","false","1","1","1820","630","k","staircase_color","","","","",""
"","","","","","html-keyboard-response","88","504424","0.0-5.0-1.0-1.0-0.0-1.0-0.0-0.0-2.2","null","","null","<p style='font-size: 60px; color: green'>正确!</p>","","","","","","","","","","","","","","","","","","","","","","","","","","","","","","","","","","","","","","","","","","","","","","","",""
"","","","","","html-keyboard-response","89","505426","0.0-5.0-1.0-1.0-0.0-1.0-0.0-0.0-0.3","null","fixation","null","<p style='font-size: 48px; color: white'>+</p >","","","","","","","","","","","","","","","","","","","","","","","","","","","","","","","","","","","","","","","","","","","","","","","",""
"","","","","","rdk","90","506586","0.0-5.0-1.0-1.0-0.0-1.0-0.0-0.0-1.3","643","color_test","d","","true","[""d"",""k""]","d","3000","true","1","100","0","0","0","5.7","1","-1","3","550","550","[""hsl(0, 50%, 50%)"",""hsl(225, 50%, 50%)""]","[""hsl(0, 50%, 50%)"",""hsl(225, 50%, 50%)""]","7","0.59","0","circle","black","3","2","2","16.81578947368421","[11,17,17,17,17,17,17,17,17,17,17,16,17,17,17,17,17,17,17,17,17,17,17,17,17,17,17,17,17,17,17,17,17,17,17,17,17,17]","38","965","360","false","20","20","black","1","false","1","1","1820","630","d","staircase_color","","","","",""
"","","","","","html-keyboard-response","91","507608","0.0-5.0-1.0-1.0-0.0-1.0-0.0-0.0-2.3","null","","null","<p style='font-size: 60px; color: green'>正确!</p>","","","","","","","","","","","","","","","","","","","","","","","","","","","","","","","","","","","","","","","","","","","","","","","",""
"","","","","","html-keyboard-response","92","508625","0.0-5.0-1.0-1.0-0.0-1.0-0.0-0.0-0.4","null","fixation","null","<p style='font-size: 48px; color: white'>+</p >","","","","","","","","","","","","","","","","","","","","","","","","","","","","","","","","","","","","","","","","","","","","","","","",""
"","","","","","rdk","93","509930","0.0-5.0-1.0-1.0-0.0-1.0-0.0-0.0-1.4","802","color_test","k","","true","[""d"",""k""]","k","3000","true","1","100","0","0","0","5.7","1","-1","3","550","550","[""hsl(0, 50%, 50%)"",""hsl(225, 50%, 50%)""]","[""hsl(225, 50%, 50%)"",""hsl(0, 50%, 50%)""]","7","0.59","0","circle","black","3","2","2","16.645833333333332","[10,17,17,17,18,16,18,17,16,17,17,17,17,17,17,16,17,17,17,17,17,16,17,16,17,17,17,16,18,16,17,16,17,18,16,16,17,16,17,17,16,17,17,16,17,17,17,16]","48","965","360","false","20","20","black","1","false","1","1","1820","630","k","staircase_color","","","","",""
"","","","","","html-keyboard-response","94","510958","0.0-5.0-1.0-1.0-0.0-1.0-0.0-0.0-2.4","null","","null","<p style='font-size: 60px; color: green'>正确!</p>","","","","","","","","","","","","","","","","","","","","","","","","","","","","","","","","","","","","","","","","","","","","","","","",""
"","","","","","html-keyboard-response","95","511975","0.0-5.0-1.0-1.0-0.0-1.0-0.0-0.0-0.5","null","fixation","null","<p style='font-size: 48px; color: white'>+</p >","","","","","","","","","","","","","","","","","","","","","","","","","","","","","","","","","","","","","","","","","","","","","","","",""
"","","","","","rdk","96","513178","0.0-5.0-1.0-1.0-0.0-1.0-0.0-0.0-1.5","700","color_test","d","","true","[""d"",""k""]","d","3000","true","1","100","0","0","0","5.7","1","-1","3","550","550","[""hsl(0, 50%, 50%)"",""hsl(225, 50%, 50%)""]","[""hsl(0, 50%, 50%)"",""hsl(225, 50%, 50%)""]","7","0.59","0","circle","black","3","2","2","16.69047619047619","[10,17,17,17,17,17,17,17,17,17,17,17,17,17,17,16,17,17,17,17,17,17,16,17,17,17,16,17,17,17,17,17,17,16,17,17,17,17,16,17,17,16]","42","965","360","false","20","20","black","1","false","1","1","1820","630","d","staircase_color","","","","",""
"","","","","","html-keyboard-response","97","514209","0.0-5.0-1.0-1.0-0.0-1.0-0.0-0.0-2.5","null","","null","<p style='font-size: 60px; color: green'>正确!</p>","","","","","","","","","","","","","","","","","","","","","","","","","","","","","","","","","","","","","","","","","","","","","","","",""
"","","","","","html-keyboard-response","98","515226","0.0-5.0-1.0-1.0-0.0-1.0-0.0-0.0-0.6","null","fixation","null","<p style='font-size: 48px; color: white'>+</p >","","","","","","","","","","","","","","","","","","","","","","","","","","","","","","","","","","","","","","","","","","","","","","","",""
"","","","","","rdk","99","516475","0.0-5.0-1.0-1.0-0.0-1.0-0.0-0.0-1.6","732","color_test","k","","true","[""d"",""k""]","k","3000","true","1","100","0","0","0","5.7","1","-1","3","550","550","[""hsl(0, 50%, 50%)"",""hsl(225, 50%, 50%)""]","[""hsl(225, 50%, 50%)"",""hsl(0, 50%, 50%)""]","7","0.59","0","circle","black","3","2","2","16.795454545454547","[13,17,17,17,17,17,17,17,16,17,16,17,17,17,17,17,17,17,17,16,17,17,17,17,17,17,17,17,17,17,17,17,17,17,16,17,17,17,17,17,17,16,17,17]","44","965","360","false","20","20","black","1","false","1","1","1820","630","k","staircase_color","","","","",""
"","","","","","html-keyboard-response","100","517492","0.0-5.0-1.0-1.0-0.0-1.0-0.0-0.0-2.6","null","","null","<p style='font-size: 60px; color: green'>正确!</p>","","","","","","","","","","","","","","","","","","","","","","","","","","","","","","","","","","","","","","","","","","","","","","","",""
"","","","","","html-keyboard-response","101","518510","0.0-5.0-1.0-1.0-0.0-1.0-0.0-0.0-0.7","null","fixation","null","<p style='font-size: 48px; color: white'>+</p >","","","","","","","","","","","","","","","","","","","","","","","","","","","","","","","","","","","","","","","","","","","","","","","",""
"","","","","","rdk","102","519866","0.0-5.0-1.0-1.0-0.0-1.0-0.0-0.0-1.7","840","color_test","d","","true","[""d"",""k""]","d","3000","true","1","100","0","0","0","5.7","1","-1","3","550","550","[""hsl(0, 50%, 50%)"",""hsl(225, 50%, 50%)""]","[""hsl(0, 50%, 50%)"",""hsl(225, 50%, 50%)""]","7","0.59","0","circle","black","3","2","2","16.82","[12,17,17,17,17,17,17,16,17,17,17,17,17,16,17,17,17,17,18,16,17,17,17,17,17,17,17,17,16,17,17,17,17,17,17,17,17,17,17,17,17,17,17,17,17,17,17,17,17,16]","50","965","360","false","20","20","black","1","false","1","1","1820","630","d","staircase_color","","","","",""
"","","","","","html-keyboard-response","103","520892","0.0-5.0-1.0-1.0-0.0-1.0-0.0-0.0-2.7","null","","null","<p style='font-size: 60px; color: green'>正确!</p>","","","","","","","","","","","","","","","","","","","","","","","","","","","","","","","","","","","","","","","","","","","","","","","",""
"","","","","","html-keyboard-response","104","521909","0.0-5.0-1.0-1.0-0.0-1.0-0.0-0.0-0.8","null","fixation","null","<p style='font-size: 48px; color: white'>+</p >","","","","","","","","","","","","","","","","","","","","","","","","","","","","","","","","","","","","","","","","","","","","","","","",""
"","","","","","rdk","105","523131","0.0-5.0-1.0-1.0-0.0-1.0-0.0-0.0-1.8","705","color_test","k","","false","[""d"",""k""]","d","3000","true","1","100","0","0","0","5.7","1","-1","3","550","550","[""hsl(0, 50%, 50%)"",""hsl(225, 50%, 50%)""]","[""hsl(0, 50%, 50%)"",""hsl(225, 50%, 50%)""]","7","0.59","0","circle","black","3","2","2","16.80952380952381","[12,17,17,17,17,17,17,17,17,17,17,17,17,17,17,17,17,17,17,17,16,17,17,17,17,17,17,16,17,17,17,17,17,17,17,17,17,16,17,17,17,17]","42","965","360","false","20","20","black","1","false","1","1","1820","630","d","staircase_color","","","","",""
"","","","","","html-keyboard-response","106","524158","0.0-5.0-1.0-1.0-0.0-1.0-0.0-0.0-2.8","null","","null","<p style='font-size: 60px; color: red'>错误!</p>","","","","","","","","","","","","","","","","","","","","","","","","","","","","","","","","","","","","","","","","","","","","","","","",""
"","","","","","html-keyboard-response","107","525175","0.0-5.0-1.0-1.0-0.0-1.0-0.0-0.0-0.9","null","fixation","null","<p style='font-size: 48px; color: white'>+</p >","","","","","","","","","","","","","","","","","","","","","","","","","","","","","","","","","","","","","","","","","","","","","","","",""
"","","","","","rdk","108","526378","0.0-5.0-1.0-1.0-0.0-1.0-0.0-0.0-1.9","685","color_test","d","","true","[""d"",""k""]","d","3000","true","1","100","0","0","0","5.7","1","-1","3","550","550","[""hsl(0, 50%, 50%)"",""hsl(225, 50%, 50%)""]","[""hsl(0, 50%, 50%)"",""hsl(225, 50%, 50%)""]","7","0.59","0","circle","black","3","2","2","16.70731707317073","[11,17,17,17,17,18,17,16,17,16,17,16,17,17,17,18,17,17,16,17,17,17,16,17,16,17,17,17,17,17,17,17,17,17,16,17,17,17,17,17,16]","41","965","360","false","20","20","black","1","false","1","1","1820","630","d","staircase_color","","","","",""
"","","","","","html-keyboard-response","109","527408","0.0-5.0-1.0-1.0-0.0-1.0-0.0-0.0-2.9","null","","null","<p style='font-size: 60px; color: green'>正确!</p>","","","","","","","","","","","","","","","","","","","","","","","","","","","","","","","","","","","","","","","","","","","","","","","",""
"","","","","","html-keyboard-response","110","528425","0.0-5.0-1.0-1.0-0.0-1.0-0.0-0.0-0.10","null","fixation","null","<p style='font-size: 48px; color: white'>+</p >","","","","","","","","","","","","","","","","","","","","","","","","","","","","","","","","","","","","","","","","","","","","","","","",""
"","","","","","rdk","111","529834","0.0-5.0-1.0-1.0-0.0-1.0-0.0-0.0-1.10","907","color_test","k","","true","[""d"",""k""]","k","3000","true","1","100","0","0","0","5.7","1","-1","3","550","550","[""hsl(0, 50%, 50%)"",""hsl(225, 50%, 50%)""]","[""hsl(225, 50%, 50%)"",""hsl(0, 50%, 50%)""]","7","0.59","0","circle","black","3","2","2","16.74074074074074","[10,17,17,17,17,17,17,17,17,17,17,17,17,17,17,16,17,17,17,17,16,17,17,17,17,17,17,17,16,17,17,17,17,17,16,17,17,17,16,17,17,17,16,17,17,17,17,17,16,17,17,17,17,17]","54","965","360","false","20","20","black","1","false","1","1","1820","630","k","staircase_color","","","","",""
"","","","","","html-keyboard-response","112","530844","0.0-5.0-1.0-1.0-0.0-1.0-0.0-0.0-2.10","null","","null","<p style='font-size: 60px; color: green'>正确!</p>","","","","","","","","","","","","","","","","","","","","","","","","","","","","","","","","","","","","","","","","","","","","","","","",""
"","","","","","html-keyboard-response","113","531860","0.0-5.0-1.0-1.0-0.0-1.0-0.0-0.0-0.11","null","fixation","null","<p style='font-size: 48px; color: white'>+</p >","","","","","","","","","","","","","","","","","","","","","","","","","","","","","","","","","","","","","","","","","","","","","","","",""
"","","","","","rdk","114","533547","0.0-5.0-1.0-1.0-0.0-1.0-0.0-0.0-1.11","1171","color_test","k","","true","[""d"",""k""]","k","3000","true","1","100","0","0","0","5.7","1","-1","3","550","550","[""hsl(0, 50%, 50%)"",""hsl(225, 50%, 50%)""]","[""hsl(225, 50%, 50%)"",""hsl(0, 50%, 50%)""]","7","0.59","0","circle","black","3","2","2","16.8","[11,17,17,17,17,17,17,16,17,17,17,17,17,17,17,17,16,17,17,16,17,17,17,16,17,17,17,16,17,17,17,17,17,16,17,17,17,16,17,17,17,17,17,17,17,17,17,17,17,17,17,17,17,17,16,17,17,17,17,17,17,17,17,17,17,17,17,17,17,17]","70","965","360","false","20","20","black","1","false","1","1","1820","630","k","staircase_color","","","","",""
"","","","","","html-keyboard-response","115","534575","0.0-5.0-1.0-1.0-0.0-1.0-0.0-0.0-2.11","null","","null","<p style='font-size: 60px; color: green'>正确!</p>","","","","","","","","","","","","","","","","","","","","","","","","","","","","","","","","","","","","","","","","","","","","","","","",""
"","","","","","html-keyboard-response","116","537091","0.0-5.0-1.0-1.0-0.0-1.0-0.0-1.0","null","","null","<p style='font-size: 35px; color: white'>您的正确率为： 92% 。平均反应时为：826毫秒。</p>","","","","","","","","","","","","","","","","","","","","","","","","","","","","","","","","","","","","","","","","","","","","","","","",""
"","","","","","html-keyboard-response","117","538109","0.0-5.0-1.0-1.0-0.0-1.1-0.1-0.1-0.12","null","fixation","null","<p style='font-size: 48px; color: white'>+</p >","","","","","","","","","","","","","","","","","","","","","","","","","","","","","","","","","","","","","","","","","","","","","","","",""
"","","","","","rdk","118","539466","0.0-5.0-1.0-1.0-0.0-1.1-0.1-0.1-1.12","855","color_test","d","","true","[""d"",""k""]","d","3000","true","1","100","0","0","0","5.7","1","-1","3","550","550","[""hsl(0, 50%, 50%)"",""hsl(225, 50%, 50%)""]","[""hsl(0, 50%, 50%)"",""hsl(225, 50%, 50%)""]","7","0.54","0","circle","black","3","2","2","16.745098039215687","[10,17,17,17,17,17,17,17,17,17,17,17,16,17,17,16,17,17,17,16,17,17,17,17,17,17,17,16,17,17,17,17,17,17,17,17,16,17,17,17,17,17,17,17,16,17,17,17,17,17,17]","51","965","360","false","20","20","black","1","false","1","1","1820","630","d","staircase_color","","","","",""
"","","","","","html-keyboard-response","119","540490","0.0-5.0-1.0-1.0-0.0-1.1-0.1-0.1-2.12","null","","null","<p style='font-size: 60px; color: green'>正确!</p>","","","","","","","","","","","","","","","","","","","","","","","","","","","","","","","","","","","","","","","","","","","","","","","",""
"","","","","","html-keyboard-response","120","541509","0.0-5.0-1.0-1.0-0.0-1.1-0.1-0.1-0.13","null","fixation","null","<p style='font-size: 48px; color: white'>+</p >","","","","","","","","","","","","","","","","","","","","","","","","","","","","","","","","","","","","","","","","","","","","","","","",""
"","","","","","rdk","121","543354","0.0-5.0-1.0-1.0-0.0-1.1-0.1-0.1-1.13","1328","color_test","d","","true","[""d"",""k""]","d","3000","true","1","100","0","0","0","5.7","1","-1","3","550","550","[""hsl(0, 50%, 50%)"",""hsl(225, 50%, 50%)""]","[""hsl(0, 50%, 50%)"",""hsl(225, 50%, 50%)""]","7","0.54","0","circle","black","3","2","2","16.860759493670887","[12,17,17,17,17,17,17,16,17,16,17,17,17,17,17,16,17,17,17,17,17,17,17,17,17,17,17,17,17,17,17,17,17,17,17,17,17,17,17,17,17,17,17,17,17,17,17,17,17,17,17,17,17,17,17,16,17,16,17,17,17,17,16,17,17,17,17,17,17,17,17,17,17,17,17,17,17,17,17]","79","965","360","false","20","20","black","1","false","1","1","1820","630","d","staircase_color","","","","",""
"","","","","","html-keyboard-response","122","544375","0.0-5.0-1.0-1.0-0.0-1.1-0.1-0.1-2.13","null","","null","<p style='font-size: 60px; color: green'>正确!</p>","","","","","","","","","","","","","","","","","","","","","","","","","","","","","","","","","","","","","","","","","","","","","","","",""
"","","","","","html-keyboard-response","123","545377","0.0-5.0-1.0-1.0-0.0-1.1-0.1-0.1-0.14","null","fixation","null","<p style='font-size: 48px; color: white'>+</p >","","","","","","","","","","","","","","","","","","","","","","","","","","","","","","","","","","","","","","","","","","","","","","","",""
"","","","","","rdk","124","546650","0.0-5.0-1.0-1.0-0.0-1.1-0.1-0.1-1.14","757","color_test","k","","true","[""d"",""k""]","k","3000","true","1","100","0","0","0","5.7","1","-1","3","550","550","[""hsl(0, 50%, 50%)"",""hsl(225, 50%, 50%)""]","[""hsl(225, 50%, 50%)"",""hsl(0, 50%, 50%)""]","7","0.54","0","circle","black","3","2","2","16.644444444444446","[11,17,17,17,17,17,16,18,16,17,17,16,17,17,16,17,16,17,16,17,17,16,17,17,17,16,16,16,17,17,17,17,17,17,17,17,16,17,17,17,17,17,17,17,17]","45","965","360","false","20","20","black","1","false","1","1","1820","630","k","staircase_color","","","","",""
"","","","","","html-keyboard-response","125","547675","0.0-5.0-1.0-1.0-0.0-1.1-0.1-0.1-2.14","null","","null","<p style='font-size: 60px; color: green'>正确!</p>","","","","","","","","","","","","","","","","","","","","","","","","","","","","","","","","","","","","","","","","","","","","","","","",""
"","","","","","html-keyboard-response","126","548692","0.0-5.0-1.0-1.0-0.0-1.1-0.1-0.1-0.15","null","fixation","null","<p style='font-size: 48px; color: white'>+</p >","","","","","","","","","","","","","","","","","","","","","","","","","","","","","","","","","","","","","","","","","","","","","","","",""
"","","","","","rdk","127","550122","0.0-5.0-1.0-1.0-0.0-1.1-0.1-0.1-1.15","928","color_test","k","","true","[""d"",""k""]","k","3000","true","1","100","0","0","0","5.7","1","-1","3","550","550","[""hsl(0, 50%, 50%)"",""hsl(225, 50%, 50%)""]","[""hsl(225, 50%, 50%)"",""hsl(0, 50%, 50%)""]","7","0.54","0","circle","black","3","2","2","16.78181818181818","[10,17,17,17,17,17,17,17,17,17,17,16,17,17,17,17,17,17,17,17,17,17,17,17,17,17,16,17,17,17,17,17,17,17,16,17,17,17,17,17,17,17,17,17,17,16,16,17,17,17,17,17,17,17,17]","55","965","360","false","20","20","black","1","false","1","1","1820","630","k","staircase_color","","","","",""
"","","","","","html-keyboard-response","128","551142","0.0-5.0-1.0-1.0-0.0-1.1-0.1-0.1-2.15","null","","null","<p style='font-size: 60px; color: green'>正确!</p>","","","","","","","","","","","","","","","","","","","","","","","","","","","","","","","","","","","","","","","","","","","","","","","",""
"","","","","","html-keyboard-response","129","552159","0.0-5.0-1.0-1.0-0.0-1.1-0.1-0.1-0.16","null","fixation","null","<p style='font-size: 48px; color: white'>+</p >","","","","","","","","","","","","","","","","","","","","","","","","","","","","","","","","","","","","","","","","","","","","","","","",""
"","","","","","rdk","130","553929","0.0-5.0-1.0-1.0-0.0-1.1-0.1-0.1-1.16","1268","color_test","d","","true","[""d"",""k""]","d","3000","true","1","100","0","0","0","5.7","1","-1","3","550","550","[""hsl(0, 50%, 50%)"",""hsl(225, 50%, 50%)""]","[""hsl(0, 50%, 50%)"",""hsl(225, 50%, 50%)""]","7","0.54","0","circle","black","3","2","2","16.789473684210527","[10,17,17,17,17,17,16,16,17,17,17,17,17,17,17,16,17,17,17,17,17,17,17,16,17,17,17,17,17,17,17,17,17,17,17,17,17,17,17,17,17,17,17,17,17,17,17,17,17,17,17,17,17,17,16,17,17,17,17,17,16,17,17,17,17,17,17,17,16,17,17,17,16,17,17,16]","76","965","360","false","20","20","black","1","false","1","1","1820","630","d","staircase_color","","","","",""
"","","","","","html-keyboard-response","131","554959","0.0-5.0-1.0-1.0-0.0-1.1-0.1-0.1-2.16","null","","null","<p style='font-size: 60px; color: green'>正确!</p>","","","","","","","","","","","","","","","","","","","","","","","","","","","","","","","","","","","","","","","","","","","","","","","",""
"","","","","","html-keyboard-response","132","555975","0.0-5.0-1.0-1.0-0.0-1.1-0.1-0.1-0.17","null","fixation","null","<p style='font-size: 48px; color: white'>+</p >","","","","","","","","","","","","","","","","","","","","","","","","","","","","","","","","","","","","","","","","","","","","","","","",""
"","","","","","rdk","133","558026","0.0-5.0-1.0-1.0-0.0-1.1-0.1-0.1-1.17","1533","color_test","k","","false","[""d"",""k""]","d","3000","true","1","100","0","0","0","5.7","1","-1","3","550","550","[""hsl(0, 50%, 50%)"",""hsl(225, 50%, 50%)""]","[""hsl(0, 50%, 50%)"",""hsl(225, 50%, 50%)""]","7","0.54","0","circle","black","3","2","2","16.869565217391305","[12,17,17,17,17,17,17,17,17,17,17,17,17,17,17,17,17,17,17,16,17,17,17,17,17,17,17,17,17,17,17,17,16,17,17,17,17,17,17,17,17,17,16,17,17,17,17,17,17,17,17,17,17,17,16,17,17,16,17,17,17,17,17,17,17,17,17,17,17,17,17,17,17,17,17,17,17,17,16,17,17,17,16,17,17,17,17,17,17,17,17,17]","92","965","360","false","20","20","black","1","false","1","1","1820","630","d","staircase_color","","","","",""
"","","","","","html-keyboard-response","134","559042","0.0-5.0-1.0-1.0-0.0-1.1-0.1-0.1-2.17","null","","null","<p style='font-size: 60px; color: red'>错误!</p>","","","","","","","","","","","","","","","","","","","","","","","","","","","","","","","","","","","","","","","","","","","","","","","",""
"","","","","","html-keyboard-response","135","560058","0.0-5.0-1.0-1.0-0.0-1.1-0.1-0.1-0.18","null","fixation","null","<p style='font-size: 48px; color: white'>+</p >","","","","","","","","","","","","","","","","","","","","","","","","","","","","","","","","","","","","","","","","","","","","","","","",""
"","","","","","rdk","136","561578","0.0-5.0-1.0-1.0-0.0-1.1-0.1-0.1-1.18","1002","color_test","d","","false","[""d"",""k""]","k","3000","true","1","100","0","0","0","5.7","1","-1","3","550","550","[""hsl(0, 50%, 50%)"",""hsl(225, 50%, 50%)""]","[""hsl(225, 50%, 50%)"",""hsl(0, 50%, 50%)""]","7","0.54","0","circle","black","3","2","2","16.833333333333332","[12,16,17,17,17,17,17,17,17,17,17,17,17,17,17,17,17,17,17,17,17,17,17,17,17,17,17,16,17,17,17,17,16,17,17,17,17,17,17,17,17,17,17,17,17,17,17,17,17,16,17,17,17,17,17,17,17,17,17,16]","60","965","360","false","20","20","black","1","false","1","1","1820","630","k","staircase_color","","","","",""
"","","","","","html-keyboard-response","137","562609","0.0-5.0-1.0-1.0-0.0-1.1-0.1-0.1-2.18","null","","null","<p style='font-size: 60px; color: red'>错误!</p>","","","","","","","","","","","","","","","","","","","","","","","","","","","","","","","","","","","","","","","","","","","","","","","",""
"","","","","","html-keyboard-response","138","563625","0.0-5.0-1.0-1.0-0.0-1.1-0.1-0.1-0.19","null","fixation","null","<p style='font-size: 48px; color: white'>+</p >","","","","","","","","","","","","","","","","","","","","","","","","","","","","","","","","","","","","","","","","","","","","","","","",""
"","","","","","rdk","139","564858","0.0-5.0-1.0-1.0-0.0-1.1-0.1-0.1-1.19","731","color_test","d","","false","[""d"",""k""]","k","3000","true","1","100","0","0","0","5.7","1","-1","3","550","550","[""hsl(0, 50%, 50%)"",""hsl(225, 50%, 50%)""]","[""hsl(225, 50%, 50%)"",""hsl(0, 50%, 50%)""]","7","0.54","0","circle","black","3","2","2","16.681818181818183","[10,17,17,17,17,17,17,16,17,17,16,17,17,17,17,16,17,17,15,17,17,17,17,17,17,16,17,17,17,18,17,17,17,17,16,17,17,17,16,17,17,17,17,17]","44","965","360","false","20","20","black","1","false","1","1","1820","630","k","staircase_color","","","","",""
"","","","","","html-keyboard-response","140","565875","0.0-5.0-1.0-1.0-0.0-1.1-0.1-0.1-2.19","null","","null","<p style='font-size: 60px; color: red'>错误!</p>","","","","","","","","","","","","","","","","","","","","","","","","","","","","","","","","","","","","","","","","","","","","","","","",""
"","","","","","html-keyboard-response","141","566892","0.0-5.0-1.0-1.0-0.0-1.1-0.1-0.1-0.20","null","fixation","null","<p style='font-size: 48px; color: white'>+</p >","","","","","","","","","","","","","","","","","","","","","","","","","","","","","","","","","","","","","","","","","","","","","","","",""
"","","","","","rdk","142","568699","0.0-5.0-1.0-1.0-0.0-1.1-0.1-0.1-1.20","1304","color_test","k","","true","[""d"",""k""]","k","3000","true","1","100","0","0","0","5.7","1","-1","3","550","550","[""hsl(0, 50%, 50%)"",""hsl(225, 50%, 50%)""]","[""hsl(225, 50%, 50%)"",""hsl(0, 50%, 50%)""]","7","0.54","0","circle","black","3","2","2","16.743589743589745","[10,17,17,17,17,16,17,18,17,16,16,17,17,17,17,18,17,16,17,17,17,17,17,17,17,17,16,17,17,17,17,17,16,17,17,17,17,16,17,17,16,17,17,17,16,17,17,17,17,16,17,17,17,17,16,17,16,17,17,18,15,18,16,17,17,17,17,17,17,17,17,17,16,17,17,17,16,17]","78","965","360","false","20","20","black","1","false","1","1","1820","630","k","staircase_color","","","","",""
"","","","","","html-keyboard-response","143","569725","0.0-5.0-1.0-1.0-0.0-1.1-0.1-0.1-2.20","null","","null","<p style='font-size: 60px; color: green'>正确!</p>","","","","","","","","","","","","","","","","","","","","","","","","","","","","","","","","","","","","","","","","","","","","","","","",""
"","","","","","html-keyboard-response","144","570741","0.0-5.0-1.0-1.0-0.0-1.1-0.1-0.1-0.21","null","fixation","null","<p style='font-size: 48px; color: white'>+</p >","","","","","","","","","","","","","","","","","","","","","","","","","","","","","","","","","","","","","","","","","","","","","","","",""
"","","","","","rdk","145","571962","0.0-5.0-1.0-1.0-0.0-1.1-0.1-0.1-1.21","717","color_test","k","","true","[""d"",""k""]","k","3000","true","1","100","0","0","0","5.7","1","-1","3","550","550","[""hsl(0, 50%, 50%)"",""hsl(225, 50%, 50%)""]","[""hsl(225, 50%, 50%)"",""hsl(0, 50%, 50%)""]","7","0.54","0","circle","black","3","2","2","16.790697674418606","[10,17,17,17,17,17,17,17,17,17,17,17,17,17,17,17,17,17,17,17,17,17,17,17,17,17,17,17,17,17,17,17,17,17,17,17,17,17,17,16,17,17,16]","43","965","360","false","20","20","black","1","false","1","1","1820","630","k","staircase_color","","","","",""
"","","","","","html-keyboard-response","146","572992","0.0-5.0-1.0-1.0-0.0-1.1-0.1-0.1-2.21","null","","null","<p style='font-size: 60px; color: green'>正确!</p>","","","","","","","","","","","","","","","","","","","","","","","","","","","","","","","","","","","","","","","","","","","","","","","",""
"","","","","","html-keyboard-response","147","574008","0.0-5.0-1.0-1.0-0.0-1.1-0.1-0.1-0.22","null","fixation","null","<p style='font-size: 48px; color: white'>+</p >","","","","","","","","","","","","","","","","","","","","","","","","","","","","","","","","","","","","","","","","","","","","","","","",""
"","","","","","rdk","148","575593","0.0-5.0-1.0-1.0-0.0-1.1-0.1-0.1-1.22","1083","color_test","d","","true","[""d"",""k""]","d","3000","true","1","100","0","0","0","5.7","1","-1","3","550","550","[""hsl(0, 50%, 50%)"",""hsl(225, 50%, 50%)""]","[""hsl(0, 50%, 50%)"",""hsl(225, 50%, 50%)""]","7","0.54","0","circle","black","3","2","2","16.753846153846155","[10,17,17,17,17,17,17,17,17,16,17,17,17,17,17,17,17,17,17,17,17,17,17,16,17,17,17,17,16,17,17,17,17,17,17,17,16,16,17,17,17,17,17,17,16,17,16,17,17,17,17,17,16,17,17,17,17,17,17,17,17,17,17,17,16]","65","965","360","false","20","20","black","1","false","1","1","1820","630","d","staircase_color","","","","",""
"","","","","","html-keyboard-response","149","576609","0.0-5.0-1.0-1.0-0.0-1.1-0.1-0.1-2.22","null","","null","<p style='font-size: 60px; color: green'>正确!</p>","","","","","","","","","","","","","","","","","","","","","","","","","","","","","","","","","","","","","","","","","","","","","","","",""
"","","","","","html-keyboard-response","150","577625","0.0-5.0-1.0-1.0-0.0-1.1-0.1-0.1-0.23","null","fixation","null","<p style='font-size: 48px; color: white'>+</p >","","","","","","","","","","","","","","","","","","","","","","","","","","","","","","","","","","","","","","","","","","","","","","","",""
"","","","","","rdk","151","578841","0.0-5.0-1.0-1.0-0.0-1.1-0.1-0.1-1.23","698","color_test","k","","false","[""d"",""k""]","d","3000","true","1","100","0","0","0","5.7","1","-1","3","550","550","[""hsl(0, 50%, 50%)"",""hsl(225, 50%, 50%)""]","[""hsl(0, 50%, 50%)"",""hsl(225, 50%, 50%)""]","7","0.54","0","circle","black","3","2","2","16.761904761904763","[12,17,17,17,17,17,17,17,17,17,17,17,17,17,17,15,17,17,17,17,17,17,17,17,16,16,17,17,17,17,17,17,17,17,17,17,17,17,17,16,17,17]","42","965","360","false","20","20","black","1","false","1","1","1820","630","d","staircase_color","","","","",""
"","","","","","html-keyboard-response","152","579859","0.0-5.0-1.0-1.0-0.0-1.1-0.1-0.1-2.23","null","","null","<p style='font-size: 60px; color: red'>错误!</p>","","","","","","","","","","","","","","","","","","","","","","","","","","","","","","","","","","","","","","","","","","","","","","","",""
"","","","","","html-keyboard-response","153","582375","0.0-5.0-1.0-1.0-0.0-1.1-0.1-1.1","null","","null","<p style='font-size: 35px; color: white'>您的正确率为： 67% 。平均反应时为：1017毫秒。</p>","","","","","","","","","","","","","","","","","","","","","","","","","","","","","","","","","","","","","","","","","","","","","","","",""
"","","","","","html-keyboard-response","154","583392","0.0-5.0-1.0-1.0-0.0-2.0-0.0-0.0-0.0","null","fixation","null","<p style='font-size: 48px; color: white'>+</p >","","","","","","","","","","","","","","","","","","","","","","","","","","","","","","","","","","","","","","","","","","","","","","","",""
"","","","","","rdk","155","584892","0.0-5.0-1.0-1.0-0.0-2.0-0.0-0.0-1.0","998","color_test","d","","true","[""d"",""k""]","d","3000","true","1","100","0","0","0","5.7","1","-1","3","550","550","[""hsl(0, 50%, 50%)"",""hsl(225, 50%, 50%)""]","[""hsl(0, 50%, 50%)"",""hsl(225, 50%, 50%)""]","7","0.54","0","circle","black","3","2","2","16.716666666666665","[10,17,17,17,17,18,17,17,16,17,17,17,17,16,17,17,16,17,17,17,17,16,17,17,17,16,17,17,17,17,16,17,17,17,16,17,17,17,17,17,16,17,17,16,17,16,17,17,17,17,17,17,17,17,16,17,17,17,17,17]","60","965","360","false","20","20","black","1","false","1","1","1820","630","d","staircase_color","","","","",""
"","","","","","html-keyboard-response","156","585909","0.0-5.0-1.0-1.0-0.0-2.0-0.0-0.0-2.0","null","","null","<p style='font-size: 60px; color: green'>正确!</p>","","","","","","","","","","","","","","","","","","","","","","","","","","","","","","","","","","","","","","","","","","","","","","","",""
"","","","","","html-keyboard-response","157","586925","0.0-5.0-1.0-1.0-0.0-2.0-0.0-0.0-0.1","null","fixation","null","<p style='font-size: 48px; color: white'>+</p >","","","","","","","","","","","","","","","","","","","","","","","","","","","","","","","","","","","","","","","","","","","","","","","",""
"","","","","","rdk","158","588266","0.0-5.0-1.0-1.0-0.0-2.0-0.0-0.0-1.1","838","color_test","k","","true","[""d"",""k""]","k","3000","true","1","100","0","0","0","5.7","1","-1","3","550","550","[""hsl(0, 50%, 50%)"",""hsl(225, 50%, 50%)""]","[""hsl(225, 50%, 50%)"",""hsl(0, 50%, 50%)""]","7","0.54","0","circle","black","3","2","2","16.78","[11,17,16,17,17,17,17,17,16,17,16,17,17,17,17,17,17,17,16,17,17,17,17,17,17,17,17,17,17,17,17,17,17,17,17,17,17,17,17,17,17,17,17,16,17,17,17,17,17,17]","50","965","360","false","20","20","black","1","false","1","1","1820","630","k","staircase_color","","","","",""
"","","","","","html-keyboard-response","159","589292","0.0-5.0-1.0-1.0-0.0-2.0-0.0-0.0-2.1","null","","null","<p style='font-size: 60px; color: green'>正确!</p>","","","","","","","","","","","","","","","","","","","","","","","","","","","","","","","","","","","","","","","","","","","","","","","",""
"","","","","","html-keyboard-response","160","590308","0.0-5.0-1.0-1.0-0.0-2.0-0.0-0.0-0.2","null","fixation","null","<p style='font-size: 48px; color: white'>+</p >","","","","","","","","","","","","","","","","","","","","","","","","","","","","","","","","","","","","","","","","","","","","","","","",""
"","","","","","rdk","161","591818","0.0-5.0-1.0-1.0-0.0-2.0-0.0-0.0-1.2","992","color_test","d","","true","[""d"",""k""]","d","3000","true","1","100","0","0","0","5.7","1","-1","3","550","550","[""hsl(0, 50%, 50%)"",""hsl(225, 50%, 50%)""]","[""hsl(0, 50%, 50%)"",""hsl(225, 50%, 50%)""]","7","0.54","0","circle","black","3","2","2","16.779661016949152","[12,17,17,17,17,17,17,17,17,17,17,17,16,17,17,16,17,17,17,17,17,17,17,17,17,17,17,17,17,17,16,17,17,17,16,17,17,17,17,17,16,17,17,17,17,17,17,17,17,17,16,17,16,17,17,17,16,17,17]","59","965","360","false","20","20","black","1","false","1","1","1820","630","d","staircase_color","","","","",""
"","","","","","html-keyboard-response","162","592842","0.0-5.0-1.0-1.0-0.0-2.0-0.0-0.0-2.2","null","","null","<p style='font-size: 60px; color: green'>正确!</p>","","","","","","","","","","","","","","","","","","","","","","","","","","","","","","","","","","","","","","","","","","","","","","","",""
"","","","","","html-keyboard-response","163","593844","0.0-5.0-1.0-1.0-0.0-2.0-0.0-0.0-0.3","null","fixation","null","<p style='font-size: 48px; color: white'>+</p >","","","","","","","","","","","","","","","","","","","","","","","","","","","","","","","","","","","","","","","","","","","","","","","",""
"","","","","","rdk","164","595292","0.0-5.0-1.0-1.0-0.0-2.0-0.0-0.0-1.3","932","color_test","k","","true","[""d"",""k""]","k","3000","true","1","100","0","0","0","5.7","1","-1","3","550","550","[""hsl(0, 50%, 50%)"",""hsl(225, 50%, 50%)""]","[""hsl(225, 50%, 50%)"",""hsl(0, 50%, 50%)""]","7","0.54","0","circle","black","3","2","2","16.767857142857142","[12,17,17,17,17,17,17,17,17,16,17,17,17,17,17,16,17,17,17,17,17,17,16,17,16,17,17,17,17,17,17,17,17,17,17,16,16,17,17,17,17,17,16,17,17,17,17,16,17,17,17,17,17,17,16,18]","56","965","360","false","20","20","black","1","false","1","1","1820","630","k","staircase_color","","","","",""
"","","","","","html-keyboard-response","165","596309","0.0-5.0-1.0-1.0-0.0-2.0-0.0-0.0-2.3","null","","null","<p style='font-size: 60px; color: green'>正确!</p>","","","","","","","","","","","","","","","","","","","","","","","","","","","","","","","","","","","","","","","","","","","","","","","",""
"","","","","","html-keyboard-response","166","597326","0.0-5.0-1.0-1.0-0.0-2.0-0.0-0.0-0.4","null","fixation","null","<p style='font-size: 48px; color: white'>+</p >","","","","","","","","","","","","","","","","","","","","","","","","","","","","","","","","","","","","","","","","","","","","","","","",""
"","","","","","rdk","167","598794","0.0-5.0-1.0-1.0-0.0-2.0-0.0-0.0-1.4","951","color_test","k","","true","[""d"",""k""]","k","3000","true","1","100","0","0","0","5.7","1","-1","3","550","550","[""hsl(0, 50%, 50%)"",""hsl(225, 50%, 50%)""]","[""hsl(225, 50%, 50%)"",""hsl(0, 50%, 50%)""]","7","0.54","0","circle","black","3","2","2","16.789473684210527","[12,17,17,17,17,17,17,17,17,16,17,17,17,16,17,17,17,17,17,17,17,17,17,17,17,17,17,17,17,16,17,17,17,15,18,16,17,17,17,17,17,17,17,17,17,16,17,17,17,17,17,17,16,17,17,17,17]","57","965","360","false","20","20","black","1","false","1","1","1820","630","k","staircase_color","","","","",""
"","","","","","html-keyboard-response","168","599825","0.0-5.0-1.0-1.0-0.0-2.0-0.0-0.0-2.4","null","","null","<p style='font-size: 60px; color: green'>正确!</p>","","","","","","","","","","","","","","","","","","","","","","","","","","","","","","","","","","","","","","","","","","","","","","","",""
"","","","","","html-keyboard-response","169","600842","0.0-5.0-1.0-1.0-0.0-2.0-0.0-0.0-0.5","null","fixation","null","<p style='font-size: 48px; color: white'>+</p >","","","","","","","","","","","","","","","","","","","","","","","","","","","","","","","","","","","","","","","","","","","","","","","",""
"","","","","","rdk","170","602154","0.0-5.0-1.0-1.0-0.0-2.0-0.0-0.0-1.5","810","color_test","k","","true","[""d"",""k""]","k","3000","true","1","100","0","0","0","5.7","1","-1","3","550","550","[""hsl(0, 50%, 50%)"",""hsl(225, 50%, 50%)""]","[""hsl(225, 50%, 50%)"",""hsl(0, 50%, 50%)""]","7","0.54","0","circle","black","3","2","2","16.604166666666668","[10,17,18,16,17,17,16,17,16,17,17,17,17,16,16,17,17,16,17,17,17,17,16,17,17,16,17,17,17,16,17,17,17,17,16,17,17,16,17,17,17,16,17,17,17,17,16,17]","48","965","360","false","20","20","black","1","false","1","1","1820","630","k","staircase_color","","","","",""
"","","","","","html-keyboard-response","171","603160","0.0-5.0-1.0-1.0-0.0-2.0-0.0-0.0-2.5","null","","null","<p style='font-size: 60px; color: green'>正确!</p>","","","","","","","","","","","","","","","","","","","","","","","","","","","","","","","","","","","","","","","","","","","","","","","",""
"","","","","","html-keyboard-response","172","604177","0.0-5.0-1.0-1.0-0.0-2.0-0.0-0.0-0.6","null","fixation","null","<p style='font-size: 48px; color: white'>+</p >","","","","","","","","","","","","","","","","","","","","","","","","","","","","","","","","","","","","","","","","","","","","","","","",""
"","","","","","rdk","173","606570","0.0-5.0-1.0-1.0-0.0-2.0-0.0-0.0-1.6","1877","color_test","k","","false","[""d"",""k""]","d","3000","true","1","100","0","0","0","5.7","1","-1","3","550","550","[""hsl(0, 50%, 50%)"",""hsl(225, 50%, 50%)""]","[""hsl(0, 50%, 50%)"",""hsl(225, 50%, 50%)""]","7","0.54","0","circle","black","3","2","2","16.8125","[11,17,17,17,17,17,17,17,16,17,17,16,17,17,17,17,16,17,17,17,16,16,17,17,17,17,17,17,17,16,17,17,17,17,17,17,17,17,17,17,17,17,16,17,17,17,17,17,17,17,16,17,17,17,17,17,17,17,16,17,16,17,17,17,17,17,17,17,17,17,17,17,16,17,17,17,17,17,17,17,17,17,17,17,17,17,17,17,17,17,17,17,17,16,17,17,17,16,17,17,17,16,17,17,17,17,17,17,16,17,17,17]","112","965","360","false","20","20","black","1","false","1","1","1820","630","d","staircase_color","","","","",""
"","","","","","html-keyboard-response","174","607592","0.0-5.0-1.0-1.0-0.0-2.0-0.0-0.0-2.6","null","","null","<p style='font-size: 60px; color: red'>错误!</p>","","","","","","","","","","","","","","","","","","","","","","","","","","","","","","","","","","","","","","","","","","","","","","","",""
"","","","","","html-keyboard-response","175","608608","0.0-5.0-1.0-1.0-0.0-2.0-0.0-0.0-0.7","null","fixation","null","<p style='font-size: 48px; color: white'>+</p >","","","","","","","","","","","","","","","","","","","","","","","","","","","","","","","","","","","","","","","","","","","","","","","",""
"","","","","","rdk","176","610234","0.0-5.0-1.0-1.0-0.0-2.0-0.0-0.0-1.7","1123","color_test","d","","true","[""d"",""k""]","d","3000","true","1","100","0","0","0","5.7","1","-1","3","550","550","[""hsl(0, 50%, 50%)"",""hsl(225, 50%, 50%)""]","[""hsl(0, 50%, 50%)"",""hsl(225, 50%, 50%)""]","7","0.54","0","circle","black","3","2","2","16.82089552238806","[11,17,17,17,17,17,17,17,17,17,17,17,17,17,17,17,17,17,17,17,17,17,17,16,17,17,17,17,17,17,17,17,16,17,16,17,17,17,17,17,17,17,17,17,17,16,17,17,16,17,17,17,17,17,17,17,17,17,17,17,16,17,17,17,17,17,17]","67","965","360","false","20","20","black","1","false","1","1","1820","630","d","staircase_color","","","","",""
"","","","","","html-keyboard-response","177","611243","0.0-5.0-1.0-1.0-0.0-2.0-0.0-0.0-2.7","null","","null","<p style='font-size: 60px; color: green'>正确!</p>","","","","","","","","","","","","","","","","","","","","","","","","","","","","","","","","","","","","","","","","","","","","","","","",""
"","","","","","html-keyboard-response","178","612259","0.0-5.0-1.0-1.0-0.0-2.0-0.0-0.0-0.8","null","fixation","null","<p style='font-size: 48px; color: white'>+</p >","","","","","","","","","","","","","","","","","","","","","","","","","","","","","","","","","","","","","","","","","","","","","","","",""
"","","","","","rdk","179","613865","0.0-5.0-1.0-1.0-0.0-2.0-0.0-0.0-1.8","1105","color_test","d","","true","[""d"",""k""]","d","3000","true","1","100","0","0","0","5.7","1","-1","3","550","550","[""hsl(0, 50%, 50%)"",""hsl(225, 50%, 50%)""]","[""hsl(0, 50%, 50%)"",""hsl(225, 50%, 50%)""]","7","0.54","0","circle","black","3","2","2","16.803030303030305","[12,17,17,17,17,17,17,17,17,17,17,17,17,17,17,17,17,17,16,17,17,17,17,17,17,17,17,17,17,17,17,17,17,17,16,17,16,17,17,17,17,17,17,17,17,16,17,17,17,17,16,16,17,17,17,17,17,17,17,17,17,16,16,17,17,17]","66","965","360","false","20","20","black","1","false","1","1","1820","630","d","staircase_color","","","","",""
"","","","","","html-keyboard-response","180","614892","0.0-5.0-1.0-1.0-0.0-2.0-0.0-0.0-2.8","null","","null","<p style='font-size: 60px; color: green'>正确!</p>","","","","","","","","","","","","","","","","","","","","","","","","","","","","","","","","","","","","","","","","","","","","","","","",""
"","","","","","html-keyboard-response","181","615908","0.0-5.0-1.0-1.0-0.0-2.0-0.0-0.0-0.9","null","fixation","null","<p style='font-size: 48px; color: white'>+</p >","","","","","","","","","","","","","","","","","","","","","","","","","","","","","","","","","","","","","","","","","","","","","","","",""
"","","","","","rdk","182","617402","0.0-5.0-1.0-1.0-0.0-2.0-0.0-0.0-1.9","991","color_test","k","","true","[""d"",""k""]","k","3000","true","1","100","0","0","0","5.7","1","-1","3","550","550","[""hsl(0, 50%, 50%)"",""hsl(225, 50%, 50%)""]","[""hsl(225, 50%, 50%)"",""hsl(0, 50%, 50%)""]","7","0.54","0","circle","black","3","2","2","16.864406779661017","[12,17,17,17,17,17,17,17,17,17,17,17,17,17,17,16,17,17,17,17,18,17,17,17,17,17,17,17,17,17,17,17,17,17,17,16,17,17,16,17,17,17,17,17,17,17,17,17,17,17,16,17,17,17,17,17,17,17,17]","59","965","360","false","20","20","black","1","false","1","1","1820","630","k","staircase_color","","","","",""
"","","","","","html-keyboard-response","183","618425","0.0-5.0-1.0-1.0-0.0-2.0-0.0-0.0-2.9","null","","null","<p style='font-size: 60px; color: green'>正确!</p>","","","","","","","","","","","","","","","","","","","","","","","","","","","","","","","","","","","","","","","","","","","","","","","",""
"","","","","","html-keyboard-response","184","619426","0.0-5.0-1.0-1.0-0.0-2.0-0.0-0.0-0.10","null","fixation","null","<p style='font-size: 48px; color: white'>+</p >","","","","","","","","","","","","","","","","","","","","","","","","","","","","","","","","","","","","","","","","","","","","","","","",""
"","","","","","rdk","185","621082","0.0-5.0-1.0-1.0-0.0-2.0-0.0-0.0-1.10","1139","color_test","d","","true","[""d"",""k""]","d","3000","true","1","100","0","0","0","5.7","1","-1","3","550","550","[""hsl(0, 50%, 50%)"",""hsl(225, 50%, 50%)""]","[""hsl(0, 50%, 50%)"",""hsl(225, 50%, 50%)""]","7","0.54","0","circle","black","3","2","2","16.86764705882353","[13,17,17,17,17,17,17,16,17,16,17,17,17,17,17,17,17,17,17,17,17,17,17,17,17,17,17,17,17,17,16,17,17,17,17,17,17,17,17,17,17,17,17,17,17,17,17,17,17,17,17,16,17,17,17,17,17,17,17,17,16,17,17,17,17,17,17,17]","68","965","360","false","20","20","black","1","false","1","1","1820","630","d","staircase_color","","","","",""
"","","","","","html-keyboard-response","186","622108","0.0-5.0-1.0-1.0-0.0-2.0-0.0-0.0-2.10","null","","null","<p style='font-size: 60px; color: green'>正确!</p>","","","","","","","","","","","","","","","","","","","","","","","","","","","","","","","","","","","","","","","","","","","","","","","",""
"","","","","","html-keyboard-response","187","623126","0.0-5.0-1.0-1.0-0.0-2.0-0.0-0.0-0.11","null","fixation","null","<p style='font-size: 48px; color: white'>+</p >","","","","","","","","","","","","","","","","","","","","","","","","","","","","","","","","","","","","","","","","","","","","","","","",""
"","","","","","rdk","188","624394","0.0-5.0-1.0-1.0-0.0-2.0-0.0-0.0-1.11","751","color_test","k","","true","[""d"",""k""]","k","3000","true","1","100","0","0","0","5.7","1","-1","3","550","550","[""hsl(0, 50%, 50%)"",""hsl(225, 50%, 50%)""]","[""hsl(225, 50%, 50%)"",""hsl(0, 50%, 50%)""]","7","0.54","0","circle","black","3","2","2","16.822222222222223","[11,17,17,17,17,17,17,17,17,17,17,16,17,17,17,17,17,17,17,17,17,17,17,17,17,16,17,17,17,17,17,17,17,17,17,17,17,17,17,17,17,17,17,17,17]","45","965","360","false","20","20","black","1","false","1","1","1820","630","k","staircase_color","","","","",""
"","","","","","html-keyboard-response","189","625426","0.0-5.0-1.0-1.0-0.0-2.0-0.0-0.0-2.11","null","","null","<p style='font-size: 60px; color: green'>正确!</p>","","","","","","","","","","","","","","","","","","","","","","","","","","","","","","","","","","","","","","","","","","","","","","","",""
"","","","","","html-keyboard-response","190","627942","0.0-5.0-1.0-1.0-0.0-2.0-0.0-1.0","null","","null","<p style='font-size: 35px; color: white'>您的正确率为： 92% 。平均反应时为：1042毫秒。</p>","","","","","","","","","","","","","","","","","","","","","","","","","","","","","","","","","","","","","","","","","","","","","","","",""
"","","","","","html-keyboard-response","191","628960","0.0-5.0-1.0-1.0-0.0-2.1-0.1-0.1-0.12","null","fixation","null","<p style='font-size: 48px; color: white'>+</p >","","","","","","","","","","","","","","","","","","","","","","","","","","","","","","","","","","","","","","","","","","","","","","","",""
"","","","","","rdk","192","631162","0.0-5.0-1.0-1.0-0.0-2.1-0.1-0.1-1.12","1686","color_test","d","","true","[""d"",""k""]","d","3000","true","1","100","0","0","0","5.7","1","-1","3","550","550","[""hsl(0, 50%, 50%)"",""hsl(225, 50%, 50%)""]","[""hsl(0, 50%, 50%)"",""hsl(225, 50%, 50%)""]","7","0.52","0","circle","black","3","2","2","16.88118811881188","[12,17,17,17,17,17,17,17,17,17,17,17,17,17,17,17,17,17,17,17,17,17,16,17,17,17,17,17,17,17,17,17,17,17,17,17,17,17,17,17,17,17,17,16,17,17,17,17,17,17,17,17,16,17,16,17,17,17,17,17,17,17,17,17,17,17,17,17,17,17,17,16,17,17,17,17,17,16,17,17,17,17,17,16,17,17,17,17,17,17,17,17,17,17,17,17,17,17,17,17,17]","101","965","360","false","20","20","black","1","false","1","1","1820","630","d","staircase_color","","","","",""
"","","","","","html-keyboard-response","193","632177","0.0-5.0-1.0-1.0-0.0-2.1-0.1-0.1-2.12","null","","null","<p style='font-size: 60px; color: green'>正确!</p>","","","","","","","","","","","","","","","","","","","","","","","","","","","","","","","","","","","","","","","","","","","","","","","",""
"","","","","","html-keyboard-response","194","633193","0.0-5.0-1.0-1.0-0.0-2.1-0.1-0.1-0.13","null","fixation","null","<p style='font-size: 48px; color: white'>+</p >","","","","","","","","","","","","","","","","","","","","","","","","","","","","","","","","","","","","","","","","","","","","","","","",""
"","","","","","rdk","195","635338","0.0-5.0-1.0-1.0-0.0-2.1-0.1-0.1-1.13","1628","color_test","d","","true","[""d"",""k""]","d","3000","true","1","100","0","0","0","5.7","1","-1","3","550","550","[""hsl(0, 50%, 50%)"",""hsl(225, 50%, 50%)""]","[""hsl(0, 50%, 50%)"",""hsl(225, 50%, 50%)""]","7","0.52","0","circle","black","3","2","2","16.876288659793815","[12,17,17,17,17,17,17,17,17,17,17,16,17,17,17,17,17,17,17,16,17,17,17,17,17,17,17,17,17,17,17,17,17,17,17,17,17,17,17,17,17,17,17,17,17,17,17,17,17,17,17,17,16,17,17,17,17,17,17,17,16,17,17,17,17,17,17,17,17,17,17,17,17,17,17,16,17,17,17,17,17,17,17,17,17,17,17,16,17,17,17,16,17,17,17,17,17]","97","965","360","false","20","20","black","1","false","1","1","1820","630","d","staircase_color","","","","",""
"","","","","","html-keyboard-response","196","636359","0.0-5.0-1.0-1.0-0.0-2.1-0.1-0.1-2.13","null","","null","<p style='font-size: 60px; color: green'>正确!</p>","","","","","","","","","","","","","","","","","","","","","","","","","","","","","","","","","","","","","","","","","","","","","","","",""
"","","","","","html-keyboard-response","197","637375","0.0-5.0-1.0-1.0-0.0-2.1-0.1-0.1-0.14","null","fixation","null","<p style='font-size: 48px; color: white'>+</p >","","","","","","","","","","","","","","","","","","","","","","","","","","","","","","","","","","","","","","","","","","","","","","","",""
"","","","","","rdk","198","639114","0.0-5.0-1.0-1.0-0.0-2.1-0.1-0.1-1.14","1237","color_test","k","","true","[""d"",""k""]","k","3000","true","1","100","0","0","0","5.7","1","-1","3","550","550","[""hsl(0, 50%, 50%)"",""hsl(225, 50%, 50%)""]","[""hsl(225, 50%, 50%)"",""hsl(0, 50%, 50%)""]","7","0.52","0","circle","black","3","2","2","16.66216216216216","[9,17,17,17,18,17,16,17,16,17,17,16,17,17,17,17,17,17,17,17,17,16,17,17,17,17,17,16,17,17,17,15,17,17,17,17,17,17,16,18,17,17,16,17,17,16,17,17,16,17,16,17,16,17,17,16,17,17,17,17,16,17,17,17,17,17,16,17,17,16,17,17,16,16]","74","965","360","false","20","20","black","1","false","1","1","1820","630","k","staircase_color","","","","",""
"","","","","","html-keyboard-response","199","640142","0.0-5.0-1.0-1.0-0.0-2.1-0.1-0.1-2.14","null","","null","<p style='font-size: 60px; color: green'>正确!</p>","","","","","","","","","","","","","","","","","","","","","","","","","","","","","","","","","","","","","","","","","","","","","","","",""
"","","","","","html-keyboard-response","200","641158","0.0-5.0-1.0-1.0-0.0-2.1-0.1-0.1-0.15","null","fixation","null","<p style='font-size: 48px; color: white'>+</p >","","","","","","","","","","","","","","","","","","","","","","","","","","","","","","","","","","","","","","","","","","","","","","","",""
"","","","","","rdk","201","643498","0.0-5.0-1.0-1.0-0.0-2.1-0.1-0.1-1.15","1837","color_test","d","","false","[""d"",""k""]","k","3000","true","1","100","0","0","0","5.7","1","-1","3","550","550","[""hsl(0, 50%, 50%)"",""hsl(225, 50%, 50%)""]","[""hsl(225, 50%, 50%)"",""hsl(0, 50%, 50%)""]","7","0.52","0","circle","black","3","2","2","16.70909090909091","[10,17,17,17,17,17,17,17,17,16,16,17,17,16,17,16,17,17,16,17,17,17,17,16,17,16,17,17,16,17,17,17,17,17,17,17,16,16,17,17,16,17,16,17,17,17,17,17,17,17,16,17,17,17,17,16,17,17,16,17,17,16,17,17,17,17,16,17,17,17,17,16,17,17,16,17,17,17,17,17,17,17,16,17,17,17,17,17,17,17,17,17,17,17,16,17,17,17,17,17,16,17,17,17,16,16,17,17,16,17]","110","965","360","false","20","20","black","1","false","1","1","1820","630","k","staircase_color","","","","",""
"","","","","","html-keyboard-response","202","644510","0.0-5.0-1.0-1.0-0.0-2.1-0.1-0.1-2.15","null","","null","<p style='font-size: 60px; color: red'>错误!</p>","","","","","","","","","","","","","","","","","","","","","","","","","","","","","","","","","","","","","","","","","","","","","","","",""
"","","","","","html-keyboard-response","203","645527","0.0-5.0-1.0-1.0-0.0-2.1-0.1-0.1-0.16","null","fixation","null","<p style='font-size: 48px; color: white'>+</p >","","","","","","","","","","","","","","","","","","","","","","","","","","","","","","","","","","","","","","","","","","","","","","","",""
"","","","","","rdk","204","647338","0.0-5.0-1.0-1.0-0.0-2.1-0.1-0.1-1.16","1296","color_test","d","","true","[""d"",""k""]","d","3000","true","1","100","0","0","0","5.7","1","-1","3","550","550","[""hsl(0, 50%, 50%)"",""hsl(225, 50%, 50%)""]","[""hsl(0, 50%, 50%)"",""hsl(225, 50%, 50%)""]","7","0.52","0","circle","black","3","2","2","16.818181818181817","[13,17,17,17,17,17,17,17,17,17,17,17,17,17,17,16,17,17,17,17,17,17,17,17,17,17,17,17,17,16,17,17,17,17,17,16,17,17,17,17,17,17,17,16,17,17,16,17,17,17,16,17,17,17,17,17,17,17,17,17,17,16,17,17,17,16,17,17,17,17,17,17,16,17,16,17,17]","77","965","360","false","20","20","black","1","false","1","1","1820","630","d","staircase_color","","","","",""
"","","","","","html-keyboard-response","205","648343","0.0-5.0-1.0-1.0-0.0-2.1-0.1-0.1-2.16","null","","null","<p style='font-size: 60px; color: green'>正确!</p>","","","","","","","","","","","","","","","","","","","","","","","","","","","","","","","","","","","","","","","","","","","","","","","",""
"","","","","","html-keyboard-response","206","649360","0.0-5.0-1.0-1.0-0.0-2.1-0.1-0.1-0.17","null","fixation","null","<p style='font-size: 48px; color: white'>+</p >","","","","","","","","","","","","","","","","","","","","","","","","","","","","","","","","","","","","","","","","","","","","","","","",""
"","","","","","rdk","207","650666","0.0-5.0-1.0-1.0-0.0-2.1-0.1-0.1-1.17","790","color_test","k","","true","[""d"",""k""]","k","3000","true","1","100","0","0","0","5.7","1","-1","3","550","550","[""hsl(0, 50%, 50%)"",""hsl(225, 50%, 50%)""]","[""hsl(225, 50%, 50%)"",""hsl(0, 50%, 50%)""]","7","0.52","0","circle","black","3","2","2","16.829787234042552","[12,17,17,17,17,17,17,17,17,17,17,17,17,17,17,16,17,17,17,17,17,17,17,16,17,17,17,17,17,17,17,17,17,17,17,17,17,17,17,17,17,16,17,17,17,17,17]","47","965","360","false","20","20","black","1","false","1","1","1820","630","k","staircase_color","","","","",""
"","","","","","html-keyboard-response","208","651692","0.0-5.0-1.0-1.0-0.0-2.1-0.1-0.1-2.17","null","","null","<p style='font-size: 60px; color: green'>正确!</p>","","","","","","","","","","","","","","","","","","","","","","","","","","","","","","","","","","","","","","","","","","","","","","","",""
"","","","","","html-keyboard-response","209","652709","0.0-5.0-1.0-1.0-0.0-2.1-0.1-0.1-0.18","null","fixation","null","<p style='font-size: 48px; color: white'>+</p >","","","","","","","","","","","","","","","","","","","","","","","","","","","","","","","","","","","","","","","","","","","","","","","",""
"","","","","","rdk","210","654393","0.0-5.0-1.0-1.0-0.0-2.1-0.1-0.1-1.18","1168","color_test","d","","true","[""d"",""k""]","d","3000","true","1","100","0","0","0","5.7","1","-1","3","550","550","[""hsl(0, 50%, 50%)"",""hsl(225, 50%, 50%)""]","[""hsl(0, 50%, 50%)"",""hsl(225, 50%, 50%)""]","7","0.52","0","circle","black","3","2","2","16.84285714285714","[12,17,17,17,17,17,17,17,17,17,17,17,17,17,17,17,17,17,17,17,17,16,17,17,17,17,17,17,17,17,16,17,17,17,17,17,16,17,17,17,17,17,17,17,16,17,17,17,17,16,17,17,17,17,17,17,17,17,17,16,17,17,17,17,17,17,17,17,17,17]","70","965","360","false","20","20","black","1","false","1","1","1820","630","d","staircase_color","","","","",""
"","","","","","html-keyboard-response","211","655408","0.0-5.0-1.0-1.0-0.0-2.1-0.1-0.1-2.18","null","","null","<p style='font-size: 60px; color: green'>正确!</p>","","","","","","","","","","","","","","","","","","","","","","","","","","","","","","","","","","","","","","","","","","","","","","","",""
"","","","","","html-keyboard-response","212","656426","0.0-5.0-1.0-1.0-0.0-2.1-0.1-0.1-0.19","null","fixation","null","<p style='font-size: 48px; color: white'>+</p >","","","","","","","","","","","","","","","","","","","","","","","","","","","","","","","","","","","","","","","","","","","","","","","",""
"","","","","","rdk","213","658411","0.0-5.0-1.0-1.0-0.0-2.1-0.1-0.1-1.19","1468","color_test","d","","false","[""d"",""k""]","k","3000","true","1","100","0","0","0","5.7","1","-1","3","550","550","[""hsl(0, 50%, 50%)"",""hsl(225, 50%, 50%)""]","[""hsl(225, 50%, 50%)"",""hsl(0, 50%, 50%)""]","7","0.52","0","circle","black","3","2","2","16.829545454545453","[11,17,17,17,17,17,17,16,17,17,17,17,17,17,17,17,17,17,17,17,17,16,17,17,17,17,17,17,17,17,17,17,17,16,17,17,17,17,17,17,17,17,16,17,17,17,17,17,17,16,17,17,17,17,17,17,17,17,17,16,17,17,17,17,17,17,17,17,17,17,17,17,17,17,17,16,17,16,17,17,16,17,17,17,17,17,17,17]","88","965","360","false","20","20","black","1","false","1","1","1820","630","k","staircase_color","","","","",""
"","","","","","html-keyboard-response","214","659442","0.0-5.0-1.0-1.0-0.0-2.1-0.1-0.1-2.19","null","","null","<p style='font-size: 60px; color: red'>错误!</p>","","","","","","","","","","","","","","","","","","","","","","","","","","","","","","","","","","","","","","","","","","","","","","","",""
"","","","","","html-keyboard-response","215","660459","0.0-5.0-1.0-1.0-0.0-2.1-0.1-0.1-0.20","null","fixation","null","<p style='font-size: 48px; color: white'>+</p >","","","","","","","","","","","","","","","","","","","","","","","","","","","","","","","","","","","","","","","","","","","","","","","",""
"","","","","","rdk","216","662010","0.0-5.0-1.0-1.0-0.0-2.1-0.1-0.1-1.20","1048","color_test","d","","false","[""d"",""k""]","k","3000","true","1","100","0","0","0","5.7","1","-1","3","550","550","[""hsl(0, 50%, 50%)"",""hsl(225, 50%, 50%)""]","[""hsl(225, 50%, 50%)"",""hsl(0, 50%, 50%)""]","7","0.52","0","circle","black","3","2","2","16.634920634920636","[8,17,17,17,17,17,17,17,17,16,17,16,17,17,16,17,17,16,17,16,17,17,17,17,17,17,17,16,17,16,17,17,17,17,17,17,16,17,16,17,17,17,17,16,17,17,17,17,17,16,17,17,17,16,17,17,17,17,17,17,16,17,16]","63","965","360","false","20","20","black","1","false","1","1","1820","630","k","staircase_color","","","","",""
"","","","","","html-keyboard-response","217","663025","0.0-5.0-1.0-1.0-0.0-2.1-0.1-0.1-2.20","null","","null","<p style='font-size: 60px; color: red'>错误!</p>","","","","","","","","","","","","","","","","","","","","","","","","","","","","","","","","","","","","","","","","","","","","","","","",""
"","","","","","html-keyboard-response","218","664042","0.0-5.0-1.0-1.0-0.0-2.1-0.1-0.1-0.21","null","fixation","null","<p style='font-size: 48px; color: white'>+</p >","","","","","","","","","","","","","","","","","","","","","","","","","","","","","","","","","","","","","","","","","","","","","","","",""
"","","","","","rdk","219","665306","0.0-5.0-1.0-1.0-0.0-2.1-0.1-0.1-1.21","746","color_test","k","","false","[""d"",""k""]","d","3000","true","1","100","0","0","0","5.7","1","-1","3","550","550","[""hsl(0, 50%, 50%)"",""hsl(225, 50%, 50%)""]","[""hsl(0, 50%, 50%)"",""hsl(225, 50%, 50%)""]","7","0.52","0","circle","black","3","2","2","16.772727272727273","[12,16,17,17,17,17,17,17,17,17,17,17,17,17,16,17,17,17,17,17,17,17,17,17,17,17,17,17,17,17,16,17,17,17,17,17,17,17,17,17,16,17,17,16]","44","965","360","false","20","20","black","1","false","1","1","1820","630","d","staircase_color","","","","",""
"","","","","","html-keyboard-response","220","666325","0.0-5.0-1.0-1.0-0.0-2.1-0.1-0.1-2.21","null","","null","<p style='font-size: 60px; color: red'>错误!</p>","","","","","","","","","","","","","","","","","","","","","","","","","","","","","","","","","","","","","","","","","","","","","","","",""
"","","","","","html-keyboard-response","221","667342","0.0-5.0-1.0-1.0-0.0-2.1-0.1-0.1-0.22","null","fixation","null","<p style='font-size: 48px; color: white'>+</p >","","","","","","","","","","","","","","","","","","","","","","","","","","","","","","","","","","","","","","","","","","","","","","","",""
"","","","","","rdk","222","668859","0.0-5.0-1.0-1.0-0.0-2.1-0.1-0.1-1.22","1016","color_test","d","","true","[""d"",""k""]","d","3000","true","1","100","0","0","0","5.7","1","-1","3","550","550","[""hsl(0, 50%, 50%)"",""hsl(225, 50%, 50%)""]","[""hsl(0, 50%, 50%)"",""hsl(225, 50%, 50%)""]","7","0.52","0","circle","black","3","2","2","16.721311475409838","[12,17,17,17,16,17,16,16,17,17,17,16,16,17,17,17,17,17,17,16,17,17,17,17,17,16,16,17,17,17,17,17,17,17,15,17,17,16,17,17,17,17,17,17,17,17,17,17,17,17,17,17,16,17,17,17,17,17,17,17,17]","61","965","360","false","20","20","black","1","false","1","1","1820","630","d","staircase_color","","","","",""
"","","","","","html-keyboard-response","223","669875","0.0-5.0-1.0-1.0-0.0-2.1-0.1-0.1-2.22","null","","null","<p style='font-size: 60px; color: green'>正确!</p>","","","","","","","","","","","","","","","","","","","","","","","","","","","","","","","","","","","","","","","","","","","","","","","",""
"","","","","","html-keyboard-response","224","670893","0.0-5.0-1.0-1.0-0.0-2.1-0.1-0.1-0.23","null","fixation","null","<p style='font-size: 48px; color: white'>+</p >","","","","","","","","","","","","","","","","","","","","","","","","","","","","","","","","","","","","","","","","","","","","","","","",""
"","","","","","rdk","225","672410","0.0-5.0-1.0-1.0-0.0-2.1-0.1-0.1-1.23","1012","color_test","k","","true","[""d"",""k""]","k","3000","true","1","100","0","0","0","5.7","1","-1","3","550","550","[""hsl(0, 50%, 50%)"",""hsl(225, 50%, 50%)""]","[""hsl(225, 50%, 50%)"",""hsl(0, 50%, 50%)""]","7","0.52","0","circle","black","3","2","2","17","[7,18,16,16,17,17,16,21,30,16,17,17,17,17,17,17,16,17,17,17,16,17,17,17,17,17,17,17,17,17,17,17,17,17,17,17,17,17,17,16,17,17,17,16,17,17,17,17,17,17,17,17,17,17,17,17,17,17,17,17]","60","965","360","false","20","20","black","1","false","1","1","1820","630","k","staircase_color","","","","",""
"","","","","","html-keyboard-response","226","673425","0.0-5.0-1.0-1.0-0.0-2.1-0.1-0.1-2.23","null","","null","<p style='font-size: 60px; color: green'>正确!</p>","","","","","","","","","","","","","","","","","","","","","","","","","","","","","","","","","","","","","","","","","","","","","","","",""
"","","","","","html-keyboard-response","227","675941","0.0-5.0-1.0-1.0-0.0-2.1-0.1-1.1","null","","null","<p style='font-size: 35px; color: white'>您的正确率为： 67% 。平均反应时为：1244毫秒。</p>","","","","","","","","","","","","","","","","","","","","","","","","","","","","","","","","","","","","","","","","","","","","","","","",""
"","","","","","html-keyboard-response","228","676958","0.0-5.0-1.0-1.0-0.0-3.0-0.0-0.0-0.0","null","fixation","null","<p style='font-size: 48px; color: white'>+</p >","","","","","","","","","","","","","","","","","","","","","","","","","","","","","","","","","","","","","","","","","","","","","","","",""
"","","","","","rdk","229","678505","0.0-5.0-1.0-1.0-0.0-3.0-0.0-0.0-1.0","1044","color_test","d","","false","[""d"",""k""]","k","3000","true","1","100","0","0","0","5.7","1","-1","3","550","550","[""hsl(0, 50%, 50%)"",""hsl(225, 50%, 50%)""]","[""hsl(225, 50%, 50%)"",""hsl(0, 50%, 50%)""]","7","0.52","0","circle","black","3","2","2","16.725806451612904","[10,17,17,17,17,17,17,16,17,16,17,17,17,17,16,17,16,17,17,16,17,17,17,17,16,16,17,17,17,17,17,17,17,17,17,17,17,17,17,17,17,17,17,16,17,17,17,17,17,17,17,17,17,16,17,17,17,16,17,17,17,17]","62","965","360","false","20","20","black","1","false","1","1","1820","630","k","staircase_color","","","","",""
"","","","","","html-keyboard-response","230","679525","0.0-5.0-1.0-1.0-0.0-3.0-0.0-0.0-2.0","null","","null","<p style='font-size: 60px; color: red'>错误!</p>","","","","","","","","","","","","","","","","","","","","","","","","","","","","","","","","","","","","","","","","","","","","","","","",""
"","","","","","html-keyboard-response","231","680542","0.0-5.0-1.0-1.0-0.0-3.0-0.0-0.0-0.1","null","fixation","null","<p style='font-size: 48px; color: white'>+</p >","","","","","","","","","","","","","","","","","","","","","","","","","","","","","","","","","","","","","","","","","","","","","","","",""
"","","","","","rdk","232","682201","0.0-5.0-1.0-1.0-0.0-3.0-0.0-0.0-1.1","1142","color_test","d","","true","[""d"",""k""]","d","3000","true","1","100","0","0","0","5.7","1","-1","3","550","550","[""hsl(0, 50%, 50%)"",""hsl(225, 50%, 50%)""]","[""hsl(0, 50%, 50%)"",""hsl(225, 50%, 50%)""]","7","0.52","0","circle","black","3","2","2","16.735294117647058","[11,17,17,17,17,17,17,18,17,17,17,17,17,17,16,17,17,17,17,17,17,17,17,16,17,17,17,17,17,17,17,16,17,17,17,16,17,17,16,17,17,15,17,17,17,17,17,17,17,17,16,17,17,16,17,17,16,17,17,16,16,17,17,17,17,17,16,17]","68","965","360","false","20","20","black","1","false","1","1","1820","630","d","staircase_color","","","","",""
"","","","","","html-keyboard-response","233","683225","0.0-5.0-1.0-1.0-0.0-3.0-0.0-0.0-2.1","null","","null","<p style='font-size: 60px; color: green'>正确!</p>","","","","","","","","","","","","","","","","","","","","","","","","","","","","","","","","","","","","","","","","","","","","","","","",""
"","","","","","html-keyboard-response","234","684242","0.0-5.0-1.0-1.0-0.0-3.0-0.0-0.0-0.2","null","fixation","null","<p style='font-size: 48px; color: white'>+</p >","","","","","","","","","","","","","","","","","","","","","","","","","","","","","","","","","","","","","","","","","","","","","","","",""
