"success","timeout","failed_images","failed_audio","failed_video","trial_type","trial_index","time_elapsed","internal_node_id","rt","part","response","stimulus","correct","choices","correct_choice","trial_duration","response_ends_trial","number_of_apertures","number_of_dots","coherent_direction","coherence","opposite_coherence","dot_radius","dot_side_length","dot_life","move_distance","aperture_width","aperture_height","dot_color","dot_color_final","color_change_delay","target_color_proportion","motion_change_delay","dot_shape","background_color","RDK_type","aperture_type","reinsert_type","frame_rate","frame_rate_array","number_of_frames","aperture_center_x","aperture_center_y","fixation_cross","fixation_cross_width","fixation_cross_height","fixation_cross_color","fixation_cross_thickness","border","border_thickness","border_color","canvas_width","canvas_height","correct_response","data_label","task","difficulty","isMatch","association","label"
"true","false","[]","[]","[]","preload","0","4","0.0-0.0","","","","","","","","","","","","","","","","","","","","","","","","","","","","","","","","","","","","","","","","","","","","","","","","","","","",""
"true","","","","","fullscreen","1","1558966","0.0-1.0","1557427","fullScreen","","","","","","","","","","","","","","","","","","","","","","","","","","","","","","","","","","","","","","","","","","","","","","","","","",""
"","","","","","survey","2","1569043","0.0-2.0","9464","survey","{""sex"":""女"",""age"":24,""hands"":""右"",""color_blindness"":""都不是""}","","","","","","","","","","","","","","","","","","","","","","","","","","","","","","","","","","","","","","","","","","","","","","","","",""
"","","","","","survey-text","3","1579834","0.0-3.0","10225","color_test","{""Q0"":""be""}","","","","","","","","","","","","","","","","","","","","","","","","","","","","","","","","","","","","","","","","","","","","","","","","",""
"","","","","","html-keyboard-response","4","1587809","0.0-4.0","7470","instruction_beginning"," ","
      <div style=""text-align: left; color: white"">
        <h3 style=""text-align: center; font-size: 30px; margin: 0;"">欢迎参与本实验</h3>
          <p>为充分保障您的权利，请确保您已经知晓并同意《参与实验同意书》以及《数据公开知情同意书》，</p>
          <p>如果您未见过上述内容，请咨询实验员 ，</p>
          <p>如果您选择继续实验，则表示您已经清楚两份知情同意书的内容并同意 。</p>
          <p>在整个实验中，您需要完成两项任务，具体的任务要求会在后面说明 ，</p>
          <p>请按空格键进入实验</p >
      </div>","","","","","","","","","","","","","","","","","","","","","","","","","","","","","","","","","","","","","","","","","","","","","","","",""
"","","","","","html-keyboard-response","5","1645400","0.0-5.0-0.0","57083","instruction_getThreshold"," ","
        <div style=""text-align: left; color: white; padding: 10px""> 
          <h3 style=""text-align: center; font-size: 30px; margin: 10px"">欢迎进入实验！</h3>
          <p>在正式开始前，我们将通过一个快速测试为您打造专属的难度水平。<p>
          <p>接下来，屏幕上会呈现一些运动的圆点，其中一半为 <span style=""color: hsl(0, 50%, 50%)"">红色</span> ，一半为 <span style=""color: hsl(225, 50%, 50%)"">蓝色</span>，</p>
          <p><span style=""font-weight: bold"">大约0.2秒后,</span>  一部分点会随机变为另一种颜色（例如从红色变为蓝色），变化后某种颜色的数量会超过另一种。</p >
          <p>您需要在3秒内判断 <span style=""font-weight: bold"">变化后，散点图的整体颜色（即大多数点的颜色）是红色还是蓝色 </span>：</p >
          <ul>
            <li>整体为 <span style=""color: hsl(0, 50%, 50%)"">红色</span>，请按键盘 <span style=""color: hsl(0, 50%, 50%)"">""D"" 键</span></li>
            <li>整体为 <span style=""color: hsl(225, 50%, 50%)"">蓝色</span>，请按键盘 <span style=""color: hsl(225, 50%, 50%)"">""k"" 键</span> </li>
          </ul>
          <p>如有疑问请向主试咨询，没有则按下空格键开始</p>
        </div>","","","","","","","","","","","","","","","","","","","","","","","","","","","","","","","","","","","","","","","","","","","","","","","",""
"","","","","","html-keyboard-response","6","1646418","0.0-5.0-1.0-1.0-0.0-0.0-0.0-0.0-0.0","null","fixation","null","<p style='font-size: 48px; color: white'>+</p >","","","","","","","","","","","","","","","","","","","","","","","","","","","","","","","","","","","","","","","","","","","","","","","",""
"","","","","","rdk","7","1649530","0.0-5.0-1.0-1.0-0.0-0.0-0.0-0.0-1.0","2581","color_test","d","","true","[""d"",""k""]","d","3000","true","1","100","0","0","0","5.7","1","-1","3","550","550","[""hsl(0, 50%, 50%)"",""hsl(225, 50%, 50%)""]","[""hsl(0, 50%, 50%)"",""hsl(225, 50%, 50%)""]","7","0.64","0","circle","black","3","2","2","16.772727272727273","[2,17,16,17,17,16,17,17,18,16,17,17,17,17,17,17,17,17,16,20,14,17,17,17,16,17,17,17,16,17,17,16,17,17,17,17,17,17,17,17,17,17,17,17,16,17,16,17,16,17,17,17,17,17,16,17,17,17,17,17,17,17,16,17,17,17,17,17,17,16,17,17,17,17,17,17,16,17,17,17,17,17,17,17,17,17,17,17,17,17,17,16,17,17,17,17,17,17,17,17,17,17,16,17,17,16,17,16,17,17,16,17,17,17,17,17,17,16,17,17,17,17,17,17,17,17,17,17,17,17,17,17,17,17,17,17,17,17,17,17,17,16,17,18,16,17,17,17,17,17,17,17,17,17]","154","965","360","false","20","20","black","1","false","1","1","1820","630","d","staircase_color","","","","",""
"","","","","","html-keyboard-response","8","1650551","0.0-5.0-1.0-1.0-0.0-0.0-0.0-0.0-2.0","null","","null","<p style='font-size: 60px; color: green'>正确!</p>","","","","","","","","","","","","","","","","","","","","","","","","","","","","","","","","","","","","","","","","","","","","","","","",""
"","","","","","html-keyboard-response","9","1651567","0.0-5.0-1.0-1.0-0.0-0.0-0.0-0.0-0.1","null","fixation","null","<p style='font-size: 48px; color: white'>+</p >","","","","","","","","","","","","","","","","","","","","","","","","","","","","","","","","","","","","","","","","","","","","","","","",""
"","","","","","rdk","10","1655097","0.0-5.0-1.0-1.0-0.0-0.0-0.0-0.0-1.1","-1","color_test","","","false","[""d"",""k""]","d","3000","true","1","100","0","0","0","5.7","1","-1","3","550","550","[""hsl(0, 50%, 50%)"",""hsl(225, 50%, 50%)""]","[""hsl(0, 50%, 50%)"",""hsl(225, 50%, 50%)""]","7","0.64","0","circle","black","3","2","2","16.85","[13,18,17,17,17,17,17,17,17,17,17,17,17,17,17,17,17,17,17,17,17,17,17,17,17,16,17,17,17,17,17,17,17,17,17,16,17,17,17,17,17,17,17,17,17,17,16,17,17,16,17,17,17,17,17,16,17,16,17,17,17,16,17,17,17,17,17,17,17,17,17,16,17,17,17,17,17,17,17,17,17,17,17,17,16,17,16,17,17,17,17,17,17,17,17,16,16,17,17,17,17,17,17,17,17,17,17,16,17,17,17,16,17,17,17,17,17,17,17,17,16,17,17,17,17,17,17,17,16,17,17,17,17,17,17,17,17,16,17,17,16,17,17,17,17,16,17,17,17,17,16,17,16,17,17,17,17,17,16,17,17,17,16,17,17,17,17,17,17,17,17,17,17,17,17,17,17,16,17,17]","180","965","360","false","20","20","black","1","false","1","1","1820","630","d","staircase_color","","","","",""
"","","","","","html-keyboard-response","11","1656116","0.0-5.0-1.0-1.0-0.0-0.0-0.0-0.0-2.1","null","","null","<p style='font-size: 60px; color: yellow'>太慢!</p>","","","","","","","","","","","","","","","","","","","","","","","","","","","","","","","","","","","","","","","","","","","","","","","",""
"","","","","","html-keyboard-response","12","1657121","0.0-5.0-1.0-1.0-0.0-0.0-0.0-0.0-0.2","null","fixation","null","<p style='font-size: 48px; color: white'>+</p >","","","","","","","","","","","","","","","","","","","","","","","","","","","","","","","","","","","","","","","","","","","","","","","",""
"","","","","","rdk","13","1659689","0.0-5.0-1.0-1.0-0.0-0.0-0.0-0.0-1.2","2054","color_test","k","","true","[""d"",""k""]","k","3000","true","1","100","0","0","0","5.7","1","-1","3","550","550","[""hsl(0, 50%, 50%)"",""hsl(225, 50%, 50%)""]","[""hsl(225, 50%, 50%)"",""hsl(0, 50%, 50%)""]","7","0.64","0","circle","black","3","2","2","16.829268292682926","[11,17,17,17,17,17,17,17,17,17,16,17,17,17,17,17,17,16,16,17,17,17,17,16,17,17,17,17,16,17,16,17,17,17,17,17,17,16,17,17,17,17,16,17,17,17,17,17,17,17,17,17,17,16,17,17,17,17,17,16,17,17,17,17,17,16,17,17,17,17,17,17,17,17,17,17,17,16,17,17,17,17,17,17,17,17,17,17,17,17,16,17,16,17,17,17,17,17,17,16,17,17,17,17,17,17,17,17,17,17,17,17,17,17,17,17,17,17,17,17,17,17,17]","123","965","360","false","20","20","black","1","false","1","1","1820","630","k","staircase_color","","","","",""
"","","","","","html-keyboard-response","14","1660716","0.0-5.0-1.0-1.0-0.0-0.0-0.0-0.0-2.2","null","","null","<p style='font-size: 60px; color: green'>正确!</p>","","","","","","","","","","","","","","","","","","","","","","","","","","","","","","","","","","","","","","","","","","","","","","","",""
"","","","","","html-keyboard-response","15","1661718","0.0-5.0-1.0-1.0-0.0-0.0-0.0-0.0-0.3","null","fixation","null","<p style='font-size: 48px; color: white'>+</p >","","","","","","","","","","","","","","","","","","","","","","","","","","","","","","","","","","","","","","","","","","","","","","","",""
"","","","","","rdk","16","1663929","0.0-5.0-1.0-1.0-0.0-0.0-0.0-0.0-1.3","1694","color_test","k","","true","[""d"",""k""]","k","3000","true","1","100","0","0","0","5.7","1","-1","3","550","550","[""hsl(0, 50%, 50%)"",""hsl(225, 50%, 50%)""]","[""hsl(225, 50%, 50%)"",""hsl(0, 50%, 50%)""]","7","0.64","0","circle","black","3","2","2","16.871287128712872","[11,17,17,17,17,17,17,17,16,17,17,17,17,17,16,17,17,17,17,17,17,17,17,17,17,17,17,17,17,17,17,17,17,17,16,17,17,17,17,17,17,17,17,17,17,17,17,17,17,17,17,17,17,17,17,17,17,17,17,17,17,17,17,16,17,17,17,17,17,17,17,17,16,17,17,17,17,17,17,17,17,17,17,17,17,17,17,17,17,17,17,17,17,17,17,16,17,17,17,16,17]","101","965","360","false","20","20","black","1","false","1","1","1820","630","k","staircase_color","","","","",""
"","","","","","html-keyboard-response","17","1664934","0.0-5.0-1.0-1.0-0.0-0.0-0.0-0.0-2.3","null","","null","<p style='font-size: 60px; color: green'>正确!</p>","","","","","","","","","","","","","","","","","","","","","","","","","","","","","","","","","","","","","","","","","","","","","","","",""
"","","","","","html-keyboard-response","18","1665951","0.0-5.0-1.0-1.0-0.0-0.0-0.0-0.0-0.4","null","fixation","null","<p style='font-size: 48px; color: white'>+</p >","","","","","","","","","","","","","","","","","","","","","","","","","","","","","","","","","","","","","","","","","","","","","","","",""
"","","","","","rdk","19","1668521","0.0-5.0-1.0-1.0-0.0-0.0-0.0-0.0-1.4","2054","color_test","k","","true","[""d"",""k""]","k","3000","true","1","100","0","0","0","5.7","1","-1","3","550","550","[""hsl(0, 50%, 50%)"",""hsl(225, 50%, 50%)""]","[""hsl(225, 50%, 50%)"",""hsl(0, 50%, 50%)""]","7","0.64","0","circle","black","3","2","2","16.869918699186993","[13,17,17,17,17,17,17,17,16,17,17,17,17,17,17,17,17,17,17,17,17,17,17,17,17,17,16,17,17,17,16,17,17,17,17,17,17,17,17,17,17,17,17,17,17,17,17,17,17,16,17,16,18,16,17,17,17,17,17,17,17,17,17,17,17,17,17,17,17,17,17,17,16,17,17,17,17,17,17,17,17,17,17,17,17,16,17,17,17,16,17,17,17,17,17,17,17,17,17,16,17,17,17,17,17,16,17,17,17,17,17,16,17,17,17,17,17,16,17,17,17,17,17]","123","965","360","false","20","20","black","1","false","1","1","1820","630","k","staircase_color","","","","",""
"","","","","","html-keyboard-response","20","1669549","0.0-5.0-1.0-1.0-0.0-0.0-0.0-0.0-2.4","null","","null","<p style='font-size: 60px; color: green'>正确!</p>","","","","","","","","","","","","","","","","","","","","","","","","","","","","","","","","","","","","","","","","","","","","","","","",""
"","","","","","html-keyboard-response","21","1670566","0.0-5.0-1.0-1.0-0.0-0.0-0.0-0.0-0.5","null","fixation","null","<p style='font-size: 48px; color: white'>+</p >","","","","","","","","","","","","","","","","","","","","","","","","","","","","","","","","","","","","","","","","","","","","","","","",""
"","","","","","rdk","22","1673656","0.0-5.0-1.0-1.0-0.0-0.0-0.0-0.0-1.5","2587","color_test","k","","true","[""d"",""k""]","k","3000","true","1","100","0","0","0","5.7","1","-1","3","550","550","[""hsl(0, 50%, 50%)"",""hsl(225, 50%, 50%)""]","[""hsl(225, 50%, 50%)"",""hsl(0, 50%, 50%)""]","7","0.64","0","circle","black","3","2","2","16.780645161290323","[11,15,17,17,17,17,17,17,17,17,17,17,17,17,16,16,18,16,17,17,17,17,16,17,17,17,16,17,16,17,17,17,17,16,17,16,17,17,18,16,16,17,18,17,17,17,17,17,17,17,17,17,16,17,17,16,17,16,17,17,17,17,17,16,16,16,17,17,16,17,17,17,17,16,17,17,17,17,17,17,17,17,16,17,17,17,16,16,17,17,17,16,17,17,17,17,16,17,17,17,17,17,17,17,17,17,16,17,17,17,16,17,17,17,17,17,17,17,17,17,16,17,17,17,17,16,17,17,17,17,17,17,17,17,17,17,17,16,17,17,17,17,17,17,17,17,17,17,17,17,17,16,17,17,17]","155","965","360","false","20","20","black","1","false","1","1","1820","630","k","staircase_color","","","","",""
"","","","","","html-keyboard-response","23","1674683","0.0-5.0-1.0-1.0-0.0-0.0-0.0-0.0-2.5","null","","null","<p style='font-size: 60px; color: green'>正确!</p>","","","","","","","","","","","","","","","","","","","","","","","","","","","","","","","","","","","","","","","","","","","","","","","",""
"","","","","","html-keyboard-response","24","1675700","0.0-5.0-1.0-1.0-0.0-0.0-0.0-0.0-0.6","null","fixation","null","<p style='font-size: 48px; color: white'>+</p >","","","","","","","","","","","","","","","","","","","","","","","","","","","","","","","","","","","","","","","","","","","","","","","",""
"","","","","","rdk","25","1677897","0.0-5.0-1.0-1.0-0.0-0.0-0.0-0.0-1.6","1679","color_test","d","","true","[""d"",""k""]","d","3000","true","1","100","0","0","0","5.7","1","-1","3","550","550","[""hsl(0, 50%, 50%)"",""hsl(225, 50%, 50%)""]","[""hsl(0, 50%, 50%)"",""hsl(225, 50%, 50%)""]","7","0.64","0","circle","black","3","2","2","16.81","[11,17,17,17,17,17,17,17,16,17,17,17,17,17,17,16,17,17,17,17,17,17,17,16,17,16,17,17,17,17,17,17,17,17,16,17,17,17,17,17,17,16,17,17,17,17,17,16,17,17,17,17,17,16,17,16,17,17,17,17,17,16,17,17,17,17,17,17,16,17,17,17,17,17,17,17,16,17,17,17,17,17,17,17,17,17,17,17,17,17,17,16,17,17,17,17,17,17,17,17]","100","965","360","false","20","20","black","1","false","1","1","1820","630","d","staircase_color","","","","",""
"","","","","","html-keyboard-response","26","1678916","0.0-5.0-1.0-1.0-0.0-0.0-0.0-0.0-2.6","null","","null","<p style='font-size: 60px; color: green'>正确!</p>","","","","","","","","","","","","","","","","","","","","","","","","","","","","","","","","","","","","","","","","","","","","","","","",""
"","","","","","html-keyboard-response","27","1679933","0.0-5.0-1.0-1.0-0.0-0.0-0.0-0.0-0.7","null","fixation","null","<p style='font-size: 48px; color: white'>+</p >","","","","","","","","","","","","","","","","","","","","","","","","","","","","","","","","","","","","","","","","","","","","","","","",""
"","","","","","rdk","28","1682633","0.0-5.0-1.0-1.0-0.0-0.0-0.0-0.0-1.7","2197","color_test","d","","true","[""d"",""k""]","d","3000","true","1","100","0","0","0","5.7","1","-1","3","550","550","[""hsl(0, 50%, 50%)"",""hsl(225, 50%, 50%)""]","[""hsl(0, 50%, 50%)"",""hsl(225, 50%, 50%)""]","7","0.64","0","circle","black","3","2","2","16.825757575757574","[10,17,17,17,17,17,17,17,17,16,17,17,17,17,17,17,17,17,17,17,17,17,16,17,16,17,17,17,17,17,17,15,18,17,17,17,17,17,17,17,17,17,17,17,17,17,17,17,17,17,17,17,17,16,17,16,17,17,17,17,17,16,17,17,16,17,17,17,17,17,17,17,16,17,17,16,17,17,17,17,17,17,17,17,17,16,17,17,17,17,17,17,17,17,16,17,17,17,17,17,17,17,16,17,17,17,17,16,17,17,17,17,16,17,17,17,17,17,17,17,17,17,17,16,17,17,17,17,17,17,17,17]","132","965","360","false","20","20","black","1","false","1","1","1820","630","d","staircase_color","","","","",""
"","","","","","html-keyboard-response","29","1683649","0.0-5.0-1.0-1.0-0.0-0.0-0.0-0.0-2.7","null","","null","<p style='font-size: 60px; color: green'>正确!</p>","","","","","","","","","","","","","","","","","","","","","","","","","","","","","","","","","","","","","","","","","","","","","","","",""
"","","","","","html-keyboard-response","30","1684666","0.0-5.0-1.0-1.0-0.0-0.0-0.0-0.0-0.8","null","fixation","null","<p style='font-size: 48px; color: white'>+</p >","","","","","","","","","","","","","","","","","","","","","","","","","","","","","","","","","","","","","","","","","","","","","","","",""
"","","","","","rdk","31","1687225","0.0-5.0-1.0-1.0-0.0-0.0-0.0-0.0-1.8","2041","color_test","d","","true","[""d"",""k""]","d","3000","true","1","100","0","0","0","5.7","1","-1","3","550","550","[""hsl(0, 50%, 50%)"",""hsl(225, 50%, 50%)""]","[""hsl(0, 50%, 50%)"",""hsl(225, 50%, 50%)""]","7","0.64","0","circle","black","3","2","2","16.78688524590164","[12,17,17,17,17,17,17,17,17,17,16,17,17,17,17,17,17,17,17,17,17,16,17,17,17,17,17,17,17,17,17,17,17,17,17,17,16,17,16,17,17,17,17,17,17,16,17,17,16,16,17,17,16,17,17,17,16,16,17,17,17,17,17,17,17,16,17,17,17,18,16,17,17,18,17,17,17,17,16,17,17,17,17,17,17,15,17,17,17,17,17,17,17,17,16,17,17,16,17,16,17,17,16,16,17,16,17,17,17,17,17,17,17,17,17,17,17,17,16,17,16,17]","122","965","360","false","20","20","black","1","false","1","1","1820","630","d","staircase_color","","","","",""
"","","","","","html-keyboard-response","32","1688253","0.0-5.0-1.0-1.0-0.0-0.0-0.0-0.0-2.8","null","","null","<p style='font-size: 60px; color: green'>正确!</p>","","","","","","","","","","","","","","","","","","","","","","","","","","","","","","","","","","","","","","","","","","","","","","","",""
"","","","","","html-keyboard-response","33","1689267","0.0-5.0-1.0-1.0-0.0-0.0-0.0-0.0-0.9","null","fixation","null","<p style='font-size: 48px; color: white'>+</p >","","","","","","","","","","","","","","","","","","","","","","","","","","","","","","","","","","","","","","","","","","","","","","","",""
"","","","","","rdk","34","1691738","0.0-5.0-1.0-1.0-0.0-0.0-0.0-0.0-1.9","1953","color_test","k","","true","[""d"",""k""]","k","3000","true","1","100","0","0","0","5.7","1","-1","3","550","550","[""hsl(0, 50%, 50%)"",""hsl(225, 50%, 50%)""]","[""hsl(225, 50%, 50%)"",""hsl(0, 50%, 50%)""]","7","0.64","0","circle","black","3","2","2","16.854700854700855","[11,17,17,17,17,17,17,17,17,17,16,17,17,17,17,17,17,17,17,17,17,17,17,16,17,17,17,17,17,17,17,17,17,17,17,17,17,17,17,17,17,17,17,16,17,17,16,17,16,17,17,17,17,17,17,16,17,17,17,17,17,16,17,17,17,17,17,17,16,17,17,17,17,17,17,17,17,17,17,16,17,17,16,17,17,17,17,17,16,17,17,17,17,17,17,17,17,17,17,17,17,17,17,17,17,17,17,17,17,17,17,17,17,17,17,17,17]","117","965","360","false","20","20","black","1","false","1","1","1820","630","k","staircase_color","","","","",""
"","","","","","html-keyboard-response","35","1692767","0.0-5.0-1.0-1.0-0.0-0.0-0.0-0.0-2.9","null","","null","<p style='font-size: 60px; color: green'>正确!</p>","","","","","","","","","","","","","","","","","","","","","","","","","","","","","","","","","","","","","","","","","","","","","","","",""
"","","","","","html-keyboard-response","36","1693768","0.0-5.0-1.0-1.0-0.0-0.0-0.0-0.0-0.10","null","fixation","null","<p style='font-size: 48px; color: white'>+</p >","","","","","","","","","","","","","","","","","","","","","","","","","","","","","","","","","","","","","","","","","","","","","","","",""
"","","","","","rdk","37","1696153","0.0-5.0-1.0-1.0-0.0-0.0-0.0-0.0-1.10","1869","color_test","k","","true","[""d"",""k""]","k","3000","true","1","100","0","0","0","5.7","1","-1","3","550","550","[""hsl(0, 50%, 50%)"",""hsl(225, 50%, 50%)""]","[""hsl(225, 50%, 50%)"",""hsl(0, 50%, 50%)""]","7","0.64","0","circle","black","3","2","2","16.776785714285715","[11,17,17,17,17,18,17,16,17,17,16,17,17,16,17,17,17,18,16,17,17,17,17,17,17,16,17,17,17,17,16,16,17,17,16,17,18,16,17,17,17,17,16,17,17,16,17,17,17,17,17,17,17,17,17,17,17,17,16,17,16,17,17,16,17,17,17,17,17,17,17,16,17,17,17,17,17,17,17,18,16,17,16,17,17,17,16,17,17,17,17,17,16,17,17,17,17,17,17,17,16,17,17,17,16,17,16,17,17,16,17,17]","112","965","360","false","20","20","black","1","false","1","1","1820","630","k","staircase_color","","","","",""
"","","","","","html-keyboard-response","38","1697168","0.0-5.0-1.0-1.0-0.0-0.0-0.0-0.0-2.10","null","","null","<p style='font-size: 60px; color: green'>正确!</p>","","","","","","","","","","","","","","","","","","","","","","","","","","","","","","","","","","","","","","","","","","","","","","","",""
"","","","","","html-keyboard-response","39","1698184","0.0-5.0-1.0-1.0-0.0-0.0-0.0-0.0-0.11","null","fixation","null","<p style='font-size: 48px; color: white'>+</p >","","","","","","","","","","","","","","","","","","","","","","","","","","","","","","","","","","","","","","","","","","","","","","","",""
"","","","","","rdk","40","1699993","0.0-5.0-1.0-1.0-0.0-0.0-0.0-0.0-1.11","1301","color_test","d","","true","[""d"",""k""]","d","3000","true","1","100","0","0","0","5.7","1","-1","3","550","550","[""hsl(0, 50%, 50%)"",""hsl(225, 50%, 50%)""]","[""hsl(0, 50%, 50%)"",""hsl(225, 50%, 50%)""]","7","0.64","0","circle","black","3","2","2","16.628205128205128","[4,17,17,17,16,17,16,17,18,16,17,15,17,17,17,17,17,17,16,17,17,17,16,17,17,17,17,17,17,17,17,17,17,17,17,16,17,17,16,17,17,17,16,17,17,17,16,17,16,17,16,17,17,17,17,17,17,17,16,17,17,16,17,16,17,17,17,16,17,17,17,17,17,17,17,17,17,17]","78","965","360","false","20","20","black","1","false","1","1","1820","630","d","staircase_color","","","","",""
"","","","","","html-keyboard-response","41","1701017","0.0-5.0-1.0-1.0-0.0-0.0-0.0-0.0-2.11","null","","null","<p style='font-size: 60px; color: green'>正确!</p>","","","","","","","","","","","","","","","","","","","","","","","","","","","","","","","","","","","","","","","","","","","","","","","",""
"","","","","","html-keyboard-response","42","1703534","0.0-5.0-1.0-1.0-0.0-0.0-0.0-1.0","null","","null","<p style='font-size: 35px; color: white'>您的正确率为： 92% 。平均反应时为：1834毫秒。</p>","","","","","","","","","","","","","","","","","","","","","","","","","","","","","","","","","","","","","","","","","","","","","","","",""
"","","","","","html-keyboard-response","43","1704566","0.0-5.0-1.0-1.0-0.0-0.1-0.1-0.1-0.12","null","fixation","null","<p style='font-size: 48px; color: white'>+</p >","","","","","","","","","","","","","","","","","","","","","","","","","","","","","","","","","","","","","","","","","","","","","","","",""
"","","","","","rdk","44","1707486","0.0-5.0-1.0-1.0-0.0-0.1-0.1-0.1-1.12","2414","color_test","d","","true","[""d"",""k""]","d","3000","true","1","100","0","0","0","5.7","1","-1","3","550","550","[""hsl(0, 50%, 50%)"",""hsl(225, 50%, 50%)""]","[""hsl(0, 50%, 50%)"",""hsl(225, 50%, 50%)""]","7","0.59","0","circle","black","3","2","2","16.855172413793102","[10,17,17,17,17,17,17,17,16,16,17,17,17,17,17,17,16,17,17,16,17,17,17,17,17,17,17,17,17,17,16,17,17,17,17,17,16,17,17,17,17,17,17,17,17,17,16,16,16,17,17,17,17,17,17,17,17,17,17,17,17,17,17,17,17,17,17,17,17,17,17,17,17,17,17,17,16,17,17,17,17,17,17,17,17,17,17,17,17,17,17,17,17,16,17,17,17,17,17,17,17,17,17,16,17,17,17,17,17,17,17,17,17,17,17,17,17,17,17,17,17,17,17,17,17,17,17,17,16,17,17,17,17,17,17,17,17,17,16,17,17,17,17,17,17]","145","965","360","false","20","20","black","1","false","1","1","1820","630","d","staircase_color","","","","",""
"","","","","","html-keyboard-response","45","1708502","0.0-5.0-1.0-1.0-0.0-0.1-0.1-0.1-2.12","null","","null","<p style='font-size: 60px; color: green'>正确!</p>","","","","","","","","","","","","","","","","","","","","","","","","","","","","","","","","","","","","","","","","","","","","","","","",""
"","","","","","html-keyboard-response","46","1709519","0.0-5.0-1.0-1.0-0.0-0.1-0.1-0.1-0.13","null","fixation","null","<p style='font-size: 48px; color: white'>+</p >","","","","","","","","","","","","","","","","","","","","","","","","","","","","","","","","","","","","","","","","","","","","","","","",""
"","","","","","rdk","47","1711149","0.0-5.0-1.0-1.0-0.0-0.1-0.1-0.1-1.13","1127","color_test","k","","true","[""d"",""k""]","k","3000","true","1","100","0","0","0","5.7","1","-1","3","550","550","[""hsl(0, 50%, 50%)"",""hsl(225, 50%, 50%)""]","[""hsl(225, 50%, 50%)"",""hsl(0, 50%, 50%)""]","7","0.59","0","circle","black","3","2","2","16.791044776119403","[11,17,17,17,17,17,17,17,16,16,17,17,17,17,17,17,17,17,17,17,17,17,17,17,17,17,17,17,16,17,17,17,17,17,17,17,17,17,17,17,16,17,17,17,16,17,17,17,17,17,16,17,17,17,17,17,17,17,16,17,16,17,17,17,17,17,17]","67","965","360","false","20","20","black","1","false","1","1","1820","630","k","staircase_color","","","","",""
"","","","","","html-keyboard-response","48","1712170","0.0-5.0-1.0-1.0-0.0-0.1-0.1-0.1-2.13","null","","null","<p style='font-size: 60px; color: green'>正确!</p>","","","","","","","","","","","","","","","","","","","","","","","","","","","","","","","","","","","","","","","","","","","","","","","",""
"","","","","","html-keyboard-response","49","1713187","0.0-5.0-1.0-1.0-0.0-0.1-0.1-0.1-0.14","null","fixation","null","<p style='font-size: 48px; color: white'>+</p >","","","","","","","","","","","","","","","","","","","","","","","","","","","","","","","","","","","","","","","","","","","","","","","",""
"","","","","","rdk","50","1715293","0.0-5.0-1.0-1.0-0.0-0.1-0.1-0.1-1.14","1604","color_test","k","","true","[""d"",""k""]","k","3000","true","1","100","0","0","0","5.7","1","-1","3","550","550","[""hsl(0, 50%, 50%)"",""hsl(225, 50%, 50%)""]","[""hsl(225, 50%, 50%)"",""hsl(0, 50%, 50%)""]","7","0.59","0","circle","black","3","2","2","16.875","[10,17,17,17,17,17,17,16,17,17,17,17,17,17,17,17,17,17,17,17,17,17,17,17,17,17,17,17,17,17,17,17,17,17,17,17,17,17,17,17,17,17,17,17,17,17,17,17,16,17,17,17,17,17,16,17,17,17,17,17,17,17,17,17,17,17,17,17,17,17,17,17,17,17,17,17,17,17,17,17,17,16,17,17,17,17,17,17,17,16,17,17,17,17,17,17]","96","965","360","false","20","20","black","1","false","1","1","1820","630","k","staircase_color","","","","",""
"","","","","","html-keyboard-response","51","1716305","0.0-5.0-1.0-1.0-0.0-0.1-0.1-0.1-2.14","null","","null","<p style='font-size: 60px; color: green'>正确!</p>","","","","","","","","","","","","","","","","","","","","","","","","","","","","","","","","","","","","","","","","","","","","","","","",""
"","","","","","html-keyboard-response","52","1717320","0.0-5.0-1.0-1.0-0.0-0.1-0.1-0.1-0.15","null","fixation","null","<p style='font-size: 48px; color: white'>+</p >","","","","","","","","","","","","","","","","","","","","","","","","","","","","","","","","","","","","","","","","","","","","","","","",""
"","","","","","rdk","53","1719741","0.0-5.0-1.0-1.0-0.0-0.1-0.1-0.1-1.15","1919","color_test","d","","true","[""d"",""k""]","d","3000","true","1","100","0","0","0","5.7","1","-1","3","550","550","[""hsl(0, 50%, 50%)"",""hsl(225, 50%, 50%)""]","[""hsl(0, 50%, 50%)"",""hsl(225, 50%, 50%)""]","7","0.59","0","circle","black","3","2","2","16.747826086956522","[12,17,17,17,17,17,17,18,16,17,16,17,17,16,17,16,17,17,17,17,17,17,16,16,17,17,17,17,17,17,16,17,17,16,17,17,16,17,17,17,16,17,17,17,17,17,17,17,17,17,17,17,16,17,16,17,17,17,16,17,17,17,16,17,16,17,17,16,17,17,16,17,17,17,17,17,16,17,17,18,17,17,17,17,17,17,16,17,17,17,16,17,17,17,16,17,17,16,17,16,17,16,16,17,16,17,17,17,17,17,17,17,17,17,17]","115","965","360","false","20","20","black","1","false","1","1","1820","630","d","staircase_color","","","","",""
"","","","","","html-keyboard-response","54","1720770","0.0-5.0-1.0-1.0-0.0-0.1-0.1-0.1-2.15","null","","null","<p style='font-size: 60px; color: green'>正确!</p>","","","","","","","","","","","","","","","","","","","","","","","","","","","","","","","","","","","","","","","","","","","","","","","",""
"","","","","","html-keyboard-response","55","1721774","0.0-5.0-1.0-1.0-0.0-0.1-0.1-0.1-0.16","null","fixation","null","<p style='font-size: 48px; color: white'>+</p >","","","","","","","","","","","","","","","","","","","","","","","","","","","","","","","","","","","","","","","","","","","","","","","",""
"","","","","","rdk","56","1725301","0.0-5.0-1.0-1.0-0.0-0.1-0.1-0.1-1.16","-1","color_test","","","false","[""d"",""k""]","d","3000","true","1","100","0","0","0","5.7","1","-1","3","550","550","[""hsl(0, 50%, 50%)"",""hsl(225, 50%, 50%)""]","[""hsl(0, 50%, 50%)"",""hsl(225, 50%, 50%)""]","7","0.59","0","circle","black","3","2","2","16.93888888888889","[12,17,17,17,17,16,17,17,17,17,17,17,17,17,17,17,17,16,17,16,17,17,17,17,17,17,17,17,17,17,17,17,17,17,17,17,17,17,17,17,17,17,17,17,17,16,17,17,17,17,17,17,17,17,17,17,17,17,17,17,17,17,17,17,17,17,17,17,17,17,17,17,17,17,17,17,17,17,17,17,17,17,17,17,17,17,17,17,17,17,17,17,17,17,17,17,17,17,17,16,17,17,17,17,17,17,17,17,17,17,17,17,17,17,17,17,17,17,17,17,17,17,17,17,17,17,16,17,17,17,17,17,17,17,17,17,17,17,17,17,17,17,17,17,17,17,17,17,17,17,17,17,17,17,17,17,17,17,17,17,17,17,17,17,17,17,17,17,17,17,17,17,17,17,17,17,17,17,17,17]","180","965","360","false","20","20","black","1","false","1","1","1820","630","d","staircase_color","","","","",""
"","","","","","html-keyboard-response","57","1726320","0.0-5.0-1.0-1.0-0.0-0.1-0.1-0.1-2.16","null","","null","<p style='font-size: 60px; color: yellow'>太慢!</p>","","","","","","","","","","","","","","","","","","","","","","","","","","","","","","","","","","","","","","","","","","","","","","","",""
"","","","","","html-keyboard-response","58","1727337","0.0-5.0-1.0-1.0-0.0-0.1-0.1-0.1-0.17","null","fixation","null","<p style='font-size: 48px; color: white'>+</p >","","","","","","","","","","","","","","","","","","","","","","","","","","","","","","","","","","","","","","","","","","","","","","","",""
"","","","","","rdk","59","1730013","0.0-5.0-1.0-1.0-0.0-0.1-0.1-0.1-1.17","2174","color_test","k","","true","[""d"",""k""]","k","3000","true","1","100","0","0","0","5.7","1","-1","3","550","550","[""hsl(0, 50%, 50%)"",""hsl(225, 50%, 50%)""]","[""hsl(225, 50%, 50%)"",""hsl(0, 50%, 50%)""]","7","0.59","0","circle","black","3","2","2","16.869230769230768","[11,17,17,17,17,17,17,17,17,17,17,17,17,17,17,17,17,17,17,17,17,17,17,17,17,17,17,17,17,17,17,17,17,17,17,17,17,17,17,17,17,17,17,17,17,17,17,17,17,17,17,17,17,17,17,17,17,17,16,17,16,17,17,17,17,17,17,17,17,17,17,16,17,17,17,17,17,17,16,17,17,17,17,17,17,17,17,17,16,17,16,17,17,17,17,16,17,17,17,17,17,17,17,17,17,17,17,17,17,17,17,17,17,17,17,17,16,17,17,17,16,17,17,17,16,17,17,16,17,17]","130","965","360","false","20","20","black","1","false","1","1","1820","630","k","staircase_color","","","","",""
"","","","","","html-keyboard-response","60","1731036","0.0-5.0-1.0-1.0-0.0-0.1-0.1-0.1-2.17","null","","null","<p style='font-size: 60px; color: green'>正确!</p>","","","","","","","","","","","","","","","","","","","","","","","","","","","","","","","","","","","","","","","","","","","","","","","",""
"","","","","","html-keyboard-response","61","1732053","0.0-5.0-1.0-1.0-0.0-0.1-0.1-0.1-0.18","null","fixation","null","<p style='font-size: 48px; color: white'>+</p >","","","","","","","","","","","","","","","","","","","","","","","","","","","","","","","","","","","","","","","","","","","","","","","",""
"","","","","","rdk","62","1735309","0.0-5.0-1.0-1.0-0.0-0.1-0.1-0.1-1.18","2738","color_test","k","","true","[""d"",""k""]","k","3000","true","1","100","0","0","0","5.7","1","-1","3","550","550","[""hsl(0, 50%, 50%)"",""hsl(225, 50%, 50%)""]","[""hsl(225, 50%, 50%)"",""hsl(0, 50%, 50%)""]","7","0.59","0","circle","black","3","2","2","16.847560975609756","[12,17,17,17,17,17,17,17,16,17,16,17,17,17,17,17,17,16,17,17,17,17,16,17,17,17,16,17,17,17,17,17,17,17,16,17,17,17,17,17,17,16,17,17,17,17,17,17,17,17,17,17,17,17,16,17,17,17,17,17,17,17,17,17,16,17,17,17,17,17,17,17,17,17,17,17,17,17,16,17,17,17,17,17,17,17,17,17,17,17,17,17,17,17,16,17,17,17,16,17,16,17,17,17,17,17,17,17,17,17,17,17,17,17,17,17,17,17,16,17,17,17,17,17,17,16,17,17,17,17,16,17,17,17,17,16,17,17,16,17,17,16,17,17,17,17,17,17,17,17,17,17,16,17,17,17,17,17,17,17,17,17,17,17]","164","965","360","false","20","20","black","1","false","1","1","1820","630","k","staircase_color","","","","",""
"","","","","","html-keyboard-response","63","1736337","0.0-5.0-1.0-1.0-0.0-0.1-0.1-0.1-2.18","null","","null","<p style='font-size: 60px; color: green'>正确!</p>","","","","","","","","","","","","","","","","","","","","","","","","","","","","","","","","","","","","","","","","","","","","","","","",""
"","","","","","html-keyboard-response","64","1737353","0.0-5.0-1.0-1.0-0.0-0.1-0.1-0.1-0.19","null","fixation","null","<p style='font-size: 48px; color: white'>+</p >","","","","","","","","","","","","","","","","","","","","","","","","","","","","","","","","","","","","","","","","","","","","","","","",""
"","","","","","rdk","65","1739629","0.0-5.0-1.0-1.0-0.0-0.1-0.1-0.1-1.19","1773","color_test","d","","true","[""d"",""k""]","d","3000","true","1","100","0","0","0","5.7","1","-1","3","550","550","[""hsl(0, 50%, 50%)"",""hsl(225, 50%, 50%)""]","[""hsl(0, 50%, 50%)"",""hsl(225, 50%, 50%)""]","7","0.59","0","circle","black","3","2","2","16.82075471698113","[11,17,17,17,17,17,17,17,17,17,17,17,16,17,17,17,17,17,17,16,17,16,17,17,16,17,17,17,16,17,17,17,17,17,16,17,17,17,17,17,16,17,17,17,17,17,17,17,17,17,17,17,17,17,17,17,16,17,17,17,17,16,17,17,16,17,17,17,16,17,17,17,17,17,17,17,17,17,17,17,16,17,17,17,17,17,17,17,17,17,17,17,17,16,17,17,17,17,17,17,17,17,17,17,17,17]","106","965","360","false","20","20","black","1","false","1","1","1820","630","d","staircase_color","","","","",""
"","","","","","html-keyboard-response","66","1740653","0.0-5.0-1.0-1.0-0.0-0.1-0.1-0.1-2.19","null","","null","<p style='font-size: 60px; color: green'>正确!</p>","","","","","","","","","","","","","","","","","","","","","","","","","","","","","","","","","","","","","","","","","","","","","","","",""
"","","","","","html-keyboard-response","67","1741658","0.0-5.0-1.0-1.0-0.0-0.1-0.1-0.1-0.20","null","fixation","null","<p style='font-size: 48px; color: white'>+</p >","","","","","","","","","","","","","","","","","","","","","","","","","","","","","","","","","","","","","","","","","","","","","","","",""
"","","","","","rdk","68","1744061","0.0-5.0-1.0-1.0-0.0-0.1-0.1-0.1-1.20","1900","color_test","k","","true","[""d"",""k""]","k","3000","true","1","100","0","0","0","5.7","1","-1","3","550","550","[""hsl(0, 50%, 50%)"",""hsl(225, 50%, 50%)""]","[""hsl(225, 50%, 50%)"",""hsl(0, 50%, 50%)""]","7","0.59","0","circle","black","3","2","2","16.842105263157894","[7,14,17,16,17,17,17,17,17,16,17,17,16,17,17,17,17,17,17,17,17,17,17,17,17,17,17,17,17,17,17,17,17,17,17,17,17,17,17,17,17,17,17,17,17,17,17,17,17,17,17,17,17,17,17,17,17,17,17,17,17,16,17,17,17,17,17,17,17,17,17,17,17,17,17,17,17,17,17,17,17,17,17,17,17,17,17,17,17,17,17,17,16,17,17,17,17,17,17,17,17,17,17,17,17,17,17,17,17,17,17,17,17,17]","114","965","360","false","20","20","black","1","false","1","1","1820","630","k","staircase_color","","","","",""
"","","","","","html-keyboard-response","69","1745087","0.0-5.0-1.0-1.0-0.0-0.1-0.1-0.1-2.20","null","","null","<p style='font-size: 60px; color: green'>正确!</p>","","","","","","","","","","","","","","","","","","","","","","","","","","","","","","","","","","","","","","","","","","","","","","","",""
"","","","","","html-keyboard-response","70","1746103","0.0-5.0-1.0-1.0-0.0-0.1-0.1-0.1-0.21","null","fixation","null","<p style='font-size: 48px; color: white'>+</p >","","","","","","","","","","","","","","","","","","","","","","","","","","","","","","","","","","","","","","","","","","","","","","","",""
"","","","","","rdk","71","1748701","0.0-5.0-1.0-1.0-0.0-0.1-0.1-0.1-1.21","2096","color_test","d","","true","[""d"",""k""]","d","3000","true","1","100","0","0","0","5.7","1","-1","3","550","550","[""hsl(0, 50%, 50%)"",""hsl(225, 50%, 50%)""]","[""hsl(0, 50%, 50%)"",""hsl(225, 50%, 50%)""]","7","0.59","0","circle","black","3","2","2","16.824","[12,17,17,17,17,17,17,17,16,17,17,17,17,17,17,17,17,17,17,17,17,17,16,17,17,17,17,17,17,17,16,17,17,17,17,17,17,17,17,16,17,17,17,17,17,17,17,17,17,17,17,16,17,17,17,17,16,17,17,17,17,16,17,17,16,17,17,17,17,17,17,17,17,17,17,17,17,17,16,17,16,17,16,17,17,17,17,17,17,17,17,17,17,17,17,17,17,17,17,17,17,16,17,17,16,17,17,16,17,17,17,17,17,17,17,17,16,17,17,17,16,17,16,17,17]","125","965","360","false","20","20","black","1","false","1","1","1820","630","d","staircase_color","","","","",""
"","","","","","html-keyboard-response","72","1749720","0.0-5.0-1.0-1.0-0.0-0.1-0.1-0.1-2.21","null","","null","<p style='font-size: 60px; color: green'>正确!</p>","","","","","","","","","","","","","","","","","","","","","","","","","","","","","","","","","","","","","","","","","","","","","","","",""
"","","","","","html-keyboard-response","73","1750737","0.0-5.0-1.0-1.0-0.0-0.1-0.1-0.1-0.22","null","fixation","null","<p style='font-size: 48px; color: white'>+</p >","","","","","","","","","","","","","","","","","","","","","","","","","","","","","","","","","","","","","","","","","","","","","","","",""
"","","","","","rdk","74","1753613","0.0-5.0-1.0-1.0-0.0-0.1-0.1-0.1-1.22","2361","color_test","d","","true","[""d"",""k""]","d","3000","true","1","100","0","0","0","5.7","1","-1","3","550","550","[""hsl(0, 50%, 50%)"",""hsl(225, 50%, 50%)""]","[""hsl(0, 50%, 50%)"",""hsl(225, 50%, 50%)""]","7","0.59","0","circle","black","3","2","2","16.879432624113477","[16,17,16,16,16,17,16,17,17,17,17,17,17,17,17,17,17,17,17,17,17,17,16,17,17,17,17,17,17,17,17,17,17,17,17,17,17,17,17,17,16,17,17,17,16,17,17,17,17,17,17,17,17,17,16,17,17,17,17,17,16,17,17,17,17,16,17,17,17,17,16,17,17,17,17,17,17,17,17,17,17,17,17,17,17,17,17,17,16,17,17,17,17,17,17,16,16,17,17,17,18,16,17,17,17,17,17,17,17,17,17,17,17,17,17,17,17,17,17,17,17,17,17,17,16,17,17,17,17,17,16,17,17,17,17,17,17,17,17,17,17]","141","965","360","false","20","20","black","1","false","1","1","1820","630","d","staircase_color","","","","",""
"","","","","","html-keyboard-response","75","1754622","0.0-5.0-1.0-1.0-0.0-0.1-0.1-0.1-2.22","null","","null","<p style='font-size: 60px; color: green'>正确!</p>","","","","","","","","","","","","","","","","","","","","","","","","","","","","","","","","","","","","","","","","","","","","","","","",""
"","","","","","html-keyboard-response","76","1755638","0.0-5.0-1.0-1.0-0.0-0.1-0.1-0.1-0.23","null","fixation","null","<p style='font-size: 48px; color: white'>+</p >","","","","","","","","","","","","","","","","","","","","","","","","","","","","","","","","","","","","","","","","","","","","","","","",""
"","","","","","rdk","77","1757229","0.0-5.0-1.0-1.0-0.0-0.1-0.1-0.1-1.23","1074","color_test","k","","true","[""d"",""k""]","k","3000","true","1","100","0","0","0","5.7","1","-1","3","550","550","[""hsl(0, 50%, 50%)"",""hsl(225, 50%, 50%)""]","[""hsl(225, 50%, 50%)"",""hsl(0, 50%, 50%)""]","7","0.59","0","circle","black","3","2","2","16.859375","[13,17,17,17,16,17,17,17,17,17,17,17,17,17,17,16,17,17,17,17,17,17,17,17,17,16,17,16,17,17,17,17,17,17,17,17,16,17,17,17,17,17,17,17,17,17,17,17,17,17,17,17,17,17,17,17,17,17,17,17,17,17,17,17]","64","965","360","false","20","20","black","1","false","1","1","1820","630","k","staircase_color","","","","",""
"","","","","","html-keyboard-response","78","1758253","0.0-5.0-1.0-1.0-0.0-0.1-0.1-0.1-2.23","null","","null","<p style='font-size: 60px; color: green'>正确!</p>","","","","","","","","","","","","","","","","","","","","","","","","","","","","","","","","","","","","","","","","","","","","","","","",""
"","","","","","html-keyboard-response","79","1760762","0.0-5.0-1.0-1.0-0.0-0.1-0.1-1.1","null","","null","<p style='font-size: 35px; color: white'>您的正确率为： 92% 。平均反应时为：1765毫秒。</p>","","","","","","","","","","","","","","","","","","","","","","","","","","","","","","","","","","","","","","","","","","","","","","","",""
"","","","","","html-keyboard-response","80","1761787","0.0-5.0-1.0-1.0-0.0-1.0-0.0-0.0-0.0","null","fixation","null","<p style='font-size: 48px; color: white'>+</p >","","","","","","","","","","","","","","","","","","","","","","","","","","","","","","","","","","","","","","","","","","","","","","","",""
"","","","","","rdk","81","1764877","0.0-5.0-1.0-1.0-0.0-1.0-0.0-0.0-1.0","2587","color_test","d","","false","[""d"",""k""]","k","3000","true","1","100","0","0","0","5.7","1","-1","3","550","550","[""hsl(0, 50%, 50%)"",""hsl(225, 50%, 50%)""]","[""hsl(225, 50%, 50%)"",""hsl(0, 50%, 50%)""]","7","0.59","0","circle","black","3","2","2","16.883870967741935","[11,17,17,17,17,17,17,16,17,17,17,17,17,17,17,17,17,16,17,17,17,17,16,16,17,17,17,17,17,16,17,16,17,17,17,16,17,17,17,17,17,17,17,17,17,16,17,17,17,17,17,17,17,16,17,17,17,17,17,16,17,17,17,17,17,17,17,17,17,17,17,17,17,17,17,17,17,17,17,17,17,17,17,17,17,17,17,17,16,17,16,17,17,17,17,17,17,17,17,17,17,17,17,17,17,17,17,17,17,17,17,17,17,17,17,17,17,17,17,17,17,17,17,17,17,17,17,17,17,17,17,17,17,17,17,17,17,17,17,17,17,17,17,17,17,17,17,17,17,17,17,17,17,17,17]","155","965","360","false","20","20","black","1","false","1","1","1820","630","k","staircase_color","","","","",""
"","","","","","html-keyboard-response","82","1765904","0.0-5.0-1.0-1.0-0.0-1.0-0.0-0.0-2.0","null","","null","<p style='font-size: 60px; color: red'>错误!</p>","","","","","","","","","","","","","","","","","","","","","","","","","","","","","","","","","","","","","","","","","","","","","","","",""
"","","","","","html-keyboard-response","83","1766921","0.0-5.0-1.0-1.0-0.0-1.0-0.0-0.0-0.1","null","fixation","null","<p style='font-size: 48px; color: white'>+</p >","","","","","","","","","","","","","","","","","","","","","","","","","","","","","","","","","","","","","","","","","","","","","","","",""
"","","","","","rdk","84","1769486","0.0-5.0-1.0-1.0-0.0-1.0-0.0-0.0-1.1","2047","color_test","k","","true","[""d"",""k""]","k","3000","true","1","100","0","0","0","5.7","1","-1","3","550","550","[""hsl(0, 50%, 50%)"",""hsl(225, 50%, 50%)""]","[""hsl(225, 50%, 50%)"",""hsl(0, 50%, 50%)""]","7","0.59","0","circle","black","3","2","2","16.69918699186992","[11,16,17,17,17,17,17,18,16,17,16,17,17,17,17,16,17,16,18,16,17,16,17,17,16,17,17,17,16,17,17,17,17,16,17,17,17,17,17,16,17,17,17,17,17,17,16,16,17,17,17,16,17,17,17,16,17,17,17,16,17,17,17,17,17,16,17,17,17,17,17,16,16,17,17,17,17,17,17,16,17,16,17,17,17,17,17,16,17,17,17,16,17,17,17,16,17,17,17,16,17,16,17,17,17,16,17,16,17,17,17,16,17,17,17,16,16,17,17,17,16,17,16]","123","965","360","false","20","20","black","1","false","1","1","1820","630","k","staircase_color","","","","",""
"","","","","","html-keyboard-response","85","1770503","0.0-5.0-1.0-1.0-0.0-1.0-0.0-0.0-2.1","null","","null","<p style='font-size: 60px; color: green'>正确!</p>","","","","","","","","","","","","","","","","","","","","","","","","","","","","","","","","","","","","","","","","","","","","","","","",""
"","","","","","html-keyboard-response","86","1771508","0.0-5.0-1.0-1.0-0.0-1.0-0.0-0.0-0.2","null","fixation","null","<p style='font-size: 48px; color: white'>+</p >","","","","","","","","","","","","","","","","","","","","","","","","","","","","","","","","","","","","","","","","","","","","","","","",""
"","","","","","rdk","87","1773837","0.0-5.0-1.0-1.0-0.0-1.0-0.0-0.0-1.2","1825","color_test","d","","true","[""d"",""k""]","d","3000","true","1","100","0","0","0","5.7","1","-1","3","550","550","[""hsl(0, 50%, 50%)"",""hsl(225, 50%, 50%)""]","[""hsl(0, 50%, 50%)"",""hsl(225, 50%, 50%)""]","7","0.59","0","circle","black","3","2","2","16.672727272727272","[5,16,17,17,17,16,18,17,16,16,17,17,17,17,17,17,17,17,17,17,17,17,17,17,17,17,17,17,17,17,17,17,17,17,17,17,17,17,17,17,17,16,18,16,17,17,18,16,17,17,16,17,17,16,17,16,16,17,17,17,18,16,17,17,16,17,16,17,17,17,17,16,17,16,17,16,17,17,17,16,17,17,16,17,17,16,17,16,17,17,17,17,17,16,17,17,16,16,17,17,16,17,16,17,17,16,17,16,17,17]","110","965","360","false","20","20","black","1","false","1","1","1820","630","d","staircase_color","","","","",""
"","","","","","html-keyboard-response","88","1774853","0.0-5.0-1.0-1.0-0.0-1.0-0.0-0.0-2.2","null","","null","<p style='font-size: 60px; color: green'>正确!</p>","","","","","","","","","","","","","","","","","","","","","","","","","","","","","","","","","","","","","","","","","","","","","","","",""
"","","","","","html-keyboard-response","89","1775870","0.0-5.0-1.0-1.0-0.0-1.0-0.0-0.0-0.3","null","fixation","null","<p style='font-size: 48px; color: white'>+</p >","","","","","","","","","","","","","","","","","","","","","","","","","","","","","","","","","","","","","","","","","","","","","","","",""
"","","","","","rdk","90","1778765","0.0-5.0-1.0-1.0-0.0-1.0-0.0-0.0-1.3","2392","color_test","k","","false","[""d"",""k""]","d","3000","true","1","100","0","0","0","5.7","1","-1","3","550","550","[""hsl(0, 50%, 50%)"",""hsl(225, 50%, 50%)""]","[""hsl(0, 50%, 50%)"",""hsl(225, 50%, 50%)""]","7","0.59","0","circle","black","3","2","2","16.83916083916084","[11,17,17,17,17,17,17,16,17,17,17,17,17,17,16,17,17,17,17,17,17,17,17,17,17,17,16,17,17,16,17,17,17,17,17,17,17,17,17,17,17,17,17,17,17,17,16,17,17,16,17,17,17,17,17,17,17,17,17,17,16,16,17,17,17,17,17,17,17,17,17,17,17,16,17,17,17,17,17,17,17,17,17,17,17,17,17,17,16,17,17,17,17,17,17,17,16,17,17,17,17,17,17,17,17,17,17,17,17,16,17,17,17,17,16,17,17,17,17,17,17,16,17,17,17,17,17,17,17,16,17,16,17,17,17,17,16,17,17,17,17,17,17]","143","965","360","false","20","20","black","1","false","1","1","1820","630","d","staircase_color","","","","",""
"","","","","","html-keyboard-response","91","1779786","0.0-5.0-1.0-1.0-0.0-1.0-0.0-0.0-2.3","null","","null","<p style='font-size: 60px; color: red'>错误!</p>","","","","","","","","","","","","","","","","","","","","","","","","","","","","","","","","","","","","","","","","","","","","","","","",""
"","","","","","html-keyboard-response","92","1780803","0.0-5.0-1.0-1.0-0.0-1.0-0.0-0.0-0.4","null","fixation","null","<p style='font-size: 48px; color: white'>+</p >","","","","","","","","","","","","","","","","","","","","","","","","","","","","","","","","","","","","","","","","","","","","","","","",""
"","","","","","rdk","93","1783886","0.0-5.0-1.0-1.0-0.0-1.0-0.0-0.0-1.4","2580","color_test","d","","false","[""d"",""k""]","k","3000","true","1","100","0","0","0","5.7","1","-1","3","550","550","[""hsl(0, 50%, 50%)"",""hsl(225, 50%, 50%)""]","[""hsl(225, 50%, 50%)"",""hsl(0, 50%, 50%)""]","7","0.59","0","circle","black","3","2","2","16.84516129032258","[10,17,17,17,17,17,17,16,17,17,17,17,17,17,16,17,17,17,17,17,17,17,17,17,17,17,17,17,17,17,17,17,17,17,17,17,17,17,17,17,17,17,16,17,17,17,17,17,17,17,17,17,17,17,17,17,17,17,17,17,17,17,16,17,17,17,17,17,17,17,17,17,16,17,17,16,17,17,17,16,17,17,17,17,16,17,17,17,17,17,17,17,17,17,17,17,17,17,17,17,16,17,17,17,17,17,17,17,16,17,17,17,16,17,16,17,17,17,17,17,16,17,17,17,17,17,17,17,16,17,17,17,17,17,17,17,17,17,17,17,17,17,16,17,17,17,17,17,17,16,17,17,16,17,17]","155","965","360","false","20","20","black","1","false","1","1","1820","630","k","staircase_color","","","","",""
"","","","","","html-keyboard-response","94","1784902","0.0-5.0-1.0-1.0-0.0-1.0-0.0-0.0-2.4","null","","null","<p style='font-size: 60px; color: red'>错误!</p>","","","","","","","","","","","","","","","","","","","","","","","","","","","","","","","","","","","","","","","","","","","","","","","",""
"","","","","","html-keyboard-response","95","1785908","0.0-5.0-1.0-1.0-0.0-1.0-0.0-0.0-0.5","null","fixation","null","<p style='font-size: 48px; color: white'>+</p >","","","","","","","","","","","","","","","","","","","","","","","","","","","","","","","","","","","","","","","","","","","","","","","",""
"","","","","","rdk","96","1789421","0.0-5.0-1.0-1.0-0.0-1.0-0.0-0.0-1.5","3000","color_test","k","","true","[""d"",""k""]","k","3000","true","1","100","0","0","0","5.7","1","-1","3","550","550","[""hsl(0, 50%, 50%)"",""hsl(225, 50%, 50%)""]","[""hsl(225, 50%, 50%)"",""hsl(0, 50%, 50%)""]","7","0.59","0","circle","black","3","2","2","16.883333333333333","[12,17,17,17,17,16,17,17,17,17,17,17,16,17,17,17,17,17,17,17,17,17,17,17,17,17,17,17,17,17,17,17,17,17,17,17,17,17,17,17,17,17,17,17,17,17,17,17,16,16,17,17,17,17,17,17,17,17,17,17,16,17,17,17,17,17,17,17,17,17,17,17,17,17,17,17,17,17,17,17,17,17,17,17,17,17,17,17,17,17,17,17,17,17,17,16,17,17,17,17,17,17,17,17,17,17,17,17,17,17,17,17,17,17,17,17,17,17,17,17,17,17,17,16,17,17,17,17,17,17,16,17,17,17,17,17,16,17,17,17,16,17,17,16,16,17,17,17,17,17,17,17,17,16,17,17,17,17,17,17,17,16,17,17,17,16,16,17,17,17,17,17,17,17,17,17,17,17,17,17]","180","965","360","false","20","20","black","1","false","1","1","1820","630","k","staircase_color","","","","",""
"","","","","","html-keyboard-response","97","1790437","0.0-5.0-1.0-1.0-0.0-1.0-0.0-0.0-2.5","null","","null","<p style='font-size: 60px; color: green'>正确!</p>","","","","","","","","","","","","","","","","","","","","","","","","","","","","","","","","","","","","","","","","","","","","","","","",""
"","","","","","html-keyboard-response","98","1791453","0.0-5.0-1.0-1.0-0.0-1.0-0.0-0.0-0.6","null","fixation","null","<p style='font-size: 48px; color: white'>+</p >","","","","","","","","","","","","","","","","","","","","","","","","","","","","","","","","","","","","","","","","","","","","","","","",""
"","","","","","rdk","99","1793871","0.0-5.0-1.0-1.0-0.0-1.0-0.0-0.0-1.6","1915","color_test","d","","true","[""d"",""k""]","d","3000","true","1","100","0","0","0","5.7","1","-1","3","550","550","[""hsl(0, 50%, 50%)"",""hsl(225, 50%, 50%)""]","[""hsl(0, 50%, 50%)"",""hsl(225, 50%, 50%)""]","7","0.59","0","circle","black","3","2","2","16.721739130434784","[10,17,17,17,17,17,17,17,17,17,17,17,16,17,16,17,17,17,17,16,17,16,17,17,17,17,17,17,15,16,17,17,17,17,17,17,17,17,17,17,16,17,17,17,17,17,17,17,17,17,16,17,17,17,17,17,16,17,17,17,15,17,17,18,16,18,16,17,16,17,16,17,16,17,16,17,17,17,16,17,17,17,16,17,16,17,17,17,17,16,16,17,17,17,17,18,16,17,17,17,17,16,17,16,17,17,16,17,17,16,17,17,17,17,17]","115","965","360","false","20","20","black","1","false","1","1","1820","630","d","staircase_color","","","","",""
"","","","","","html-keyboard-response","100","1794886","0.0-5.0-1.0-1.0-0.0-1.0-0.0-0.0-2.6","null","","null","<p style='font-size: 60px; color: green'>正确!</p>","","","","","","","","","","","","","","","","","","","","","","","","","","","","","","","","","","","","","","","","","","","","","","","",""
"","","","","","html-keyboard-response","101","1795903","0.0-5.0-1.0-1.0-0.0-1.0-0.0-0.0-0.7","null","fixation","null","<p style='font-size: 48px; color: white'>+</p >","","","","","","","","","","","","","","","","","","","","","","","","","","","","","","","","","","","","","","","","","","","","","","","",""
"","","","","","rdk","102","1799133","0.0-5.0-1.0-1.0-0.0-1.0-0.0-0.0-1.7","2727","color_test","k","","false","[""d"",""k""]","d","3000","true","1","100","0","0","0","5.7","1","-1","3","550","550","[""hsl(0, 50%, 50%)"",""hsl(225, 50%, 50%)""]","[""hsl(0, 50%, 50%)"",""hsl(225, 50%, 50%)""]","7","0.59","0","circle","black","3","2","2","16.88957055214724","[12,17,17,16,17,17,17,17,17,17,17,17,17,16,17,17,17,17,17,17,17,17,17,17,17,17,17,17,17,17,17,17,17,17,17,17,17,17,17,17,17,17,16,17,17,17,17,17,17,17,17,17,17,17,16,17,17,17,17,17,17,17,17,17,16,17,17,17,17,17,17,17,17,17,17,17,17,17,17,17,17,17,17,17,17,17,17,17,17,17,17,17,17,17,17,16,17,17,16,17,17,17,17,17,17,17,17,16,17,17,17,17,17,17,17,17,17,16,17,16,17,17,17,16,17,17,17,17,17,17,17,17,17,17,17,17,17,17,17,17,17,17,17,17,17,17,17,17,17,16,17,17,17,17,16,17,17,17,17,17,17,17,17]","163","965","360","false","20","20","black","1","false","1","1","1820","630","d","staircase_color","","","","",""
"","","","","","html-keyboard-response","103","1800153","0.0-5.0-1.0-1.0-0.0-1.0-0.0-0.0-2.7","null","","null","<p style='font-size: 60px; color: red'>错误!</p>","","","","","","","","","","","","","","","","","","","","","","","","","","","","","","","","","","","","","","","","","","","","","","","",""
"","","","","","html-keyboard-response","104","1801158","0.0-5.0-1.0-1.0-0.0-1.0-0.0-0.0-0.8","null","fixation","null","<p style='font-size: 48px; color: white'>+</p >","","","","","","","","","","","","","","","","","","","","","","","","","","","","","","","","","","","","","","","","","","","","","","","",""
"","","","","","rdk","105","1803453","0.0-5.0-1.0-1.0-0.0-1.0-0.0-0.0-1.8","1782","color_test","d","","true","[""d"",""k""]","d","3000","true","1","100","0","0","0","5.7","1","-1","3","550","550","[""hsl(0, 50%, 50%)"",""hsl(225, 50%, 50%)""]","[""hsl(0, 50%, 50%)"",""hsl(225, 50%, 50%)""]","7","0.59","0","circle","black","3","2","2","16.850467289719628","[12,17,17,17,17,17,17,17,17,16,17,17,17,17,17,17,17,17,16,17,17,16,17,17,17,17,17,17,17,16,17,17,17,17,17,17,17,17,17,17,17,17,17,17,17,17,17,17,16,17,17,17,17,17,17,17,17,16,17,17,17,17,17,16,17,17,17,16,17,17,17,17,17,17,17,17,17,17,16,17,17,17,17,17,17,17,17,17,17,17,17,17,17,17,17,17,17,17,16,17,17,16,17,17,17,17,17]","107","965","360","false","20","20","black","1","false","1","1","1820","630","d","staircase_color","","","","",""
"","","","","","html-keyboard-response","106","1804470","0.0-5.0-1.0-1.0-0.0-1.0-0.0-0.0-2.8","null","","null","<p style='font-size: 60px; color: green'>正确!</p>","","","","","","","","","","","","","","","","","","","","","","","","","","","","","","","","","","","","","","","","","","","","","","","",""
"","","","","","html-keyboard-response","107","1805487","0.0-5.0-1.0-1.0-0.0-1.0-0.0-0.0-0.9","null","fixation","null","<p style='font-size: 48px; color: white'>+</p >","","","","","","","","","","","","","","","","","","","","","","","","","","","","","","","","","","","","","","","","","","","","","","","",""
"","","","","","rdk","108","1809018","0.0-5.0-1.0-1.0-0.0-1.0-0.0-0.0-1.9","-1","color_test","","","false","[""d"",""k""]","k","3000","true","1","100","0","0","0","5.7","1","-1","3","550","550","[""hsl(0, 50%, 50%)"",""hsl(225, 50%, 50%)""]","[""hsl(225, 50%, 50%)"",""hsl(0, 50%, 50%)""]","7","0.59","0","circle","black","3","2","2","16.894444444444446","[14,17,17,17,17,17,17,17,17,17,17,17,17,17,17,17,17,17,17,17,17,17,17,17,17,17,17,17,17,17,17,17,17,16,17,17,17,16,16,18,16,17,17,17,17,17,17,17,17,17,17,17,17,17,16,17,17,17,17,17,16,17,17,17,17,17,17,17,17,17,17,17,17,17,17,17,17,17,17,17,17,17,17,17,17,17,17,17,17,17,17,17,17,17,16,17,17,17,17,16,17,17,17,17,17,17,16,17,17,17,17,17,17,17,17,17,17,17,17,17,17,17,17,17,17,16,16,17,17,17,18,17,17,17,16,17,16,17,17,17,16,16,17,17,17,17,17,17,16,17,17,17,17,17,17,17,17,17,17,16,17,17,17,17,17,17,17,17,17,17,17,17,17,17,16,17,17,17,17,17]","180","965","360","false","20","20","black","1","false","1","1","1820","630","k","staircase_color","","","","",""
"","","","","","html-keyboard-response","109","1810036","0.0-5.0-1.0-1.0-0.0-1.0-0.0-0.0-2.9","null","","null","<p style='font-size: 60px; color: yellow'>太慢!</p>","","","","","","","","","","","","","","","","","","","","","","","","","","","","","","","","","","","","","","","","","","","","","","","",""
"","","","","","html-keyboard-response","110","1811038","0.0-5.0-1.0-1.0-0.0-1.0-0.0-0.0-0.10","null","fixation","null","<p style='font-size: 48px; color: white'>+</p >","","","","","","","","","","","","","","","","","","","","","","","","","","","","","","","","","","","","","","","","","","","","","","","",""
"","","","","","rdk","111","1813070","0.0-5.0-1.0-1.0-0.0-1.0-0.0-0.0-1.10","1515","color_test","d","","true","[""d"",""k""]","d","3000","true","1","100","0","0","0","5.7","1","-1","3","550","550","[""hsl(0, 50%, 50%)"",""hsl(225, 50%, 50%)""]","[""hsl(0, 50%, 50%)"",""hsl(225, 50%, 50%)""]","7","0.59","0","circle","black","3","2","2","16.86813186813187","[12,17,17,17,17,17,17,17,17,17,16,17,17,17,17,17,17,17,17,17,17,16,17,17,17,17,16,17,17,17,17,17,17,16,17,17,17,17,17,17,17,17,16,16,16,17,17,17,16,17,17,17,17,17,17,17,17,17,17,17,17,17,17,17,17,17,17,17,17,17,17,17,17,17,17,17,17,17,17,17,17,17,17,17,17,17,17,17,17,17,18]","91","965","360","false","20","20","black","1","false","1","1","1820","630","d","staircase_color","","","","",""
"","","","","","html-keyboard-response","112","1814087","0.0-5.0-1.0-1.0-0.0-1.0-0.0-0.0-2.10","null","","null","<p style='font-size: 60px; color: green'>正确!</p>","","","","","","","","","","","","","","","","","","","","","","","","","","","","","","","","","","","","","","","","","","","","","","","",""
"","","","","","html-keyboard-response","113","1815088","0.0-5.0-1.0-1.0-0.0-1.0-0.0-0.0-0.11","null","fixation","null","<p style='font-size: 48px; color: white'>+</p >","","","","","","","","","","","","","","","","","","","","","","","","","","","","","","","","","","","","","","","","","","","","","","","",""
"","","","","","rdk","114","1817404","0.0-5.0-1.0-1.0-0.0-1.0-0.0-0.0-1.11","1799","color_test","k","","true","[""d"",""k""]","k","3000","true","1","100","0","0","0","5.7","1","-1","3","550","550","[""hsl(0, 50%, 50%)"",""hsl(225, 50%, 50%)""]","[""hsl(225, 50%, 50%)"",""hsl(0, 50%, 50%)""]","7","0.59","0","circle","black","3","2","2","16.712962962962962","[12,17,17,16,17,17,18,16,17,16,17,17,17,17,17,17,16,17,17,17,17,16,17,17,17,17,17,17,17,17,17,17,16,17,17,17,16,17,17,17,17,17,17,17,17,16,17,16,16,17,17,16,15,17,17,17,17,17,18,17,16,16,18,16,17,17,17,17,17,17,17,16,17,17,16,16,17,17,16,17,16,17,16,17,17,16,17,17,16,17,17,17,16,17,16,17,17,16,17,15,17,17,17,17,17,17,17,17]","108","965","360","false","20","20","black","1","false","1","1","1820","630","k","staircase_color","","","","",""
"","","","","","html-keyboard-response","115","1818420","0.0-5.0-1.0-1.0-0.0-1.0-0.0-0.0-2.11","null","","null","<p style='font-size: 60px; color: green'>正确!</p>","","","","","","","","","","","","","","","","","","","","","","","","","","","","","","","","","","","","","","","","","","","","","","","",""
"","","","","","html-keyboard-response","116","1820942","0.0-5.0-1.0-1.0-0.0-1.0-0.0-1.0","null","","null","<p style='font-size: 35px; color: white'>您的正确率为： 58% 。平均反应时为：2014毫秒。</p>","","","","","","","","","","","","","","","","","","","","","","","","","","","","","","","","","","","","","","","","","","","","","","","",""
"","","","","","html-keyboard-response","117","1821958","0.0-5.0-1.0-1.0-0.0-1.1-0.1-0.1-0.12","null","fixation","null","<p style='font-size: 48px; color: white'>+</p >","","","","","","","","","","","","","","","","","","","","","","","","","","","","","","","","","","","","","","","","","","","","","","","",""
"","","","","","rdk","118","1824333","0.0-5.0-1.0-1.0-0.0-1.1-0.1-0.1-1.12","1860","color_test","k","","true","[""d"",""k""]","k","3000","true","1","100","0","0","0","5.7","1","-1","3","550","550","[""hsl(0, 50%, 50%)"",""hsl(225, 50%, 50%)""]","[""hsl(225, 50%, 50%)"",""hsl(0, 50%, 50%)""]","7","0.54","0","circle","black","3","2","2","16.81081081081081","[11,17,17,17,17,17,17,16,17,17,17,17,17,17,17,17,17,17,17,17,16,17,17,16,17,17,17,17,17,17,17,17,17,17,17,17,17,17,17,17,17,17,17,17,17,16,17,17,17,17,17,17,17,17,17,17,16,17,17,17,17,17,17,17,16,17,17,17,17,17,16,17,17,17,17,17,17,17,17,17,17,17,17,16,17,17,16,17,16,17,17,17,17,17,17,16,17,16,16,17,17,17,17,17,16,17,16,17,17,17,17]","111","965","360","false","20","20","black","1","false","1","1","1820","630","k","staircase_color","","","","",""
"","","","","","html-keyboard-response","119","1825353","0.0-5.0-1.0-1.0-0.0-1.1-0.1-0.1-2.12","null","","null","<p style='font-size: 60px; color: green'>正确!</p>","","","","","","","","","","","","","","","","","","","","","","","","","","","","","","","","","","","","","","","","","","","","","","","",""
"","","","","","html-keyboard-response","120","1826370","0.0-5.0-1.0-1.0-0.0-1.1-0.1-0.1-0.13","null","fixation","null","<p style='font-size: 48px; color: white'>+</p >","","","","","","","","","","","","","","","","","","","","","","","","","","","","","","","","","","","","","","","","","","","","","","","",""
"","","","","","rdk","121","1828029","0.0-5.0-1.0-1.0-0.0-1.1-0.1-0.1-1.13","1156","color_test","d","","true","[""d"",""k""]","d","3000","true","1","100","0","0","0","5.7","1","-1","3","550","550","[""hsl(0, 50%, 50%)"",""hsl(225, 50%, 50%)""]","[""hsl(0, 50%, 50%)"",""hsl(225, 50%, 50%)""]","7","0.54","0","circle","black","3","2","2","16.855072463768117","[10,17,17,17,17,17,17,17,17,17,17,17,17,17,17,17,17,17,17,17,17,17,17,17,17,17,17,17,17,17,17,17,17,17,17,17,16,17,17,17,17,17,17,17,17,17,17,17,17,17,17,17,17,17,17,17,17,17,17,17,17,17,16,17,17,17,17,16,17]","69","965","360","false","20","20","black","1","false","1","1","1820","630","d","staircase_color","","","","",""
"","","","","","html-keyboard-response","122","1829038","0.0-5.0-1.0-1.0-0.0-1.1-0.1-0.1-2.13","null","","null","<p style='font-size: 60px; color: green'>正确!</p>","","","","","","","","","","","","","","","","","","","","","","","","","","","","","","","","","","","","","","","","","","","","","","","",""
"","","","","","html-keyboard-response","123","1830066","0.0-5.0-1.0-1.0-0.0-1.1-0.1-0.1-0.14","null","fixation","null","<p style='font-size: 48px; color: white'>+</p >","","","","","","","","","","","","","","","","","","","","","","","","","","","","","","","","","","","","","","","","","","","","","","","",""
"","","","","","rdk","124","1833005","0.0-5.0-1.0-1.0-0.0-1.1-0.1-0.1-1.14","2432","color_test","k","","true","[""d"",""k""]","k","3000","true","1","100","0","0","0","5.7","1","-1","3","550","550","[""hsl(0, 50%, 50%)"",""hsl(225, 50%, 50%)""]","[""hsl(225, 50%, 50%)"",""hsl(0, 50%, 50%)""]","7","0.54","0","circle","black","3","2","2","16.89041095890411","[11,17,17,17,17,17,17,17,17,17,17,17,17,17,17,17,17,17,17,17,17,17,17,17,17,17,17,17,17,17,17,16,17,17,16,17,17,17,17,17,16,17,17,17,16,16,17,17,17,17,17,17,17,17,17,17,17,17,17,17,17,17,17,17,17,17,17,17,17,17,17,17,17,17,17,17,17,17,17,17,17,17,17,17,17,17,17,17,17,17,17,17,17,17,17,17,17,17,17,17,17,17,16,17,17,17,17,17,17,17,17,16,17,17,17,17,17,17,16,16,17,17,17,17,17,17,17,17,17,17,17,16,17,17,17,17,17,17,17,17,17,17,17,17,17,17]","146","965","360","false","20","20","black","1","false","1","1","1820","630","k","staircase_color","","","","",""
"","","","","","html-keyboard-response","125","1834020","0.0-5.0-1.0-1.0-0.0-1.1-0.1-0.1-2.14","null","","null","<p style='font-size: 60px; color: green'>正确!</p>","","","","","","","","","","","","","","","","","","","","","","","","","","","","","","","","","","","","","","","","","","","","","","","",""
"","","","","","html-keyboard-response","126","1835037","0.0-5.0-1.0-1.0-0.0-1.1-0.1-0.1-0.15","null","fixation","null","<p style='font-size: 48px; color: white'>+</p >","","","","","","","","","","","","","","","","","","","","","","","","","","","","","","","","","","","","","","","","","","","","","","","",""
"","","","","","rdk","127","1838156","0.0-5.0-1.0-1.0-0.0-1.1-0.1-0.1-1.15","2605","color_test","d","","true","[""d"",""k""]","d","3000","true","1","100","0","0","0","5.7","1","-1","3","550","550","[""hsl(0, 50%, 50%)"",""hsl(225, 50%, 50%)""]","[""hsl(0, 50%, 50%)"",""hsl(225, 50%, 50%)""]","7","0.54","0","circle","black","3","2","2","16.91025641025641","[15,17,17,17,16,17,17,17,17,17,17,17,17,17,17,17,16,17,17,17,17,17,17,17,17,17,17,17,17,17,17,17,17,17,17,17,17,17,17,17,17,17,17,17,17,17,17,17,17,17,17,17,17,17,17,17,17,17,17,17,16,17,17,17,16,16,17,17,17,17,17,17,17,17,17,17,17,17,16,17,17,17,17,17,17,17,17,17,17,17,17,17,17,17,17,17,17,17,17,17,17,17,16,17,17,17,17,17,17,17,16,17,17,17,17,16,17,17,17,17,17,17,17,17,17,16,17,17,17,17,17,17,17,17,16,17,17,17,17,17,17,17,17,17,17,17,17,17,17,16,17,17,17,17,17,17]","156","965","360","false","20","20","black","1","false","1","1","1820","630","d","staircase_color","","","","",""
"","","","","","html-keyboard-response","128","1839171","0.0-5.0-1.0-1.0-0.0-1.1-0.1-0.1-2.15","null","","null","<p style='font-size: 60px; color: green'>正确!</p>","","","","","","","","","","","","","","","","","","","","","","","","","","","","","","","","","","","","","","","","","","","","","","","",""
"","","","","","html-keyboard-response","129","1840188","0.0-5.0-1.0-1.0-0.0-1.1-0.1-0.1-0.16","null","fixation","null","<p style='font-size: 48px; color: white'>+</p >","","","","","","","","","","","","","","","","","","","","","","","","","","","","","","","","","","","","","","","","","","","","","","","",""
"","","","","","rdk","130","1842925","0.0-5.0-1.0-1.0-0.0-1.1-0.1-0.1-1.16","2227","color_test","d","","true","[""d"",""k""]","d","3000","true","1","100","0","0","0","5.7","1","-1","3","550","550","[""hsl(0, 50%, 50%)"",""hsl(225, 50%, 50%)""]","[""hsl(0, 50%, 50%)"",""hsl(225, 50%, 50%)""]","7","0.54","0","circle","black","3","2","2","16.76865671641791","[6,13,17,17,17,17,17,17,17,17,17,16,17,17,16,18,16,16,17,17,17,17,17,17,17,17,17,17,17,17,17,17,17,17,17,17,17,16,16,17,17,18,16,17,17,17,17,16,17,17,17,16,17,17,17,16,17,17,17,17,17,17,16,17,17,16,17,17,17,17,17,17,17,17,17,17,17,17,17,17,17,17,17,17,17,17,17,17,17,17,17,17,17,17,17,17,17,17,17,17,17,17,17,17,16,17,17,17,17,17,16,17,17,17,17,17,17,17,16,17,16,17,16,17,16,17,17,17,18,16,17,17,17,17]","134","965","360","false","20","20","black","1","false","1","1","1820","630","d","staircase_color","","","","",""
"","","","","","html-keyboard-response","131","1843954","0.0-5.0-1.0-1.0-0.0-1.1-0.1-0.1-2.16","null","","null","<p style='font-size: 60px; color: green'>正确!</p>","","","","","","","","","","","","","","","","","","","","","","","","","","","","","","","","","","","","","","","","","","","","","","","",""
"","","","","","html-keyboard-response","132","1844970","0.0-5.0-1.0-1.0-0.0-1.1-0.1-0.1-0.17","null","fixation","null","<p style='font-size: 48px; color: white'>+</p >","","","","","","","","","","","","","","","","","","","","","","","","","","","","","","","","","","","","","","","","","","","","","","","",""
"","","","","","rdk","133","1847676","0.0-5.0-1.0-1.0-0.0-1.1-0.1-0.1-1.17","2199","color_test","k","","false","[""d"",""k""]","d","3000","true","1","100","0","0","0","5.7","1","-1","3","550","550","[""hsl(0, 50%, 50%)"",""hsl(225, 50%, 50%)""]","[""hsl(0, 50%, 50%)"",""hsl(225, 50%, 50%)""]","7","0.54","0","circle","black","3","2","2","16.681818181818183","[6,17,16,17,17,17,17,16,17,17,17,17,16,17,17,17,16,17,16,17,17,16,17,17,17,17,17,15,17,17,17,17,18,17,17,17,15,17,18,16,17,17,17,17,16,17,17,17,17,16,17,17,17,17,17,17,16,17,16,18,17,17,16,17,17,17,16,17,17,16,16,16,17,17,17,17,17,17,17,17,17,16,17,17,15,17,18,16,17,18,17,17,16,17,17,17,17,17,16,17,17,17,17,16,17,17,17,17,16,17,17,17,17,17,16,17,16,17,17,16,17,16,17,17,16,17,16,17,16,17,16,17]","132","965","360","false","20","20","black","1","false","1","1","1820","630","d","staircase_color","","","","",""
"","","","","","html-keyboard-response","134","1848688","0.0-5.0-1.0-1.0-0.0-1.1-0.1-0.1-2.17","null","","null","<p style='font-size: 60px; color: red'>错误!</p>","","","","","","","","","","","","","","","","","","","","","","","","","","","","","","","","","","","","","","","","","","","","","","","",""
"","","","","","html-keyboard-response","135","1849704","0.0-5.0-1.0-1.0-0.0-1.1-0.1-0.1-0.18","null","fixation","null","<p style='font-size: 48px; color: white'>+</p >","","","","","","","","","","","","","","","","","","","","","","","","","","","","","","","","","","","","","","","","","","","","","","","",""
"","","","","","rdk","136","1851741","0.0-5.0-1.0-1.0-0.0-1.1-0.1-0.1-1.18","1520","color_test","k","","true","[""d"",""k""]","k","3000","true","1","100","0","0","0","5.7","1","-1","3","550","550","[""hsl(0, 50%, 50%)"",""hsl(225, 50%, 50%)""]","[""hsl(225, 50%, 50%)"",""hsl(0, 50%, 50%)""]","7","0.54","0","circle","black","3","2","2","16.9010989010989","[12,17,17,17,17,17,17,17,17,17,17,17,17,17,17,17,17,17,17,17,17,17,17,17,17,17,17,16,17,17,17,17,17,16,17,17,17,17,17,17,17,17,17,17,17,17,17,17,17,17,17,17,17,17,17,17,17,17,17,17,17,17,17,17,16,17,16,17,17,17,17,17,17,17,17,17,17,17,17,17,17,17,17,17,17,17,17,17,17,17,17]","91","965","360","false","20","20","black","1","false","1","1","1820","630","k","staircase_color","","","","",""
"","","","","","html-keyboard-response","137","1852770","0.0-5.0-1.0-1.0-0.0-1.1-0.1-0.1-2.18","null","","null","<p style='font-size: 60px; color: green'>正确!</p>","","","","","","","","","","","","","","","","","","","","","","","","","","","","","","","","","","","","","","","","","","","","","","","",""
"","","","","","html-keyboard-response","138","1853786","0.0-5.0-1.0-1.0-0.0-1.1-0.1-0.1-0.19","null","fixation","null","<p style='font-size: 48px; color: white'>+</p >","","","","","","","","","","","","","","","","","","","","","","","","","","","","","","","","","","","","","","","","","","","","","","","",""
"","","","","","rdk","139","1856956","0.0-5.0-1.0-1.0-0.0-1.1-0.1-0.1-1.19","2661","color_test","k","","true","[""d"",""k""]","k","3000","true","1","100","0","0","0","5.7","1","-1","3","550","550","[""hsl(0, 50%, 50%)"",""hsl(225, 50%, 50%)""]","[""hsl(225, 50%, 50%)"",""hsl(0, 50%, 50%)""]","7","0.54","0","circle","black","3","2","2","16.71875","[4,16,17,17,17,17,18,16,17,16,17,15,17,17,17,17,18,17,17,17,16,17,16,17,17,17,17,17,16,17,16,17,17,16,16,17,17,17,17,17,17,16,17,17,17,16,18,17,17,17,16,17,17,15,18,16,17,17,17,17,17,17,16,17,17,17,17,18,17,17,16,17,17,16,17,17,17,16,17,17,17,17,17,16,17,16,17,17,17,16,17,17,17,17,17,18,16,16,17,17,17,17,17,17,17,17,17,17,17,17,17,16,17,17,16,17,17,17,16,17,17,16,16,17,17,17,16,16,17,17,17,17,17,17,17,16,17,17,17,17,16,16,17,17,17,17,17,17,17,16,17,16,16,17,17,17,17,18,17,17]","160","965","360","false","20","20","black","1","false","1","1","1820","630","k","staircase_color","","","","",""
"","","","","","html-keyboard-response","140","1857987","0.0-5.0-1.0-1.0-0.0-1.1-0.1-0.1-2.19","null","","null","<p style='font-size: 60px; color: green'>正确!</p>","","","","","","","","","","","","","","","","","","","","","","","","","","","","","","","","","","","","","","","","","","","","","","","",""
"","","","","","html-keyboard-response","141","1859003","0.0-5.0-1.0-1.0-0.0-1.1-0.1-0.1-0.20","null","fixation","null","<p style='font-size: 48px; color: white'>+</p >","","","","","","","","","","","","","","","","","","","","","","","","","","","","","","","","","","","","","","","","","","","","","","","",""
"","","","","","rdk","142","1862270","0.0-5.0-1.0-1.0-0.0-1.1-0.1-0.1-1.20","2765","color_test","d","","false","[""d"",""k""]","k","3000","true","1","100","0","0","0","5.7","1","-1","3","550","550","[""hsl(0, 50%, 50%)"",""hsl(225, 50%, 50%)""]","[""hsl(225, 50%, 50%)"",""hsl(0, 50%, 50%)""]","7","0.54","0","circle","black","3","2","2","16.873493975903614","[11,17,17,17,17,17,17,17,17,17,17,17,17,17,17,17,17,17,17,17,17,17,16,17,17,17,17,17,17,17,17,17,17,17,17,16,17,17,17,17,17,17,17,17,16,17,17,17,17,17,16,17,17,17,17,17,17,16,17,17,17,17,17,17,17,17,17,17,17,17,17,17,17,17,17,17,17,17,16,17,17,17,17,17,17,16,17,17,17,17,17,17,17,17,17,16,17,17,16,17,17,17,17,17,17,16,17,17,16,16,17,17,17,17,17,17,17,17,17,17,17,17,17,17,17,17,17,17,17,17,17,16,17,17,17,17,17,17,17,17,17,17,17,17,17,17,17,16,17,17,17,17,17,17,17,16,17,17,16,17,17,17,17,17,17,18]","166","965","360","false","20","20","black","1","false","1","1","1820","630","k","staircase_color","","","","",""
"","","","","","html-keyboard-response","143","1863287","0.0-5.0-1.0-1.0-0.0-1.1-0.1-0.1-2.20","null","","null","<p style='font-size: 60px; color: red'>错误!</p>","","","","","","","","","","","","","","","","","","","","","","","","","","","","","","","","","","","","","","","","","","","","","","","",""
"","","","","","html-keyboard-response","144","1864303","0.0-5.0-1.0-1.0-0.0-1.1-0.1-0.1-0.21","null","fixation","null","<p style='font-size: 48px; color: white'>+</p >","","","","","","","","","","","","","","","","","","","","","","","","","","","","","","","","","","","","","","","","","","","","","","","",""
"","","","","","rdk","145","1866892","0.0-5.0-1.0-1.0-0.0-1.1-0.1-0.1-1.21","2087","color_test","d","","false","[""d"",""k""]","k","3000","true","1","100","0","0","0","5.7","1","-1","3","550","550","[""hsl(0, 50%, 50%)"",""hsl(225, 50%, 50%)""]","[""hsl(225, 50%, 50%)"",""hsl(0, 50%, 50%)""]","7","0.54","0","circle","black","3","2","2","16.704","[10,17,16,17,17,17,17,18,17,16,16,17,17,17,16,17,17,17,17,17,17,17,16,17,17,16,16,16,17,17,17,17,17,18,16,17,17,17,17,17,16,17,16,17,17,17,17,17,16,17,17,16,17,17,16,17,17,16,17,17,16,18,16,17,17,16,17,17,16,17,16,16,17,16,18,16,17,17,17,17,17,17,16,17,16,17,16,17,16,17,17,17,17,17,17,17,17,16,16,17,16,17,17,17,17,16,17,16,17,15,18,16,17,17,18,17,16,18,17,17,17,16,17,17,17]","125","965","360","false","20","20","black","1","false","1","1","1820","630","k","staircase_color","","","","",""
"","","","","","html-keyboard-response","146","1867921","0.0-5.0-1.0-1.0-0.0-1.1-0.1-0.1-2.21","null","","null","<p style='font-size: 60px; color: red'>错误!</p>","","","","","","","","","","","","","","","","","","","","","","","","","","","","","","","","","","","","","","","","","","","","","","","",""
"","","","","","html-keyboard-response","147","1868937","0.0-5.0-1.0-1.0-0.0-1.1-0.1-0.1-0.22","null","fixation","null","<p style='font-size: 48px; color: white'>+</p >","","","","","","","","","","","","","","","","","","","","","","","","","","","","","","","","","","","","","","","","","","","","","","","",""
"","","","","","rdk","148","1870381","0.0-5.0-1.0-1.0-0.0-1.1-0.1-0.1-1.22","926","color_test","k","","false","[""d"",""k""]","d","3000","true","1","100","0","0","0","5.7","1","-1","3","550","550","[""hsl(0, 50%, 50%)"",""hsl(225, 50%, 50%)""]","[""hsl(0, 50%, 50%)"",""hsl(225, 50%, 50%)""]","7","0.54","0","circle","black","3","2","2","16.763636363636362","[12,16,17,17,17,17,17,17,17,17,16,17,17,17,17,17,17,17,17,17,17,17,17,16,17,16,17,16,17,17,17,17,17,17,17,17,17,17,17,17,17,17,17,17,17,17,17,16,17,16,17,16,17,17,17]","55","965","360","false","20","20","black","1","false","1","1","1820","630","d","staircase_color","","","","",""
"","","","","","html-keyboard-response","149","1871403","0.0-5.0-1.0-1.0-0.0-1.1-0.1-0.1-2.22","null","","null","<p style='font-size: 60px; color: red'>错误!</p>","","","","","","","","","","","","","","","","","","","","","","","","","","","","","","","","","","","","","","","","","","","","","","","",""
"","","","","","html-keyboard-response","150","1872405","0.0-5.0-1.0-1.0-0.0-1.1-0.1-0.1-0.23","null","fixation","null","<p style='font-size: 48px; color: white'>+</p >","","","","","","","","","","","","","","","","","","","","","","","","","","","","","","","","","","","","","","","","","","","","","","","",""
"","","","","","rdk","151","1875936","0.0-5.0-1.0-1.0-0.0-1.1-0.1-0.1-1.23","-1","color_test","","","false","[""d"",""k""]","d","3000","true","1","100","0","0","0","5.7","1","-1","3","550","550","[""hsl(0, 50%, 50%)"",""hsl(225, 50%, 50%)""]","[""hsl(0, 50%, 50%)"",""hsl(225, 50%, 50%)""]","7","0.54","0","circle","black","3","2","2","16.91160220994475","[12,17,17,17,17,16,17,17,17,17,17,17,17,17,17,17,17,17,17,17,17,17,17,17,17,17,17,17,17,17,17,17,17,16,16,17,17,17,17,17,17,17,17,17,17,17,17,17,17,17,16,17,17,17,17,17,17,17,17,17,17,17,17,17,17,16,17,17,17,17,17,17,17,17,17,17,17,17,17,17,17,17,17,17,17,17,17,17,17,17,17,16,17,17,17,17,17,17,17,17,17,17,17,17,17,16,17,17,17,17,17,17,17,17,17,17,16,17,16,17,17,17,17,17,17,17,17,17,17,17,17,17,17,17,17,17,17,17,17,17,17,17,17,17,17,17,17,17,17,17,17,17,16,17,17,17,17,17,17,17,17,17,17,17,17,17,17,17,17,17,17,17,16,17,17,17,17,17,17,17,17]","181","965","360","false","20","20","black","1","false","1","1","1820","630","d","staircase_color","","","","",""
"","","","","","html-keyboard-response","152","1876953","0.0-5.0-1.0-1.0-0.0-1.1-0.1-0.1-2.23","null","","null","<p style='font-size: 60px; color: yellow'>太慢!</p>","","","","","","","","","","","","","","","","","","","","","","","","","","","","","","","","","","","","","","","","","","","","","","","",""
"","","","","","html-keyboard-response","153","1878880","0.0-5.0-1.0-1.0-0.0-1.1-0.1-1.1","1422",""," ","<p style='font-size: 35px; color: white'>您的正确率为： 58% 。平均反应时为：1870毫秒。</p>","","","","","","","","","","","","","","","","","","","","","","","","","","","","","","","","","","","","","","","","","","","","","","","",""
"","","","","","html-keyboard-response","154","1879888","0.0-5.0-1.0-1.0-0.0-2.0-0.0-0.0-0.0","null","fixation","null","<p style='font-size: 48px; color: white'>+</p >","","","","","","","","","","","","","","","","","","","","","","","","","","","","","","","","","","","","","","","","","","","","","","","",""
"","","","","","rdk","155","1882125","0.0-5.0-1.0-1.0-0.0-2.0-0.0-0.0-1.0","1720","color_test","d","","false","[""d"",""k""]","k","3000","true","1","100","0","0","0","5.7","1","-1","3","550","550","[""hsl(0, 50%, 50%)"",""hsl(225, 50%, 50%)""]","[""hsl(225, 50%, 50%)"",""hsl(0, 50%, 50%)""]","7","0.54","0","circle","black","3","2","2","16.854368932038835","[12,17,17,17,17,17,17,17,17,17,17,17,17,17,17,17,17,17,17,17,17,17,16,17,17,17,17,16,16,17,17,17,17,17,17,17,17,16,17,17,17,17,17,17,17,17,17,17,17,17,17,17,17,17,15,18,16,17,17,17,17,17,17,17,17,17,17,17,17,17,16,17,17,17,17,16,17,17,16,17,17,17,17,17,17,17,16,17,17,17,17,17,17,17,17,17,17,17,17,17,17,17,17]","103","965","360","false","20","20","black","1","false","1","1","1820","630","k","staircase_color","","","","",""
"","","","","","html-keyboard-response","156","1883153","0.0-5.0-1.0-1.0-0.0-2.0-0.0-0.0-2.0","null","","null","<p style='font-size: 60px; color: red'>错误!</p>","","","","","","","","","","","","","","","","","","","","","","","","","","","","","","","","","","","","","","","","","","","","","","","",""
"","","","","","html-keyboard-response","157","1884170","0.0-5.0-1.0-1.0-0.0-2.0-0.0-0.0-0.1","null","fixation","null","<p style='font-size: 48px; color: white'>+</p >","","","","","","","","","","","","","","","","","","","","","","","","","","","","","","","","","","","","","","","","","","","","","","","",""
"","","","","","rdk","158","1886988","0.0-5.0-1.0-1.0-0.0-2.0-0.0-0.0-1.1","2316","color_test","k","","true","[""d"",""k""]","k","3000","true","1","100","0","0","0","5.7","1","-1","3","550","550","[""hsl(0, 50%, 50%)"",""hsl(225, 50%, 50%)""]","[""hsl(225, 50%, 50%)"",""hsl(0, 50%, 50%)""]","7","0.54","0","circle","black","3","2","2","16.892086330935253","[11,17,17,17,17,17,17,17,17,17,17,17,17,17,17,17,17,17,16,17,17,17,17,17,17,17,17,17,17,17,17,17,17,17,17,17,17,17,17,17,17,17,16,17,17,17,17,17,17,17,17,17,17,17,17,17,17,17,17,17,16,17,17,17,17,17,17,17,17,17,17,17,17,16,17,17,17,17,17,17,17,17,17,17,17,17,17,17,17,17,16,17,16,17,17,17,17,17,17,17,17,17,17,16,17,17,17,17,17,17,17,16,17,17,17,17,17,16,17,17,17,17,17,17,17,17,17,17,17,17,17,17,17,17,17,17,17,17,17]","139","965","360","false","20","20","black","1","false","1","1","1820","630","k","staircase_color","","","","",""
"","","","","","html-keyboard-response","159","1888019","0.0-5.0-1.0-1.0-0.0-2.0-0.0-0.0-2.1","null","","null","<p style='font-size: 60px; color: green'>正确!</p>","","","","","","","","","","","","","","","","","","","","","","","","","","","","","","","","","","","","","","","","","","","","","","","",""
"","","","","","html-keyboard-response","160","1889036","0.0-5.0-1.0-1.0-0.0-2.0-0.0-0.0-0.2","null","fixation","null","<p style='font-size: 48px; color: white'>+</p >","","","","","","","","","","","","","","","","","","","","","","","","","","","","","","","","","","","","","","","","","","","","","","","",""
"","","","","","rdk","161","1890748","0.0-5.0-1.0-1.0-0.0-2.0-0.0-0.0-1.2","1203","color_test","d","","true","[""d"",""k""]","d","3000","true","1","100","0","0","0","5.7","1","-1","3","550","550","[""hsl(0, 50%, 50%)"",""hsl(225, 50%, 50%)""]","[""hsl(0, 50%, 50%)"",""hsl(225, 50%, 50%)""]","7","0.54","0","circle","black","3","2","2","16.694444444444443","[8,12,17,17,17,17,17,16,17,17,17,17,17,17,17,17,17,17,17,17,17,17,17,16,17,17,17,17,17,17,17,17,17,17,16,17,17,17,17,17,17,17,17,17,16,17,17,17,17,17,17,17,17,17,17,17,16,17,17,17,16,17,17,16,17,17,17,17,17,17,17,16]","72","965","360","false","20","20","black","1","false","1","1","1820","630","d","staircase_color","","","","",""
"","","","","","html-keyboard-response","162","1891770","0.0-5.0-1.0-1.0-0.0-2.0-0.0-0.0-2.2","null","","null","<p style='font-size: 60px; color: green'>正确!</p>","","","","","","","","","","","","","","","","","","","","","","","","","","","","","","","","","","","","","","","","","","","","","","","",""
"","","","","","html-keyboard-response","163","1892786","0.0-5.0-1.0-1.0-0.0-2.0-0.0-0.0-0.3","null","fixation","null","<p style='font-size: 48px; color: white'>+</p >","","","","","","","","","","","","","","","","","","","","","","","","","","","","","","","","","","","","","","","","","","","","","","","",""
"","","","","","rdk","164","1895853","0.0-5.0-1.0-1.0-0.0-2.0-0.0-0.0-1.3","2566","color_test","d","","true","[""d"",""k""]","d","3000","true","1","100","0","0","0","5.7","1","-1","3","550","550","[""hsl(0, 50%, 50%)"",""hsl(225, 50%, 50%)""]","[""hsl(0, 50%, 50%)"",""hsl(225, 50%, 50%)""]","7","0.54","0","circle","black","3","2","2","16.935064935064936","[12,17,17,17,17,17,17,17,17,17,17,17,17,17,17,16,17,17,17,17,17,17,17,17,17,17,17,17,16,17,17,17,17,17,17,17,17,17,17,17,17,17,17,17,17,17,17,17,17,17,17,17,17,17,17,17,17,17,17,17,17,17,17,17,17,17,17,17,17,17,17,17,17,17,17,17,17,17,17,17,17,17,17,17,17,17,17,17,17,17,17,17,17,17,17,17,17,17,17,17,17,17,17,17,17,17,17,17,17,17,17,17,17,17,17,17,17,17,17,17,17,17,17,17,17,16,17,17,17,17,17,17,17,16,17,17,17,17,17,17,17,17,17,17,17,16,17,17,17,17,17,17,17,17]","154","965","360","false","20","20","black","1","false","1","1","1820","630","d","staircase_color","","","","",""
"","","","","","html-keyboard-response","165","1896870","0.0-5.0-1.0-1.0-0.0-2.0-0.0-0.0-2.3","null","","null","<p style='font-size: 60px; color: green'>正确!</p>","","","","","","","","","","","","","","","","","","","","","","","","","","","","","","","","","","","","","","","","","","","","","","","",""
"","","","","","html-keyboard-response","166","1897886","0.0-5.0-1.0-1.0-0.0-2.0-0.0-0.0-0.4","null","fixation","null","<p style='font-size: 48px; color: white'>+</p >","","","","","","","","","","","","","","","","","","","","","","","","","","","","","","","","","","","","","","","","","","","","","","","",""
"","","","","","rdk","167","1899916","0.0-5.0-1.0-1.0-0.0-2.0-0.0-0.0-1.4","1527","color_test","d","","true","[""d"",""k""]","d","3000","true","1","100","0","0","0","5.7","1","-1","3","550","550","[""hsl(0, 50%, 50%)"",""hsl(225, 50%, 50%)""]","[""hsl(0, 50%, 50%)"",""hsl(225, 50%, 50%)""]","7","0.54","0","circle","black","3","2","2","16.857142857142858","[10,17,17,17,17,17,17,17,17,17,17,17,17,17,17,17,17,17,16,17,17,17,17,17,17,17,17,17,17,17,17,17,16,17,16,17,17,17,17,17,17,17,17,17,17,17,17,17,17,17,17,17,17,17,17,17,17,17,17,17,16,17,17,17,17,17,17,17,17,17,17,17,17,17,17,17,16,17,17,17,16,17,17,17,17,17,17,17,17,17,17]","91","965","360","false","20","20","black","1","false","1","1","1820","630","d","staircase_color","","","","",""
"","","","","","html-keyboard-response","168","1900936","0.0-5.0-1.0-1.0-0.0-2.0-0.0-0.0-2.4","null","","null","<p style='font-size: 60px; color: green'>正确!</p>","","","","","","","","","","","","","","","","","","","","","","","","","","","","","","","","","","","","","","","","","","","","","","","",""
"","","","","","html-keyboard-response","169","1901953","0.0-5.0-1.0-1.0-0.0-2.0-0.0-0.0-0.5","null","fixation","null","<p style='font-size: 48px; color: white'>+</p >","","","","","","","","","","","","","","","","","","","","","","","","","","","","","","","","","","","","","","","","","","","","","","","",""
"","","","","","rdk","170","1905053","0.0-5.0-1.0-1.0-0.0-2.0-0.0-0.0-1.5","2597","color_test","k","","false","[""d"",""k""]","d","3000","true","1","100","0","0","0","5.7","1","-1","3","550","550","[""hsl(0, 50%, 50%)"",""hsl(225, 50%, 50%)""]","[""hsl(0, 50%, 50%)"",""hsl(225, 50%, 50%)""]","7","0.54","0","circle","black","3","2","2","16.794871794871796","[10,17,17,17,17,17,17,17,17,17,17,17,17,17,16,17,17,16,16,17,17,17,17,17,17,17,17,17,17,17,16,17,17,17,17,17,17,17,17,17,17,17,16,17,17,17,17,16,17,17,17,17,17,16,17,16,17,17,17,17,17,17,16,17,17,17,17,17,17,17,16,17,17,17,17,17,16,17,17,17,17,17,17,16,16,17,17,17,17,17,17,17,17,17,17,16,17,17,17,17,17,17,17,17,17,17,16,17,17,17,16,17,17,17,17,17,17,17,16,17,17,17,17,17,16,17,17,16,17,17,17,17,16,17,17,16,17,17,16,17,16,17,17,17,17,17,17,16,17,17,17,16,17,17,17,17]","156","965","360","false","20","20","black","1","false","1","1","1820","630","d","staircase_color","","","","",""
"","","","","","html-keyboard-response","171","1906070","0.0-5.0-1.0-1.0-0.0-2.0-0.0-0.0-2.5","null","","null","<p style='font-size: 60px; color: red'>错误!</p>","","","","","","","","","","","","","","","","","","","","","","","","","","","","","","","","","","","","","","","","","","","","","","","",""
"","","","","","html-keyboard-response","172","1907086","0.0-5.0-1.0-1.0-0.0-2.0-0.0-0.0-0.6","null","fixation","null","<p style='font-size: 48px; color: white'>+</p >","","","","","","","","","","","","","","","","","","","","","","","","","","","","","","","","","","","","","","","","","","","","","","","",""
"","","","","","rdk","173","1910108","0.0-5.0-1.0-1.0-0.0-2.0-0.0-0.0-1.6","2516","color_test","k","","true","[""d"",""k""]","k","3000","true","1","100","0","0","0","5.7","1","-1","3","550","550","[""hsl(0, 50%, 50%)"",""hsl(225, 50%, 50%)""]","[""hsl(225, 50%, 50%)"",""hsl(0, 50%, 50%)""]","7","0.54","0","circle","black","3","2","2","16.688741721854306","[7,17,17,17,17,17,17,18,16,17,16,16,17,17,17,17,17,18,17,16,17,17,17,17,17,16,17,17,16,17,17,16,17,17,17,17,16,17,16,17,17,16,17,17,17,17,16,17,16,17,16,17,17,17,17,16,17,17,17,17,16,17,17,17,17,17,17,16,17,17,17,16,17,17,16,17,17,17,17,17,16,17,17,17,17,17,17,16,17,17,16,17,17,17,16,17,17,17,16,17,17,16,18,16,17,16,17,17,17,16,17,17,17,16,17,17,16,16,17,16,17,16,17,17,16,17,17,17,16,17,17,17,17,16,17,17,16,17,17,17,16,16,17,16,17,17,17,17,16,17,17]","151","965","360","false","20","20","black","1","false","1","1","1820","630","k","staircase_color","","","","",""
"","","","","","html-keyboard-response","174","1911136","0.0-5.0-1.0-1.0-0.0-2.0-0.0-0.0-2.6","null","","null","<p style='font-size: 60px; color: green'>正确!</p>","","","","","","","","","","","","","","","","","","","","","","","","","","","","","","","","","","","","","","","","","","","","","","","",""
"","","","","","html-keyboard-response","175","1912153","0.0-5.0-1.0-1.0-0.0-2.0-0.0-0.0-0.7","null","fixation","null","<p style='font-size: 48px; color: white'>+</p >","","","","","","","","","","","","","","","","","","","","","","","","","","","","","","","","","","","","","","","","","","","","","","","",""
"","","","","","rdk","176","1915667","0.0-5.0-1.0-1.0-0.0-2.0-0.0-0.0-1.7","-1","color_test","","","false","[""d"",""k""]","k","3000","true","1","100","0","0","0","5.7","1","-1","3","550","550","[""hsl(0, 50%, 50%)"",""hsl(225, 50%, 50%)""]","[""hsl(225, 50%, 50%)"",""hsl(0, 50%, 50%)""]","7","0.54","0","circle","black","3","2","2","16.82777777777778","[7,16,16,17,17,17,16,17,17,17,17,17,17,17,17,17,17,17,17,17,17,17,17,17,17,16,17,17,17,16,18,16,17,17,17,16,17,17,16,17,17,17,17,17,16,17,17,17,17,18,16,17,17,17,17,17,17,17,17,17,16,17,17,16,17,17,17,17,17,17,16,17,17,17,17,17,17,17,16,17,17,17,17,17,17,17,17,17,16,17,17,17,17,17,17,17,17,17,17,17,17,17,17,17,17,17,17,17,17,17,16,17,16,17,17,17,17,17,17,16,17,17,17,17,16,17,17,17,17,17,17,17,17,17,17,17,17,17,17,16,17,16,17,17,17,17,17,16,17,17,17,17,17,17,17,17,17,17,17,17,17,17,17,17,17,17,17,17,17,17,17,17,17,17,17,16,17,17,17,17]","180","965","360","false","20","20","black","1","false","1","1","1820","630","k","staircase_color","","","","",""
"","","","","","html-keyboard-response","177","1916686","0.0-5.0-1.0-1.0-0.0-2.0-0.0-0.0-2.7","null","","null","<p style='font-size: 60px; color: yellow'>太慢!</p>","","","","","","","","","","","","","","","","","","","","","","","","","","","","","","","","","","","","","","","","","","","","","","","",""
"","","","","","html-keyboard-response","178","1917703","0.0-5.0-1.0-1.0-0.0-2.0-0.0-0.0-0.8","null","fixation","null","<p style='font-size: 48px; color: white'>+</p >","","","","","","","","","","","","","","","","","","","","","","","","","","","","","","","","","","","","","","","","","","","","","","","",""
"","","","","","rdk","179","1919164","0.0-5.0-1.0-1.0-0.0-2.0-0.0-0.0-1.8","947","color_test","d","","true","[""d"",""k""]","d","3000","true","1","100","0","0","0","5.7","1","-1","3","550","550","[""hsl(0, 50%, 50%)"",""hsl(225, 50%, 50%)""]","[""hsl(0, 50%, 50%)"",""hsl(225, 50%, 50%)""]","7","0.54","0","circle","black","3","2","2","16.928571428571427","[15,17,17,17,17,17,17,17,17,17,17,17,17,17,17,17,17,17,17,17,17,17,17,16,17,17,17,17,17,17,17,17,17,17,17,17,17,17,17,17,17,17,17,17,17,17,17,17,17,17,17,17,17,17,16,17]","56","965","360","false","20","20","black","1","false","1","1","1820","630","d","staircase_color","","","","",""
"","","","","","html-keyboard-response","180","1920186","0.0-5.0-1.0-1.0-0.0-2.0-0.0-0.0-2.8","null","","null","<p style='font-size: 60px; color: green'>正确!</p>","","","","","","","","","","","","","","","","","","","","","","","","","","","","","","","","","","","","","","","","","","","","","","","",""
"","","","","","html-keyboard-response","181","1921203","0.0-5.0-1.0-1.0-0.0-2.0-0.0-0.0-0.9","null","fixation","null","<p style='font-size: 48px; color: white'>+</p >","","","","","","","","","","","","","","","","","","","","","","","","","","","","","","","","","","","","","","","","","","","","","","","",""
"","","","","","rdk","182","1922844","0.0-5.0-1.0-1.0-0.0-2.0-0.0-0.0-1.9","1138","color_test","d","","false","[""d"",""k""]","k","3000","true","1","100","0","0","0","5.7","1","-1","3","550","550","[""hsl(0, 50%, 50%)"",""hsl(225, 50%, 50%)""]","[""hsl(225, 50%, 50%)"",""hsl(0, 50%, 50%)""]","7","0.54","0","circle","black","3","2","2","16.86764705882353","[10,17,17,17,17,17,17,17,17,17,17,17,17,17,17,17,17,17,17,17,17,17,17,17,17,17,17,17,17,17,17,17,17,17,17,17,17,17,17,17,17,17,17,17,17,17,17,17,17,17,17,17,17,17,17,17,17,17,17,17,16,17,17,17,17,17,16,17]","68","965","360","false","20","20","black","1","false","1","1","1820","630","k","staircase_color","","","","",""
"","","","","","html-keyboard-response","183","1923869","0.0-5.0-1.0-1.0-0.0-2.0-0.0-0.0-2.9","null","","null","<p style='font-size: 60px; color: red'>错误!</p>","","","","","","","","","","","","","","","","","","","","","","","","","","","","","","","","","","","","","","","","","","","","","","","",""
"","","","","","html-keyboard-response","184","1924887","0.0-5.0-1.0-1.0-0.0-2.0-0.0-0.0-0.10","null","fixation","null","<p style='font-size: 48px; color: white'>+</p >","","","","","","","","","","","","","","","","","","","","","","","","","","","","","","","","","","","","","","","","","","","","","","","",""
"","","","","","rdk","185","1926860","0.0-5.0-1.0-1.0-0.0-2.0-0.0-0.0-1.10","1457","color_test","d","","true","[""d"",""k""]","d","3000","true","1","100","0","0","0","5.7","1","-1","3","550","550","[""hsl(0, 50%, 50%)"",""hsl(225, 50%, 50%)""]","[""hsl(0, 50%, 50%)"",""hsl(225, 50%, 50%)""]","7","0.54","0","circle","black","3","2","2","16.816091954022987","[14,17,17,16,17,17,17,17,17,17,17,17,17,17,17,17,17,17,17,16,17,16,17,17,17,16,17,17,17,17,17,17,17,17,17,16,17,17,17,17,17,17,17,16,17,17,17,16,17,17,17,17,17,17,17,17,17,17,17,16,17,17,17,17,17,17,16,17,17,17,16,17,17,17,16,16,17,17,17,17,17,17,17,17,17,17,16]","87","965","360","false","20","20","black","1","false","1","1","1820","630","d","staircase_color","","","","",""
"","","","","","html-keyboard-response","186","1927871","0.0-5.0-1.0-1.0-0.0-2.0-0.0-0.0-2.10","null","","null","<p style='font-size: 60px; color: green'>正确!</p>","","","","","","","","","","","","","","","","","","","","","","","","","","","","","","","","","","","","","","","","","","","","","","","",""
"","","","","","html-keyboard-response","187","1928888","0.0-5.0-1.0-1.0-0.0-2.0-0.0-0.0-0.11","null","fixation","null","<p style='font-size: 48px; color: white'>+</p >","","","","","","","","","","","","","","","","","","","","","","","","","","","","","","","","","","","","","","","","","","","","","","","",""
"","","","","","rdk","188","1930860","0.0-5.0-1.0-1.0-0.0-2.0-0.0-0.0-1.11","1457","color_test","k","","true","[""d"",""k""]","k","3000","true","1","100","0","0","0","5.7","1","-1","3","550","550","[""hsl(0, 50%, 50%)"",""hsl(225, 50%, 50%)""]","[""hsl(225, 50%, 50%)"",""hsl(0, 50%, 50%)""]","7","0.54","0","circle","black","3","2","2","16.816091954022987","[13,17,17,17,16,17,17,17,17,17,17,17,17,17,17,17,16,17,17,17,17,17,17,17,17,17,16,17,16,17,17,17,17,17,16,17,17,17,16,17,17,17,17,17,16,17,17,17,17,17,17,17,17,17,17,17,17,17,16,17,16,17,17,17,17,17,17,17,17,17,17,17,17,16,17,17,17,17,16,17,16,17,17,17,17,17,17]","87","965","360","false","20","20","black","1","false","1","1","1820","630","k","staircase_color","","","","",""
"","","","","","html-keyboard-response","189","1931886","0.0-5.0-1.0-1.0-0.0-2.0-0.0-0.0-2.11","null","","null","<p style='font-size: 60px; color: green'>正确!</p>","","","","","","","","","","","","","","","","","","","","","","","","","","","","","","","","","","","","","","","","","","","","","","","",""
"","","","","","html-keyboard-response","190","1933516","0.0-5.0-1.0-1.0-0.0-2.0-0.0-1.0","1129",""," ","<p style='font-size: 35px; color: white'>您的正确率为： 67% 。平均反应时为：1620毫秒。</p>","","","","","","","","","","","","","","","","","","","","","","","","","","","","","","","","","","","","","","","","","","","","","","","",""
"","","","","","html-keyboard-response","191","1934536","0.0-5.0-1.0-1.0-0.0-2.1-0.1-0.1-0.12","null","fixation","null","<p style='font-size: 48px; color: white'>+</p >","","","","","","","","","","","","","","","","","","","","","","","","","","","","","","","","","","","","","","","","","","","","","","","",""
"","","","","","rdk","192","1937405","0.0-5.0-1.0-1.0-0.0-2.1-0.1-0.1-1.12","2362","color_test","d","","true","[""d"",""k""]","d","3000","true","1","100","0","0","0","5.7","1","-1","3","550","550","[""hsl(0, 50%, 50%)"",""hsl(225, 50%, 50%)""]","[""hsl(0, 50%, 50%)"",""hsl(225, 50%, 50%)""]","7","0.52","0","circle","black","3","2","2","16.802816901408452","[7,16,17,17,16,17,17,17,17,17,17,17,17,17,17,17,17,17,17,17,17,16,17,16,17,17,17,17,17,17,17,17,17,17,17,17,17,17,17,17,17,17,17,17,17,17,16,17,17,17,16,17,17,17,17,16,17,17,17,18,16,17,17,17,17,17,17,17,17,17,17,17,16,17,17,17,17,17,17,17,17,17,17,16,17,17,17,17,17,17,17,17,16,17,17,17,17,16,17,17,16,17,17,18,16,17,17,17,17,17,17,17,17,17,16,17,16,16,17,17,17,17,17,17,17,16,17,17,16,17,16,17,17,17,17,17,17,17,17,17,17,17]","142","965","360","false","20","20","black","1","false","1","1","1820","630","d","staircase_color","","","","",""
"","","","","","html-keyboard-response","193","1938418","0.0-5.0-1.0-1.0-0.0-2.1-0.1-0.1-2.12","null","","null","<p style='font-size: 60px; color: green'>正确!</p>","","","","","","","","","","","","","","","","","","","","","","","","","","","","","","","","","","","","","","","","","","","","","","","",""
"","","","","","html-keyboard-response","194","1939436","0.0-5.0-1.0-1.0-0.0-2.1-0.1-0.1-0.13","null","fixation","null","<p style='font-size: 48px; color: white'>+</p >","","","","","","","","","","","","","","","","","","","","","","","","","","","","","","","","","","","","","","","","","","","","","","","",""
"","","","","","rdk","195","1941164","0.0-5.0-1.0-1.0-0.0-2.1-0.1-0.1-1.13","1225","color_test","k","","true","[""d"",""k""]","k","3000","true","1","100","0","0","0","5.7","1","-1","3","550","550","[""hsl(0, 50%, 50%)"",""hsl(225, 50%, 50%)""]","[""hsl(225, 50%, 50%)"",""hsl(0, 50%, 50%)""]","7","0.52","0","circle","black","3","2","2","16.876712328767123","[10,17,17,17,17,17,17,17,17,17,17,17,17,17,16,17,17,17,17,17,17,17,17,17,17,17,17,17,17,17,17,17,17,17,17,17,17,17,17,17,17,17,17,17,17,17,17,17,17,17,17,17,17,17,17,17,17,17,17,17,17,17,17,16,17,17,17,17,17,17,17,17,17]","73","965","360","false","20","20","black","1","false","1","1","1820","630","k","staircase_color","","","","",""
"","","","","","html-keyboard-response","196","1942171","0.0-5.0-1.0-1.0-0.0-2.1-0.1-0.1-2.13","null","","null","<p style='font-size: 60px; color: green'>正确!</p>","","","","","","","","","","","","","","","","","","","","","","","","","","","","","","","","","","","","","","","","","","","","","","","",""
"","","","","","html-keyboard-response","197","1943174","0.0-5.0-1.0-1.0-0.0-2.1-0.1-0.1-0.14","null","fixation","null","<p style='font-size: 48px; color: white'>+</p >","","","","","","","","","","","","","","","","","","","","","","","","","","","","","","","","","","","","","","","","","","","","","","","",""
"","","","","","rdk","198","1944925","0.0-5.0-1.0-1.0-0.0-2.1-0.1-0.1-1.14","1237","color_test","d","","false","[""d"",""k""]","k","3000","true","1","100","0","0","0","5.7","1","-1","3","550","550","[""hsl(0, 50%, 50%)"",""hsl(225, 50%, 50%)""]","[""hsl(225, 50%, 50%)"",""hsl(0, 50%, 50%)""]","7","0.52","0","circle","black","3","2","2","16.783783783783782","[11,17,17,17,17,17,17,17,17,17,17,17,16,17,17,16,17,17,17,17,16,17,17,16,17,17,17,17,17,17,17,16,16,17,17,17,17,17,17,17,17,17,16,17,16,17,17,17,17,17,17,17,16,17,17,17,17,17,17,17,17,17,17,17,17,17,17,17,17,17,17,16,17,17]","74","965","360","false","20","20","black","1","false","1","1","1820","630","k","staircase_color","","","","",""
"","","","","","html-keyboard-response","199","1945953","0.0-5.0-1.0-1.0-0.0-2.1-0.1-0.1-2.14","null","","null","<p style='font-size: 60px; color: red'>错误!</p>","","","","","","","","","","","","","","","","","","","","","","","","","","","","","","","","","","","","","","","","","","","","","","","",""
"","","","","","html-keyboard-response","200","1946956","0.0-5.0-1.0-1.0-0.0-2.1-0.1-0.1-0.15","null","fixation","null","<p style='font-size: 48px; color: white'>+</p >","","","","","","","","","","","","","","","","","","","","","","","","","","","","","","","","","","","","","","","","","","","","","","","",""
"","","","","","rdk","201","1948877","0.0-5.0-1.0-1.0-0.0-2.1-0.1-0.1-1.15","1406","color_test","d","","true","[""d"",""k""]","d","3000","true","1","100","0","0","0","5.7","1","-1","3","550","550","[""hsl(0, 50%, 50%)"",""hsl(225, 50%, 50%)""]","[""hsl(0, 50%, 50%)"",""hsl(225, 50%, 50%)""]","7","0.52","0","circle","black","3","2","2","16.928571428571427","[13,17,17,17,17,17,17,17,17,16,17,17,17,17,17,17,17,17,17,17,17,17,17,17,17,17,17,17,17,17,17,17,17,17,17,17,17,17,17,16,17,17,17,17,17,17,17,17,17,17,17,17,17,17,17,17,17,17,17,17,17,17,17,17,17,17,17,17,17,17,17,17,17,17,17,17,17,17,17,17,17,17,17,17]","84","965","360","false","20","20","black","1","false","1","1","1820","630","d","staircase_color","","","","",""
"","","","","","html-keyboard-response","202","1949889","0.0-5.0-1.0-1.0-0.0-2.1-0.1-0.1-2.15","null","","null","<p style='font-size: 60px; color: green'>正确!</p>","","","","","","","","","","","","","","","","","","","","","","","","","","","","","","","","","","","","","","","","","","","","","","","",""
"","","","","","html-keyboard-response","203","1950905","0.0-5.0-1.0-1.0-0.0-2.1-0.1-0.1-0.16","null","fixation","null","<p style='font-size: 48px; color: white'>+</p >","","","","","","","","","","","","","","","","","","","","","","","","","","","","","","","","","","","","","","","","","","","","","","","",""
"","","","","","rdk","204","1953725","0.0-5.0-1.0-1.0-0.0-2.1-0.1-0.1-1.16","2313","color_test","k","","false","[""d"",""k""]","d","3000","true","1","100","0","0","0","5.7","1","-1","3","550","550","[""hsl(0, 50%, 50%)"",""hsl(225, 50%, 50%)""]","[""hsl(0, 50%, 50%)"",""hsl(225, 50%, 50%)""]","7","0.52","0","circle","black","3","2","2","16.676258992805757","[5,17,17,17,16,17,17,17,18,16,17,17,17,16,16,17,17,17,17,17,17,17,17,17,16,17,16,17,17,17,17,17,16,17,16,17,17,16,17,16,16,17,17,16,17,17,17,17,16,17,16,17,17,16,16,17,17,16,17,16,16,17,16,17,16,18,16,17,17,17,17,17,17,16,17,17,16,18,16,17,17,17,17,16,17,17,17,17,16,17,17,16,16,17,17,17,17,16,18,16,17,17,16,17,15,17,17,18,16,16,17,17,17,17,17,17,16,17,17,17,17,17,17,17,17,17,17,17,17,17,17,17,17,17,17,16,17,17,17]","139","965","360","false","20","20","black","1","false","1","1","1820","630","d","staircase_color","","","","",""
