"success","timeout","failed_images","failed_audio","failed_video","trial_type","trial_index","time_elapsed","internal_node_id","rt","part","response","stimulus","correct","choices","correct_choice","trial_duration","response_ends_trial","number_of_apertures","number_of_dots","coherent_direction","coherence","opposite_coherence","dot_radius","dot_side_length","dot_life","move_distance","aperture_width","aperture_height","dot_color","dot_color_final","color_change_delay","target_color_proportion","motion_change_delay","dot_shape","background_color","RDK_type","aperture_type","reinsert_type","frame_rate","frame_rate_array","number_of_frames","aperture_center_x","aperture_center_y","fixation_cross","fixation_cross_width","fixation_cross_height","fixation_cross_color","fixation_cross_thickness","border","border_thickness","border_color","canvas_width","canvas_height","correct_response","data_label","task","difficulty","isMatch","association"
"true","false","[]","[]","[]","preload","0","3","0.0-0.0","","","","","","","","","","","","","","","","","","","","","","","","","","","","","","","","","","","","","","","","","","","","","","","","","","",""
"true","","","","","fullscreen","1","19082","0.0-1.0","17565","fullScreen","","","","","","","","","","","","","","","","","","","","","","","","","","","","","","","","","","","","","","","","","","","","","","","","",""
"","","","","","survey","2","28026","0.0-2.0","8403","survey","{""sex"":""女"",""age"":20,""hands"":""右"",""color_blindness"":""都不是""}","","","","","","","","","","","","","","","","","","","","","","","","","","","","","","","","","","","","","","","","","","","","","","","",""
"","","","","","survey-text","3","36986","0.0-3.0","8444","color_test","{""Q0"":""be""}","","","","","","","","","","","","","","","","","","","","","","","","","","","","","","","","","","","","","","","","","","","","","","","",""
"","","","","","html-keyboard-response","4","41569","0.0-4.0","4082","instruction_beginning"," ","
      <div style=""text-align: left; color: white"">
        <h3 style=""text-align: center; font-size: 30px; margin: 0;"">欢迎参与本实验</h3>
          <p>为充分保障您的权利，请确保您已经知晓并同意《参与实验同意书》以及《数据公开知情同意书》，</p>
          <p>如果您未见过上述内容，请咨询实验员 ，</p>
          <p>如果您选择继续实验，则表示您已经清楚两份知情同意书的内容并同意 。</p>
          <p>在整个实验中，您需要完成两项任务，具体的任务要求会在后面说明 ，</p>
          <p>请按空格键进入实验</p >
      </div>","","","","","","","","","","","","","","","","","","","","","","","","","","","","","","","","","","","","","","","","","","","","","","",""
"","","","","","html-keyboard-response","5","76833","0.0-5.0-0.0","34750","instruction_getThreshold"," ","
        <div style=""text-align: left; color: white; padding: 10px""> 
          <h3 style=""text-align: center; font-size: 30px; margin: 10px"">欢迎进入实验！</h3>
          <p>在正式开始前，我们将通过一个快速测试为您打造专属的难度水平。<p>
          <p>接下来，屏幕上会呈现一些运动的圆点，其中一半为 <span style=""color: hsl(0, 50%, 50%)"">红色</span> ，一半为 <span style=""color: hsl(225, 50%, 50%)"">蓝色</span>，</p>
          <p><span style=""font-weight: bold"">大约0.2秒后,</span>  一部分点会随机变为另一种颜色（例如从红色变为蓝色），变化后某种颜色的数量会超过另一种。</p >
          <p>您需要在3秒内判断 <span style=""font-weight: bold"">变化后，散点图的整体颜色（即大多数点的颜色）是红色还是蓝色 </span>：</p >
          <ul>
            <li>整体为 <span style=""color: hsl(0, 50%, 50%)"">红色</span>，请按键盘 <span style=""color: hsl(0, 50%, 50%)"">""D"" 键</span></li>
            <li>整体为 <span style=""color: hsl(225, 50%, 50%)"">蓝色</span>，请按键盘 <span style=""color: hsl(225, 50%, 50%)"">""k"" 键</span> </li>
          </ul>
          <p>如有疑问请向主试咨询，没有则按下空格键开始</p>
        </div>","","","","","","","","","","","","","","","","","","","","","","","","","","","","","","","","","","","","","","","","","","","","","","",""
"","","","","","html-keyboard-response","6","77848","0.0-5.0-1.0-1.0-0.0-0.0-0.0-0.0-0.0","null","fixation","null","<p style='font-size: 48px; color: white'>+</p >","","","","","","","","","","","","","","","","","","","","","","","","","","","","","","","","","","","","","","","","","","","","","","",""
"","","","","","rdk","7","81357","0.0-5.0-1.0-1.0-0.0-0.0-0.0-0.0-1.0","-1","color_test","","","false","[""d"",""k""]","k","3000","true","1","100","0","0","0","5.7","1","-1","3","550","550","[""hsl(0, 50%, 50%)"",""hsl(225, 50%, 50%)""]","[""hsl(225, 50%, 50%)"",""hsl(0, 50%, 50%)""]","6","0.64","0","circle","black","3","2","2","16.8","[1,13,17,17,17,16,17,16,17,17,16,17,17,17,17,17,17,17,17,17,17,17,17,17,16,17,17,17,17,17,17,16,17,17,17,17,17,17,17,16,17,17,17,17,17,17,17,17,17,17,17,17,17,17,17,17,17,17,17,17,16,17,17,17,16,17,17,17,16,17,17,17,16,17,17,16,17,16,17,17,17,17,17,17,17,17,17,17,17,17,17,17,17,17,17,17,17,17,17,17,17,17,17,17,17,17,17,17,17,17,17,17,17,17,17,17,16,17,17,17,17,17,17,17,17,17,17,17,17,17,17,17,17,17,17,17,17,17,17,17,17,17,17,17,17,17,17,17,17,17,17,17,17,17,16,17,17,17,17,17,17,17,17,17,17,17,17,17,17,17,17,16,17,17,17,16,17,17,17,17]","180","965","360","false","20","20","black","1","false","1","1","1820","630","k","staircase_color","","","",""
"","","","","","html-keyboard-response","8","82377","0.0-5.0-1.0-1.0-0.0-0.0-0.0-0.0-2.0","null","","null","<p style='font-size: 60px; color: yellow'>太慢!</p>","","","","","","","","","","","","","","","","","","","","","","","","","","","","","","","","","","","","","","","","","","","","","","",""
"","","","","","html-keyboard-response","9","83394","0.0-5.0-1.0-1.0-0.0-0.0-0.0-0.0-0.1","null","fixation","null","<p style='font-size: 48px; color: white'>+</p >","","","","","","","","","","","","","","","","","","","","","","","","","","","","","","","","","","","","","","","","","","","","","","",""
"","","","","","rdk","10","85377","0.0-5.0-1.0-1.0-0.0-0.0-0.0-0.0-1.1","1480","color_test","d","","false","[""d"",""k""]","k","3000","true","1","100","0","0","0","5.7","1","-1","3","550","550","[""hsl(0, 50%, 50%)"",""hsl(225, 50%, 50%)""]","[""hsl(225, 50%, 50%)"",""hsl(0, 50%, 50%)""]","6","0.64","0","circle","black","3","2","2","16.808988764044944","[9,17,17,17,17,17,17,17,17,17,16,17,17,17,17,17,17,17,17,16,17,17,17,17,17,17,17,17,16,17,16,17,17,17,17,17,17,17,17,17,17,17,17,17,17,17,17,17,17,17,17,17,17,17,17,17,17,16,17,17,17,17,17,17,17,17,16,17,17,17,16,17,17,17,17,17,17,16,17,17,17,17,17,16,17,17,17,17,17]","89","965","360","false","20","20","black","1","false","1","1","1820","630","k","staircase_color","","","",""
"","","","","","html-keyboard-response","11","86394","0.0-5.0-1.0-1.0-0.0-0.0-0.0-0.0-2.1","null","","null","<p style='font-size: 60px; color: red'>错误!</p>","","","","","","","","","","","","","","","","","","","","","","","","","","","","","","","","","","","","","","","","","","","","","","",""
"","","","","","html-keyboard-response","12","87400","0.0-5.0-1.0-1.0-0.0-0.0-0.0-0.0-0.2","null","fixation","null","<p style='font-size: 48px; color: white'>+</p >","","","","","","","","","","","","","","","","","","","","","","","","","","","","","","","","","","","","","","","","","","","","","","",""
"","","","","","rdk","13","88961","0.0-5.0-1.0-1.0-0.0-0.0-0.0-0.0-1.2","1045","color_test","d","","true","[""d"",""k""]","d","3000","true","1","100","0","0","0","5.7","1","-1","3","550","550","[""hsl(0, 50%, 50%)"",""hsl(225, 50%, 50%)""]","[""hsl(0, 50%, 50%)"",""hsl(225, 50%, 50%)""]","6","0.64","0","circle","black","3","2","2","16.634920634920636","[7,17,17,16,17,17,16,17,16,17,16,17,17,17,17,17,17,16,17,17,17,17,17,17,17,17,17,17,17,17,17,17,17,16,17,16,17,17,17,17,17,17,17,17,17,17,16,17,17,17,17,17,16,17,17,16,17,17,17,16,16,17,16]","63","965","360","false","20","20","black","1","false","1","1","1820","630","d","staircase_color","","","",""
"","","","","","html-keyboard-response","14","89977","0.0-5.0-1.0-1.0-0.0-0.0-0.0-0.0-2.2","null","","null","<p style='font-size: 60px; color: green'>正确!</p>","","","","","","","","","","","","","","","","","","","","","","","","","","","","","","","","","","","","","","","","","","","","","","",""
"","","","","","html-keyboard-response","15","90983","0.0-5.0-1.0-1.0-0.0-0.0-0.0-0.0-0.3","null","fixation","null","<p style='font-size: 48px; color: white'>+</p >","","","","","","","","","","","","","","","","","","","","","","","","","","","","","","","","","","","","","","","","","","","","","","",""
"","","","","","rdk","16","92497","0.0-5.0-1.0-1.0-0.0-0.0-0.0-0.0-1.3","1008","color_test","d","","true","[""d"",""k""]","d","3000","true","1","100","0","0","0","5.7","1","-1","3","550","550","[""hsl(0, 50%, 50%)"",""hsl(225, 50%, 50%)""]","[""hsl(0, 50%, 50%)"",""hsl(225, 50%, 50%)""]","6","0.64","0","circle","black","3","2","2","16.916666666666668","[17,17,17,17,17,16,17,17,17,17,17,17,17,17,17,17,17,17,16,17,17,17,17,17,17,17,17,17,16,17,17,17,17,16,17,17,17,17,17,17,17,17,17,17,17,17,17,17,17,17,16,17,17,17,17,17,17,17,17,17]","60","965","360","false","20","20","black","1","false","1","1","1820","630","d","staircase_color","","","",""
"","","","","","html-keyboard-response","17","93527","0.0-5.0-1.0-1.0-0.0-0.0-0.0-0.0-2.3","null","","null","<p style='font-size: 60px; color: green'>正确!</p>","","","","","","","","","","","","","","","","","","","","","","","","","","","","","","","","","","","","","","","","","","","","","","",""
"","","","","","html-keyboard-response","18","94545","0.0-5.0-1.0-1.0-0.0-0.0-0.0-0.0-0.4","null","fixation","null","<p style='font-size: 48px; color: white'>+</p >","","","","","","","","","","","","","","","","","","","","","","","","","","","","","","","","","","","","","","","","","","","","","","",""
"","","","","","rdk","19","96001","0.0-5.0-1.0-1.0-0.0-0.0-0.0-0.0-1.4","945","color_test","d","","true","[""d"",""k""]","d","3000","true","1","100","0","0","0","5.7","1","-1","3","550","550","[""hsl(0, 50%, 50%)"",""hsl(225, 50%, 50%)""]","[""hsl(0, 50%, 50%)"",""hsl(225, 50%, 50%)""]","6","0.64","0","circle","black","3","2","2","16.892857142857142","[17,16,17,17,17,16,17,16,17,17,17,17,17,17,17,17,17,17,17,17,17,17,17,17,17,16,17,16,17,17,17,17,17,17,17,17,17,17,17,17,17,17,17,17,17,16,17,17,17,17,17,17,17,17,17,17]","56","965","360","false","20","20","black","1","false","1","1","1820","630","d","staircase_color","","","",""
"","","","","","html-keyboard-response","20","97027","0.0-5.0-1.0-1.0-0.0-0.0-0.0-0.0-2.4","null","","null","<p style='font-size: 60px; color: green'>正确!</p>","","","","","","","","","","","","","","","","","","","","","","","","","","","","","","","","","","","","","","","","","","","","","","",""
"","","","","","html-keyboard-response","21","98045","0.0-5.0-1.0-1.0-0.0-0.0-0.0-0.0-0.5","null","fixation","null","<p style='font-size: 48px; color: white'>+</p >","","","","","","","","","","","","","","","","","","","","","","","","","","","","","","","","","","","","","","","","","","","","","","",""
"","","","","","rdk","22","99105","0.0-5.0-1.0-1.0-0.0-0.0-0.0-0.0-1.5","555","color_test","k","","true","[""d"",""k""]","k","3000","true","1","100","0","0","0","5.7","1","-1","3","550","550","[""hsl(0, 50%, 50%)"",""hsl(225, 50%, 50%)""]","[""hsl(225, 50%, 50%)"",""hsl(0, 50%, 50%)""]","6","0.64","0","circle","black","3","2","2","16.393939393939394","[5,17,17,17,16,17,16,17,17,16,17,17,16,17,17,16,17,17,16,17,17,16,17,17,17,16,17,17,17,17,17,17,17]","33","965","360","false","20","20","black","1","false","1","1","1820","630","k","staircase_color","","","",""
"","","","","","html-keyboard-response","23","100111","0.0-5.0-1.0-1.0-0.0-0.0-0.0-0.0-2.5","null","","null","<p style='font-size: 60px; color: green'>正确!</p>","","","","","","","","","","","","","","","","","","","","","","","","","","","","","","","","","","","","","","","","","","","","","","",""
"","","","","","html-keyboard-response","24","101131","0.0-5.0-1.0-1.0-0.0-0.0-0.0-0.0-0.6","null","fixation","null","<p style='font-size: 48px; color: white'>+</p >","","","","","","","","","","","","","","","","","","","","","","","","","","","","","","","","","","","","","","","","","","","","","","",""
"","","","","","rdk","25","102321","0.0-5.0-1.0-1.0-0.0-0.0-0.0-0.0-1.6","686","color_test","d","","true","[""d"",""k""]","d","3000","true","1","100","0","0","0","5.7","1","-1","3","550","550","[""hsl(0, 50%, 50%)"",""hsl(225, 50%, 50%)""]","[""hsl(0, 50%, 50%)"",""hsl(225, 50%, 50%)""]","6","0.64","0","circle","black","3","2","2","16.51219512195122","[4,17,17,17,17,17,17,17,17,17,17,17,17,17,17,17,16,17,16,17,17,17,17,16,17,16,17,17,17,17,17,17,16,17,17,16,17,17,16,17,17]","41","965","360","false","20","20","black","1","false","1","1","1820","630","d","staircase_color","","","",""
"","","","","","html-keyboard-response","26","103328","0.0-5.0-1.0-1.0-0.0-0.0-0.0-0.0-2.6","null","","null","<p style='font-size: 60px; color: green'>正确!</p>","","","","","","","","","","","","","","","","","","","","","","","","","","","","","","","","","","","","","","","","","","","","","","",""
"","","","","","html-keyboard-response","27","104345","0.0-5.0-1.0-1.0-0.0-0.0-0.0-0.0-0.7","null","fixation","null","<p style='font-size: 48px; color: white'>+</p >","","","","","","","","","","","","","","","","","","","","","","","","","","","","","","","","","","","","","","","","","","","","","","",""
"","","","","","rdk","28","105617","0.0-5.0-1.0-1.0-0.0-0.0-0.0-0.0-1.7","762","color_test","k","","true","[""d"",""k""]","k","3000","true","1","100","0","0","0","5.7","1","-1","3","550","550","[""hsl(0, 50%, 50%)"",""hsl(225, 50%, 50%)""]","[""hsl(225, 50%, 50%)"",""hsl(0, 50%, 50%)""]","6","0.64","0","circle","black","3","2","2","16.844444444444445","[18,16,17,17,17,17,17,17,17,17,16,17,17,17,17,16,17,16,17,17,17,17,17,17,17,17,17,17,16,17,16,17,18,16,17,17,17,16,17,17,17,17,17,16,17]","45","965","360","false","20","20","black","1","false","1","1","1820","630","k","staircase_color","","","",""
"","","","","","html-keyboard-response","29","106627","0.0-5.0-1.0-1.0-0.0-0.0-0.0-0.0-2.7","null","","null","<p style='font-size: 60px; color: green'>正确!</p>","","","","","","","","","","","","","","","","","","","","","","","","","","","","","","","","","","","","","","","","","","","","","","",""
"","","","","","html-keyboard-response","30","107646","0.0-5.0-1.0-1.0-0.0-0.0-0.0-0.0-0.8","null","fixation","null","<p style='font-size: 48px; color: white'>+</p >","","","","","","","","","","","","","","","","","","","","","","","","","","","","","","","","","","","","","","","","","","","","","","",""
"","","","","","rdk","31","108769","0.0-5.0-1.0-1.0-0.0-0.0-0.0-0.0-1.8","617","color_test","d","","true","[""d"",""k""]","d","3000","true","1","100","0","0","0","5.7","1","-1","3","550","550","[""hsl(0, 50%, 50%)"",""hsl(225, 50%, 50%)""]","[""hsl(0, 50%, 50%)"",""hsl(225, 50%, 50%)""]","6","0.64","0","circle","black","3","2","2","16.513513513513512","[4,17,17,17,17,17,17,17,17,17,17,17,17,16,17,17,17,16,17,16,17,17,17,17,17,17,17,17,17,16,17,17,17,17,16,17,17]","37","965","360","false","20","20","black","1","false","1","1","1820","630","d","staircase_color","","","",""
"","","","","","html-keyboard-response","32","109780","0.0-5.0-1.0-1.0-0.0-0.0-0.0-0.0-2.8","null","","null","<p style='font-size: 60px; color: green'>正确!</p>","","","","","","","","","","","","","","","","","","","","","","","","","","","","","","","","","","","","","","","","","","","","","","",""
"","","","","","html-keyboard-response","33","110798","0.0-5.0-1.0-1.0-0.0-0.0-0.0-0.0-0.9","null","fixation","null","<p style='font-size: 48px; color: white'>+</p >","","","","","","","","","","","","","","","","","","","","","","","","","","","","","","","","","","","","","","","","","","","","","","",""
"","","","","","rdk","34","112081","0.0-5.0-1.0-1.0-0.0-0.0-0.0-0.0-1.9","781","color_test","d","","true","[""d"",""k""]","d","3000","true","1","100","0","0","0","5.7","1","-1","3","550","550","[""hsl(0, 50%, 50%)"",""hsl(225, 50%, 50%)""]","[""hsl(0, 50%, 50%)"",""hsl(225, 50%, 50%)""]","6","0.64","0","circle","black","3","2","2","16.574468085106382","[6,17,17,16,17,17,17,17,16,17,17,16,17,17,17,16,17,17,16,17,17,17,17,17,17,17,17,17,17,16,17,17,17,16,17,16,17,17,17,17,17,17,17,17,16,17,17]","47","965","360","false","20","20","black","1","false","1","1","1820","630","d","staircase_color","","","",""
"","","","","","html-keyboard-response","35","113093","0.0-5.0-1.0-1.0-0.0-0.0-0.0-0.0-2.9","null","","null","<p style='font-size: 60px; color: green'>正确!</p>","","","","","","","","","","","","","","","","","","","","","","","","","","","","","","","","","","","","","","","","","","","","","","",""
"","","","","","html-keyboard-response","36","114111","0.0-5.0-1.0-1.0-0.0-0.0-0.0-0.0-0.10","null","fixation","null","<p style='font-size: 48px; color: white'>+</p >","","","","","","","","","","","","","","","","","","","","","","","","","","","","","","","","","","","","","","","","","","","","","","",""
"","","","","","rdk","37","115393","0.0-5.0-1.0-1.0-0.0-0.0-0.0-0.0-1.10","766","color_test","k","","true","[""d"",""k""]","k","3000","true","1","100","0","0","0","5.7","1","-1","3","550","550","[""hsl(0, 50%, 50%)"",""hsl(225, 50%, 50%)""]","[""hsl(225, 50%, 50%)"",""hsl(0, 50%, 50%)""]","6","0.64","0","circle","black","3","2","2","16.76086956521739","[12,17,17,16,17,17,17,16,17,16,17,17,17,17,16,17,17,17,17,17,17,17,17,17,17,17,17,17,17,17,17,17,17,17,17,17,16,17,17,17,17,17,16,17,17,17]","46","965","360","false","20","20","black","1","false","1","1","1820","630","k","staircase_color","","","",""
"","","","","","html-keyboard-response","38","116395","0.0-5.0-1.0-1.0-0.0-0.0-0.0-0.0-2.10","null","","null","<p style='font-size: 60px; color: green'>正确!</p>","","","","","","","","","","","","","","","","","","","","","","","","","","","","","","","","","","","","","","","","","","","","","","",""
"","","","","","html-keyboard-response","39","117419","0.0-5.0-1.0-1.0-0.0-0.0-0.0-0.0-0.11","null","fixation","null","<p style='font-size: 48px; color: white'>+</p >","","","","","","","","","","","","","","","","","","","","","","","","","","","","","","","","","","","","","","","","","","","","","","",""
"","","","","","rdk","40","118737","0.0-5.0-1.0-1.0-0.0-0.0-0.0-0.0-1.11","812","color_test","k","","true","[""d"",""k""]","k","3000","true","1","100","0","0","0","5.7","1","-1","3","550","550","[""hsl(0, 50%, 50%)"",""hsl(225, 50%, 50%)""]","[""hsl(225, 50%, 50%)"",""hsl(0, 50%, 50%)""]","6","0.64","0","circle","black","3","2","2","16.875","[14,17,17,17,17,17,17,17,17,17,17,17,17,17,17,17,17,17,17,17,17,16,17,17,17,17,17,17,17,17,17,17,17,17,17,17,17,17,17,17,16,17,17,17,16,17,17,17]","48","965","360","false","20","20","black","1","false","1","1","1820","630","k","staircase_color","","","",""
"","","","","","html-keyboard-response","41","119761","0.0-5.0-1.0-1.0-0.0-0.0-0.0-0.0-2.11","null","","null","<p style='font-size: 60px; color: green'>正确!</p>","","","","","","","","","","","","","","","","","","","","","","","","","","","","","","","","","","","","","","","","","","","","","","",""
"","","","","","html-keyboard-response","42","122161","0.0-5.0-1.0-1.0-0.0-0.0-0.0-1.0","1891",""," ","<p style='font-size: 35px; color: white'>您的正确率为： 83% 。平均反应时为：788毫秒。</p>","","","","","","","","","","","","","","","","","","","","","","","","","","","","","","","","","","","","","","","","","","","","","","",""
"","","","","","html-keyboard-response","43","123163","0.0-5.0-1.0-1.0-0.0-0.1-0.1-0.1-0.12","null","fixation","null","<p style='font-size: 48px; color: white'>+</p >","","","","","","","","","","","","","","","","","","","","","","","","","","","","","","","","","","","","","","","","","","","","","","",""
"","","","","","rdk","44","124337","0.0-5.0-1.0-1.0-0.0-0.1-0.1-0.1-1.12","673","color_test","d","","true","[""d"",""k""]","d","3000","true","1","100","0","0","0","5.7","1","-1","3","550","550","[""hsl(0, 50%, 50%)"",""hsl(225, 50%, 50%)""]","[""hsl(0, 50%, 50%)"",""hsl(225, 50%, 50%)""]","6","0.59","0","circle","black","3","2","2","16.65","[9,17,17,17,17,17,17,17,17,16,17,17,17,17,17,16,17,17,16,17,17,17,16,17,17,17,17,16,17,17,17,17,17,17,17,17,17,16,17,17]","40","965","360","false","20","20","black","1","false","1","1","1820","630","d","staircase_color","","","",""
"","","","","","html-keyboard-response","45","125362","0.0-5.0-1.0-1.0-0.0-0.1-0.1-0.1-2.12","null","","null","<p style='font-size: 60px; color: green'>正确!</p>","","","","","","","","","","","","","","","","","","","","","","","","","","","","","","","","","","","","","","","","","","","","","","",""
"","","","","","html-keyboard-response","46","126380","0.0-5.0-1.0-1.0-0.0-0.1-0.1-0.1-0.13","null","fixation","null","<p style='font-size: 48px; color: white'>+</p >","","","","","","","","","","","","","","","","","","","","","","","","","","","","","","","","","","","","","","","","","","","","","","",""
"","","","","","rdk","47","127473","0.0-5.0-1.0-1.0-0.0-0.1-0.1-0.1-1.13","587","color_test","k","","true","[""d"",""k""]","k","3000","true","1","100","0","0","0","5.7","1","-1","3","550","550","[""hsl(0, 50%, 50%)"",""hsl(225, 50%, 50%)""]","[""hsl(225, 50%, 50%)"",""hsl(0, 50%, 50%)""]","6","0.59","0","circle","black","3","2","2","16.457142857142856","[3,17,17,17,16,17,16,17,17,17,17,17,17,17,17,16,17,17,17,17,17,17,17,17,17,17,16,18,16,17,17,17,17,16,17]","35","965","360","false","20","20","black","1","false","1","1","1820","630","k","staircase_color","","","",""
"","","","","","html-keyboard-response","48","128493","0.0-5.0-1.0-1.0-0.0-0.1-0.1-0.1-2.13","null","","null","<p style='font-size: 60px; color: green'>正确!</p>","","","","","","","","","","","","","","","","","","","","","","","","","","","","","","","","","","","","","","","","","","","","","","",""
"","","","","","html-keyboard-response","49","129510","0.0-5.0-1.0-1.0-0.0-0.1-0.1-0.1-0.14","null","fixation","null","<p style='font-size: 48px; color: white'>+</p >","","","","","","","","","","","","","","","","","","","","","","","","","","","","","","","","","","","","","","","","","","","","","","",""
"","","","","","rdk","50","130577","0.0-5.0-1.0-1.0-0.0-0.1-0.1-0.1-1.14","554","color_test","d","","true","[""d"",""k""]","d","3000","true","1","100","0","0","0","5.7","1","-1","3","550","550","[""hsl(0, 50%, 50%)"",""hsl(225, 50%, 50%)""]","[""hsl(0, 50%, 50%)"",""hsl(225, 50%, 50%)""]","6","0.59","0","circle","black","3","2","2","16.87878787878788","[16,17,17,17,16,17,17,17,17,17,17,17,17,17,17,17,17,17,17,16,17,17,17,16,17,17,17,17,17,17,17,17,17]","33","965","360","false","20","20","black","1","false","1","1","1820","630","d","staircase_color","","","",""
"","","","","","html-keyboard-response","51","131593","0.0-5.0-1.0-1.0-0.0-0.1-0.1-0.1-2.14","null","","null","<p style='font-size: 60px; color: green'>正确!</p>","","","","","","","","","","","","","","","","","","","","","","","","","","","","","","","","","","","","","","","","","","","","","","",""
"","","","","","html-keyboard-response","52","132611","0.0-5.0-1.0-1.0-0.0-0.1-0.1-0.1-0.15","null","fixation","null","<p style='font-size: 48px; color: white'>+</p >","","","","","","","","","","","","","","","","","","","","","","","","","","","","","","","","","","","","","","","","","","","","","","",""
"","","","","","rdk","53","133858","0.0-5.0-1.0-1.0-0.0-0.1-0.1-0.1-1.15","733","color_test","d","","false","[""d"",""k""]","k","3000","true","1","100","0","0","0","5.7","1","-1","3","550","550","[""hsl(0, 50%, 50%)"",""hsl(225, 50%, 50%)""]","[""hsl(225, 50%, 50%)"",""hsl(0, 50%, 50%)""]","6","0.59","0","circle","black","3","2","2","16.795454545454547","[14,17,17,16,17,17,17,17,17,17,17,16,17,17,17,17,17,17,17,17,17,17,17,16,17,17,17,17,16,17,17,17,16,17,17,17,16,17,17,17,17,17,17,17]","44","965","360","false","20","20","black","1","false","1","1","1820","630","k","staircase_color","","","",""
"","","","","","html-keyboard-response","54","134878","0.0-5.0-1.0-1.0-0.0-0.1-0.1-0.1-2.15","null","","null","<p style='font-size: 60px; color: red'>错误!</p>","","","","","","","","","","","","","","","","","","","","","","","","","","","","","","","","","","","","","","","","","","","","","","",""
"","","","","","html-keyboard-response","55","135898","0.0-5.0-1.0-1.0-0.0-0.1-0.1-0.1-0.16","null","fixation","null","<p style='font-size: 48px; color: white'>+</p >","","","","","","","","","","","","","","","","","","","","","","","","","","","","","","","","","","","","","","","","","","","","","","",""
"","","","","","rdk","56","137233","0.0-5.0-1.0-1.0-0.0-0.1-0.1-0.1-1.16","821","color_test","d","","false","[""d"",""k""]","k","3000","true","1","100","0","0","0","5.7","1","-1","3","550","550","[""hsl(0, 50%, 50%)"",""hsl(225, 50%, 50%)""]","[""hsl(225, 50%, 50%)"",""hsl(0, 50%, 50%)""]","6","0.59","0","circle","black","3","2","2","16.714285714285715","[10,17,16,17,17,17,17,17,17,17,17,17,16,17,17,17,17,17,17,17,17,17,17,17,17,17,16,17,16,17,17,17,17,17,17,16,17,17,17,17,16,17,17,17,17,17,17,17,16]","49","965","360","false","20","20","black","1","false","1","1","1820","630","k","staircase_color","","","",""
"","","","","","html-keyboard-response","57","138260","0.0-5.0-1.0-1.0-0.0-0.1-0.1-0.1-2.16","null","","null","<p style='font-size: 60px; color: red'>错误!</p>","","","","","","","","","","","","","","","","","","","","","","","","","","","","","","","","","","","","","","","","","","","","","","",""
"","","","","","html-keyboard-response","58","139272","0.0-5.0-1.0-1.0-0.0-0.1-0.1-0.1-0.17","null","fixation","null","<p style='font-size: 48px; color: white'>+</p >","","","","","","","","","","","","","","","","","","","","","","","","","","","","","","","","","","","","","","","","","","","","","","",""
"","","","","","rdk","59","140497","0.0-5.0-1.0-1.0-0.0-0.1-0.1-0.1-1.17","710","color_test","d","","true","[""d"",""k""]","d","3000","true","1","100","0","0","0","5.7","1","-1","3","550","550","[""hsl(0, 50%, 50%)"",""hsl(225, 50%, 50%)""]","[""hsl(0, 50%, 50%)"",""hsl(225, 50%, 50%)""]","6","0.59","0","circle","black","3","2","2","16.488372093023255","[3,17,17,17,16,17,16,17,17,16,17,17,17,17,17,17,17,17,16,17,17,17,17,17,16,17,17,17,16,17,16,17,17,17,17,17,17,17,17,17,17,16,17]","43","965","360","false","20","20","black","1","false","1","1","1820","630","d","staircase_color","","","",""
"","","","","","html-keyboard-response","60","141510","0.0-5.0-1.0-1.0-0.0-0.1-0.1-0.1-2.17","null","","null","<p style='font-size: 60px; color: green'>正确!</p>","","","","","","","","","","","","","","","","","","","","","","","","","","","","","","","","","","","","","","","","","","","","","","",""
"","","","","","html-keyboard-response","61","142527","0.0-5.0-1.0-1.0-0.0-0.1-0.1-0.1-0.18","null","fixation","null","<p style='font-size: 48px; color: white'>+</p >","","","","","","","","","","","","","","","","","","","","","","","","","","","","","","","","","","","","","","","","","","","","","","",""
"","","","","","rdk","62","144017","0.0-5.0-1.0-1.0-0.0-0.1-0.1-0.1-1.18","989","color_test","d","","false","[""d"",""k""]","k","3000","true","1","100","0","0","0","5.7","1","-1","3","550","550","[""hsl(0, 50%, 50%)"",""hsl(225, 50%, 50%)""]","[""hsl(225, 50%, 50%)"",""hsl(0, 50%, 50%)""]","6","0.59","0","circle","black","3","2","2","16.8135593220339","[11,17,17,17,16,17,17,17,17,17,17,17,17,17,17,17,17,17,17,16,17,17,17,17,17,17,17,17,17,17,17,17,17,16,17,17,17,17,17,17,17,17,17,16,17,17,17,17,17,17,17,17,17,17,16,17,17,17,17]","59","965","360","false","20","20","black","1","false","1","1","1820","630","k","staircase_color","","","",""
"","","","","","html-keyboard-response","63","145043","0.0-5.0-1.0-1.0-0.0-0.1-0.1-0.1-2.18","null","","null","<p style='font-size: 60px; color: red'>错误!</p>","","","","","","","","","","","","","","","","","","","","","","","","","","","","","","","","","","","","","","","","","","","","","","",""
"","","","","","html-keyboard-response","64","146044","0.0-5.0-1.0-1.0-0.0-0.1-0.1-0.1-0.19","null","fixation","null","<p style='font-size: 48px; color: white'>+</p >","","","","","","","","","","","","","","","","","","","","","","","","","","","","","","","","","","","","","","","","","","","","","","",""
"","","","","","rdk","65","147313","0.0-5.0-1.0-1.0-0.0-0.1-0.1-0.1-1.19","753","color_test","d","","true","[""d"",""k""]","d","3000","true","1","100","0","0","0","5.7","1","-1","3","550","550","[""hsl(0, 50%, 50%)"",""hsl(225, 50%, 50%)""]","[""hsl(0, 50%, 50%)"",""hsl(225, 50%, 50%)""]","6","0.59","0","circle","black","3","2","2","16.822222222222223","[12,17,17,17,16,17,17,17,17,17,17,17,17,17,17,17,17,16,17,17,17,17,17,17,17,16,17,17,17,17,17,17,17,17,17,17,17,17,17,17,17,17,17,17,17]","45","965","360","false","20","20","black","1","false","1","1","1820","630","d","staircase_color","","","",""
"","","","","","html-keyboard-response","66","148343","0.0-5.0-1.0-1.0-0.0-0.1-0.1-0.1-2.19","null","","null","<p style='font-size: 60px; color: green'>正确!</p>","","","","","","","","","","","","","","","","","","","","","","","","","","","","","","","","","","","","","","","","","","","","","","",""
"","","","","","html-keyboard-response","67","149360","0.0-5.0-1.0-1.0-0.0-0.1-0.1-0.1-0.20","null","fixation","null","<p style='font-size: 48px; color: white'>+</p >","","","","","","","","","","","","","","","","","","","","","","","","","","","","","","","","","","","","","","","","","","","","","","",""
"","","","","","rdk","68","150465","0.0-5.0-1.0-1.0-0.0-0.1-0.1-0.1-1.20","603","color_test","k","","true","[""d"",""k""]","k","3000","true","1","100","0","0","0","5.7","1","-1","3","550","550","[""hsl(0, 50%, 50%)"",""hsl(225, 50%, 50%)""]","[""hsl(225, 50%, 50%)"",""hsl(0, 50%, 50%)""]","6","0.59","0","circle","black","3","2","2","16.75","[11,17,17,17,17,17,17,17,17,17,16,17,17,17,16,17,17,17,17,17,17,17,17,17,17,17,17,17,17,17,17,16,17,17,17,17]","36","965","360","false","20","20","black","1","false","1","1","1820","630","k","staircase_color","","","",""
"","","","","","html-keyboard-response","69","151478","0.0-5.0-1.0-1.0-0.0-0.1-0.1-0.1-2.20","null","","null","<p style='font-size: 60px; color: green'>正确!</p>","","","","","","","","","","","","","","","","","","","","","","","","","","","","","","","","","","","","","","","","","","","","","","",""
"","","","","","html-keyboard-response","70","152494","0.0-5.0-1.0-1.0-0.0-0.1-0.1-0.1-0.21","null","fixation","null","<p style='font-size: 48px; color: white'>+</p >","","","","","","","","","","","","","","","","","","","","","","","","","","","","","","","","","","","","","","","","","","","","","","",""
"","","","","","rdk","71","153873","0.0-5.0-1.0-1.0-0.0-0.1-0.1-0.1-1.21","878","color_test","k","","true","[""d"",""k""]","k","3000","true","1","100","0","0","0","5.7","1","-1","3","550","550","[""hsl(0, 50%, 50%)"",""hsl(225, 50%, 50%)""]","[""hsl(225, 50%, 50%)"",""hsl(0, 50%, 50%)""]","6","0.59","0","circle","black","3","2","2","16.865384615384617","[11,17,17,17,17,17,16,17,17,17,17,17,17,17,17,17,17,17,17,17,17,17,17,17,17,17,17,17,17,17,17,17,17,17,17,17,17,17,17,17,17,17,17,17,17,17,17,17,17,17,17,17]","52","965","360","false","20","20","black","1","false","1","1","1820","630","k","staircase_color","","","",""
"","","","","","html-keyboard-response","72","154893","0.0-5.0-1.0-1.0-0.0-0.1-0.1-0.1-2.21","null","","null","<p style='font-size: 60px; color: green'>正确!</p>","","","","","","","","","","","","","","","","","","","","","","","","","","","","","","","","","","","","","","","","","","","","","","",""
"","","","","","html-keyboard-response","73","155895","0.0-5.0-1.0-1.0-0.0-0.1-0.1-0.1-0.22","null","fixation","null","<p style='font-size: 48px; color: white'>+</p >","","","","","","","","","","","","","","","","","","","","","","","","","","","","","","","","","","","","","","","","","","","","","","",""
"","","","","","rdk","74","157025","0.0-5.0-1.0-1.0-0.0-0.1-0.1-0.1-1.22","614","color_test","d","","true","[""d"",""k""]","d","3000","true","1","100","0","0","0","5.7","1","-1","3","550","550","[""hsl(0, 50%, 50%)"",""hsl(225, 50%, 50%)""]","[""hsl(0, 50%, 50%)"",""hsl(225, 50%, 50%)""]","6","0.59","0","circle","black","3","2","2","16.83783783783784","[12,17,17,17,17,16,17,17,17,17,17,17,17,17,17,17,17,17,17,17,17,17,17,17,17,17,17,17,17,17,17,17,17,17,17,18,16]","37","965","360","false","20","20","black","1","false","1","1","1820","630","d","staircase_color","","","",""
"","","","","","html-keyboard-response","75","158044","0.0-5.0-1.0-1.0-0.0-0.1-0.1-0.1-2.22","null","","null","<p style='font-size: 60px; color: green'>正确!</p>","","","","","","","","","","","","","","","","","","","","","","","","","","","","","","","","","","","","","","","","","","","","","","",""
"","","","","","html-keyboard-response","76","159045","0.0-5.0-1.0-1.0-0.0-0.1-0.1-0.1-0.23","null","fixation","null","<p style='font-size: 48px; color: white'>+</p >","","","","","","","","","","","","","","","","","","","","","","","","","","","","","","","","","","","","","","","","","","","","","","",""
"","","","","","rdk","77","160369","0.0-5.0-1.0-1.0-0.0-0.1-0.1-0.1-1.23","823","color_test","d","","true","[""d"",""k""]","d","3000","true","1","100","0","0","0","5.7","1","-1","3","550","550","[""hsl(0, 50%, 50%)"",""hsl(225, 50%, 50%)""]","[""hsl(0, 50%, 50%)"",""hsl(225, 50%, 50%)""]","6","0.59","0","circle","black","3","2","2","16.653061224489797","[10,17,17,17,17,17,17,16,17,17,17,17,17,17,16,17,17,17,17,17,16,17,16,17,17,17,17,16,17,17,17,17,17,17,16,17,16,17,16,17,17,16,17,17,17,17,17,17,16]","49","965","360","false","20","20","black","1","false","1","1","1820","630","d","staircase_color","","","",""
"","","","","","html-keyboard-response","78","161378","0.0-5.0-1.0-1.0-0.0-0.1-0.1-0.1-2.23","null","","null","<p style='font-size: 60px; color: green'>正确!</p>","","","","","","","","","","","","","","","","","","","","","","","","","","","","","","","","","","","","","","","","","","","","","","",""
"","","","","","html-keyboard-response","79","163393","0.0-5.0-1.0-1.0-0.0-0.1-0.1-1.1","1500",""," ","<p style='font-size: 35px; color: white'>您的正确率为： 75% 。平均反应时为：728毫秒。</p>","","","","","","","","","","","","","","","","","","","","","","","","","","","","","","","","","","","","","","","","","","","","","","",""
"","","","","","html-keyboard-response","80","164410","0.0-5.0-1.0-1.0-0.0-1.0-0.0-0.0-0.0","null","fixation","null","<p style='font-size: 48px; color: white'>+</p >","","","","","","","","","","","","","","","","","","","","","","","","","","","","","","","","","","","","","","","","","","","","","","",""
"","","","","","rdk","81","165969","0.0-5.0-1.0-1.0-0.0-1.0-0.0-0.0-1.0","1057","color_test","k","","true","[""d"",""k""]","k","3000","true","1","100","0","0","0","5.7","1","-1","3","550","550","[""hsl(0, 50%, 50%)"",""hsl(225, 50%, 50%)""]","[""hsl(225, 50%, 50%)"",""hsl(0, 50%, 50%)""]","6","0.59","0","circle","black","3","2","2","16.746031746031747","[11,17,17,16,17,17,17,17,16,17,17,17,17,16,17,16,17,17,17,16,17,16,17,17,17,17,17,17,17,17,17,17,17,17,16,17,16,17,17,17,17,17,17,17,17,17,17,17,17,17,17,16,17,17,17,17,17,17,17,17,16,17,17]","63","965","360","false","20","20","black","1","false","1","1","1820","630","k","staircase_color","","","",""
"","","","","","html-keyboard-response","82","166994","0.0-5.0-1.0-1.0-0.0-1.0-0.0-0.0-2.0","null","","null","<p style='font-size: 60px; color: green'>正确!</p>","","","","","","","","","","","","","","","","","","","","","","","","","","","","","","","","","","","","","","","","","","","","","","",""
"","","","","","html-keyboard-response","83","167999","0.0-5.0-1.0-1.0-0.0-1.0-0.0-0.0-0.1","null","fixation","null","<p style='font-size: 48px; color: white'>+</p >","","","","","","","","","","","","","","","","","","","","","","","","","","","","","","","","","","","","","","","","","","","","","","",""
"","","","","","rdk","84","169297","0.0-5.0-1.0-1.0-0.0-1.0-0.0-0.0-1.1","786","color_test","k","","true","[""d"",""k""]","k","3000","true","1","100","0","0","0","5.7","1","-1","3","550","550","[""hsl(0, 50%, 50%)"",""hsl(225, 50%, 50%)""]","[""hsl(225, 50%, 50%)"",""hsl(0, 50%, 50%)""]","6","0.59","0","circle","black","3","2","2","16.638297872340427","[12,17,16,17,16,17,16,17,16,17,16,17,17,17,17,16,17,17,17,16,17,16,17,16,17,17,17,16,17,17,17,17,17,16,17,17,16,17,17,17,17,17,17,17,17,17,17]","47","965","360","false","20","20","black","1","false","1","1","1820","630","k","staircase_color","","","",""
"","","","","","html-keyboard-response","85","170312","0.0-5.0-1.0-1.0-0.0-1.0-0.0-0.0-2.1","null","","null","<p style='font-size: 60px; color: green'>正确!</p>","","","","","","","","","","","","","","","","","","","","","","","","","","","","","","","","","","","","","","","","","","","","","","",""
"","","","","","html-keyboard-response","86","171328","0.0-5.0-1.0-1.0-0.0-1.0-0.0-0.0-0.2","null","fixation","null","<p style='font-size: 48px; color: white'>+</p >","","","","","","","","","","","","","","","","","","","","","","","","","","","","","","","","","","","","","","","","","","","","","","",""
"","","","","","rdk","87","172577","0.0-5.0-1.0-1.0-0.0-1.0-0.0-0.0-1.2","733","color_test","d","","true","[""d"",""k""]","d","3000","true","1","100","0","0","0","5.7","1","-1","3","550","550","[""hsl(0, 50%, 50%)"",""hsl(225, 50%, 50%)""]","[""hsl(0, 50%, 50%)"",""hsl(225, 50%, 50%)""]","6","0.59","0","circle","black","3","2","2","16.727272727272727","[12,17,16,17,17,17,17,17,17,17,16,17,16,17,17,17,17,17,17,16,17,17,16,17,17,17,17,17,17,17,17,16,17,17,17,17,17,17,16,17,17,17,17,17]","44","965","360","false","20","20","black","1","false","1","1","1820","630","d","staircase_color","","","",""
"","","","","","html-keyboard-response","88","173594","0.0-5.0-1.0-1.0-0.0-1.0-0.0-0.0-2.2","null","","null","<p style='font-size: 60px; color: green'>正确!</p>","","","","","","","","","","","","","","","","","","","","","","","","","","","","","","","","","","","","","","","","","","","","","","",""
"","","","","","html-keyboard-response","89","174611","0.0-5.0-1.0-1.0-0.0-1.0-0.0-0.0-0.3","null","fixation","null","<p style='font-size: 48px; color: white'>+</p >","","","","","","","","","","","","","","","","","","","","","","","","","","","","","","","","","","","","","","","","","","","","","","",""
"","","","","","rdk","90","175777","0.0-5.0-1.0-1.0-0.0-1.0-0.0-0.0-1.3","650","color_test","d","","true","[""d"",""k""]","d","3000","true","1","100","0","0","0","5.7","1","-1","3","550","550","[""hsl(0, 50%, 50%)"",""hsl(225, 50%, 50%)""]","[""hsl(0, 50%, 50%)"",""hsl(225, 50%, 50%)""]","6","0.59","0","circle","black","3","2","2","16.641025641025642","[13,17,17,17,17,17,17,16,17,17,16,17,16,17,16,17,17,16,17,17,16,17,17,16,17,16,17,17,17,16,17,17,17,17,17,17,17,17,16]","39","965","360","false","20","20","black","1","false","1","1","1820","630","d","staircase_color","","","",""
"","","","","","html-keyboard-response","91","176794","0.0-5.0-1.0-1.0-0.0-1.0-0.0-0.0-2.3","null","","null","<p style='font-size: 60px; color: green'>正确!</p>","","","","","","","","","","","","","","","","","","","","","","","","","","","","","","","","","","","","","","","","","","","","","","",""
"","","","","","html-keyboard-response","92","177810","0.0-5.0-1.0-1.0-0.0-1.0-0.0-0.0-0.4","null","fixation","null","<p style='font-size: 48px; color: white'>+</p >","","","","","","","","","","","","","","","","","","","","","","","","","","","","","","","","","","","","","","","","","","","","","","",""
"","","","","","rdk","93","179089","0.0-5.0-1.0-1.0-0.0-1.0-0.0-0.0-1.4","778","color_test","d","","false","[""d"",""k""]","k","3000","true","1","100","0","0","0","5.7","1","-1","3","550","550","[""hsl(0, 50%, 50%)"",""hsl(225, 50%, 50%)""]","[""hsl(225, 50%, 50%)"",""hsl(0, 50%, 50%)""]","6","0.59","0","circle","black","3","2","2","16.73913043478261","[12,17,17,17,16,17,16,17,16,17,17,17,17,17,17,17,17,17,16,17,17,17,17,17,17,17,17,17,17,17,17,17,16,17,17,17,17,17,17,17,17,16,17,16,17,17]","46","965","360","false","20","20","black","1","false","1","1","1820","630","k","staircase_color","","","",""
"","","","","","html-keyboard-response","94","180110","0.0-5.0-1.0-1.0-0.0-1.0-0.0-0.0-2.4","null","","null","<p style='font-size: 60px; color: red'>错误!</p>","","","","","","","","","","","","","","","","","","","","","","","","","","","","","","","","","","","","","","","","","","","","","","",""
"","","","","","html-keyboard-response","95","181127","0.0-5.0-1.0-1.0-0.0-1.0-0.0-0.0-0.5","null","fixation","null","<p style='font-size: 48px; color: white'>+</p >","","","","","","","","","","","","","","","","","","","","","","","","","","","","","","","","","","","","","","","","","","","","","","",""
"","","","","","rdk","96","182449","0.0-5.0-1.0-1.0-0.0-1.0-0.0-0.0-1.5","821","color_test","d","","true","[""d"",""k""]","d","3000","true","1","100","0","0","0","5.7","1","-1","3","550","550","[""hsl(0, 50%, 50%)"",""hsl(225, 50%, 50%)""]","[""hsl(0, 50%, 50%)"",""hsl(225, 50%, 50%)""]","6","0.59","0","circle","black","3","2","2","16.73469387755102","[11,17,17,17,17,17,17,17,17,17,17,17,17,17,17,17,17,17,17,17,17,17,17,17,17,17,17,17,17,17,17,16,17,17,17,16,17,17,17,17,16,17,16,17,16,17,16,17,16]","49","965","360","false","20","20","black","1","false","1","1","1820","630","d","staircase_color","","","",""
"","","","","","html-keyboard-response","97","183462","0.0-5.0-1.0-1.0-0.0-1.0-0.0-0.0-2.5","null","","null","<p style='font-size: 60px; color: green'>正确!</p>","","","","","","","","","","","","","","","","","","","","","","","","","","","","","","","","","","","","","","","","","","","","","","",""
"","","","","","html-keyboard-response","98","184478","0.0-5.0-1.0-1.0-0.0-1.0-0.0-0.0-0.6","null","fixation","null","<p style='font-size: 48px; color: white'>+</p >","","","","","","","","","","","","","","","","","","","","","","","","","","","","","","","","","","","","","","","","","","","","","","",""
"","","","","","rdk","99","185793","0.0-5.0-1.0-1.0-0.0-1.0-0.0-0.0-1.6","799","color_test","k","","true","[""d"",""k""]","k","3000","true","1","100","0","0","0","5.7","1","-1","3","550","550","[""hsl(0, 50%, 50%)"",""hsl(225, 50%, 50%)""]","[""hsl(225, 50%, 50%)"",""hsl(0, 50%, 50%)""]","6","0.59","0","circle","black","3","2","2","16.708333333333332","[12,17,17,16,17,16,17,16,17,16,17,17,17,17,16,17,17,17,17,17,17,17,17,17,17,16,17,17,17,17,17,17,17,17,16,17,17,17,16,17,17,16,17,17,17,17,17,17]","48","965","360","false","20","20","black","1","false","1","1","1820","630","k","staircase_color","","","",""
"","","","","","html-keyboard-response","100","186810","0.0-5.0-1.0-1.0-0.0-1.0-0.0-0.0-2.6","null","","null","<p style='font-size: 60px; color: green'>正确!</p>","","","","","","","","","","","","","","","","","","","","","","","","","","","","","","","","","","","","","","","","","","","","","","",""
"","","","","","html-keyboard-response","101","187827","0.0-5.0-1.0-1.0-0.0-1.0-0.0-0.0-0.7","null","fixation","null","<p style='font-size: 48px; color: white'>+</p >","","","","","","","","","","","","","","","","","","","","","","","","","","","","","","","","","","","","","","","","","","","","","","",""
"","","","","","rdk","102","189361","0.0-5.0-1.0-1.0-0.0-1.0-0.0-0.0-1.7","1033","color_test","k","","false","[""d"",""k""]","d","3000","true","1","100","0","0","0","5.7","1","-1","3","550","550","[""hsl(0, 50%, 50%)"",""hsl(225, 50%, 50%)""]","[""hsl(0, 50%, 50%)"",""hsl(225, 50%, 50%)""]","6","0.59","0","circle","black","3","2","2","16.70967741935484","[11,17,16,17,17,17,17,17,17,17,17,16,17,17,17,17,16,17,16,17,16,17,17,17,17,16,17,17,17,16,17,17,17,17,17,16,17,17,17,17,16,17,17,16,17,16,17,17,17,17,16,17,17,17,17,17,17,17,17,17,17,17]","62","965","360","false","20","20","black","1","false","1","1","1820","630","d","staircase_color","","","",""
"","","","","","html-keyboard-response","103","190377","0.0-5.0-1.0-1.0-0.0-1.0-0.0-0.0-2.7","null","","null","<p style='font-size: 60px; color: red'>错误!</p>","","","","","","","","","","","","","","","","","","","","","","","","","","","","","","","","","","","","","","","","","","","","","","",""
"","","","","","html-keyboard-response","104","191378","0.0-5.0-1.0-1.0-0.0-1.0-0.0-0.0-0.8","null","fixation","null","<p style='font-size: 48px; color: white'>+</p >","","","","","","","","","","","","","","","","","","","","","","","","","","","","","","","","","","","","","","","","","","","","","","",""
"","","","","","rdk","105","192801","0.0-5.0-1.0-1.0-0.0-1.0-0.0-0.0-1.8","907","color_test","k","","true","[""d"",""k""]","k","3000","true","1","100","0","0","0","5.7","1","-1","3","550","550","[""hsl(0, 50%, 50%)"",""hsl(225, 50%, 50%)""]","[""hsl(225, 50%, 50%)"",""hsl(0, 50%, 50%)""]","6","0.59","0","circle","black","3","2","2","16.64814814814815","[13,16,17,17,17,16,17,16,17,16,17,16,17,17,17,17,17,17,17,17,16,17,17,16,17,17,17,16,17,17,16,17,17,17,17,16,17,17,17,17,16,17,16,17,16,17,17,17,16,17,17,17,17,16]","54","965","360","false","20","20","black","1","false","1","1","1820","630","k","staircase_color","","","",""
"","","","","","html-keyboard-response","106","193812","0.0-5.0-1.0-1.0-0.0-1.0-0.0-0.0-2.8","null","","null","<p style='font-size: 60px; color: green'>正确!</p>","","","","","","","","","","","","","","","","","","","","","","","","","","","","","","","","","","","","","","","","","","","","","","",""
"","","","","","html-keyboard-response","107","194828","0.0-5.0-1.0-1.0-0.0-1.0-0.0-0.0-0.9","null","fixation","null","<p style='font-size: 48px; color: white'>+</p >","","","","","","","","","","","","","","","","","","","","","","","","","","","","","","","","","","","","","","","","","","","","","","",""
"","","","","","rdk","108","196145","0.0-5.0-1.0-1.0-0.0-1.0-0.0-0.0-1.9","801","color_test","d","","false","[""d"",""k""]","k","3000","true","1","100","0","0","0","5.7","1","-1","3","550","550","[""hsl(0, 50%, 50%)"",""hsl(225, 50%, 50%)""]","[""hsl(225, 50%, 50%)"",""hsl(0, 50%, 50%)""]","6","0.59","0","circle","black","3","2","2","16.770833333333332","[12,17,17,17,17,17,17,17,17,17,17,17,17,17,17,16,17,17,17,17,17,17,17,17,17,17,17,16,17,17,16,17,17,17,17,17,17,16,17,16,17,17,17,17,16,17,17,17]","48","965","360","false","20","20","black","1","false","1","1","1820","630","k","staircase_color","","","",""
"","","","","","html-keyboard-response","109","197161","0.0-5.0-1.0-1.0-0.0-1.0-0.0-0.0-2.9","null","","null","<p style='font-size: 60px; color: red'>错误!</p>","","","","","","","","","","","","","","","","","","","","","","","","","","","","","","","","","","","","","","","","","","","","","","",""
"","","","","","html-keyboard-response","110","198178","0.0-5.0-1.0-1.0-0.0-1.0-0.0-0.0-0.10","null","fixation","null","<p style='font-size: 48px; color: white'>+</p >","","","","","","","","","","","","","","","","","","","","","","","","","","","","","","","","","","","","","","","","","","","","","","",""
"","","","","","rdk","111","199537","0.0-5.0-1.0-1.0-0.0-1.0-0.0-0.0-1.10","843","color_test","d","","true","[""d"",""k""]","d","3000","true","1","100","0","0","0","5.7","1","-1","3","550","550","[""hsl(0, 50%, 50%)"",""hsl(225, 50%, 50%)""]","[""hsl(0, 50%, 50%)"",""hsl(225, 50%, 50%)""]","6","0.59","0","circle","black","3","2","2","16.76","[12,17,17,17,16,17,17,17,17,17,17,17,17,17,16,17,17,17,17,17,17,17,17,17,17,17,17,16,17,16,17,17,17,17,16,17,17,17,17,16,17,17,17,17,16,17,17,17,17,17]","50","965","360","false","20","20","black","1","false","1","1","1820","630","d","staircase_color","","","",""
"","","","","","html-keyboard-response","112","200560","0.0-5.0-1.0-1.0-0.0-1.0-0.0-0.0-2.10","null","","null","<p style='font-size: 60px; color: green'>正确!</p>","","","","","","","","","","","","","","","","","","","","","","","","","","","","","","","","","","","","","","","","","","","","","","",""
"","","","","","html-keyboard-response","113","201577","0.0-5.0-1.0-1.0-0.0-1.0-0.0-0.0-0.11","null","fixation","null","<p style='font-size: 48px; color: white'>+</p >","","","","","","","","","","","","","","","","","","","","","","","","","","","","","","","","","","","","","","","","","","","","","","",""
"","","","","","rdk","114","202929","0.0-5.0-1.0-1.0-0.0-1.0-0.0-0.0-1.11","851","color_test","k","","false","[""d"",""k""]","d","3000","true","1","100","0","0","0","5.7","1","-1","3","550","550","[""hsl(0, 50%, 50%)"",""hsl(225, 50%, 50%)""]","[""hsl(0, 50%, 50%)"",""hsl(225, 50%, 50%)""]","6","0.59","0","circle","black","3","2","2","16.745098039215687","[11,17,17,17,17,17,17,17,17,17,17,17,17,17,17,17,17,17,17,17,16,17,17,17,17,16,17,17,17,17,17,17,17,17,16,17,17,16,17,16,17,17,17,17,16,17,17,17,16,17,17]","51","965","360","false","20","20","black","1","false","1","1","1820","630","d","staircase_color","","","",""
"","","","","","html-keyboard-response","115","203944","0.0-5.0-1.0-1.0-0.0-1.0-0.0-0.0-2.11","null","","null","<p style='font-size: 60px; color: red'>错误!</p>","","","","","","","","","","","","","","","","","","","","","","","","","","","","","","","","","","","","","","","","","","","","","","",""
"","","","","","html-keyboard-response","116","206129","0.0-5.0-1.0-1.0-0.0-1.0-0.0-1.0","1670",""," ","<p style='font-size: 35px; color: white'>您的正确率为： 67% 。平均反应时为：838毫秒。</p>","","","","","","","","","","","","","","","","","","","","","","","","","","","","","","","","","","","","","","","","","","","","","","",""
"","","","","","html-keyboard-response","117","207142","0.0-5.0-1.0-1.0-0.0-1.1-0.1-0.1-0.12","null","fixation","null","<p style='font-size: 48px; color: white'>+</p >","","","","","","","","","","","","","","","","","","","","","","","","","","","","","","","","","","","","","","","","","","","","","","",""
"","","","","","rdk","118","208769","0.0-5.0-1.0-1.0-0.0-1.1-0.1-0.1-1.12","1115","color_test","d","","true","[""d"",""k""]","d","3000","true","1","100","0","0","0","5.7","1","-1","3","550","550","[""hsl(0, 50%, 50%)"",""hsl(225, 50%, 50%)""]","[""hsl(0, 50%, 50%)"",""hsl(225, 50%, 50%)""]","6","0.54","0","circle","black","3","2","2","16.582089552238806","[2,17,17,16,17,17,17,17,17,16,17,17,17,17,17,17,17,17,17,17,17,16,17,16,17,17,17,17,17,16,17,17,16,17,17,17,17,16,17,17,17,16,17,16,17,17,17,16,17,17,16,17,17,16,17,17,17,17,16,17,17,17,17,17,17,17,17]","67","965","360","false","20","20","black","1","false","1","1","1820","630","d","staircase_color","","","",""
"","","","","","html-keyboard-response","119","209780","0.0-5.0-1.0-1.0-0.0-1.1-0.1-0.1-2.12","null","","null","<p style='font-size: 60px; color: green'>正确!</p>","","","","","","","","","","","","","","","","","","","","","","","","","","","","","","","","","","","","","","","","","","","","","","",""
"","","","","","html-keyboard-response","120","210797","0.0-5.0-1.0-1.0-0.0-1.1-0.1-0.1-0.13","null","fixation","null","<p style='font-size: 48px; color: white'>+</p >","","","","","","","","","","","","","","","","","","","","","","","","","","","","","","","","","","","","","","","","","","","","","","",""
"","","","","","rdk","121","212289","0.0-5.0-1.0-1.0-0.0-1.1-0.1-0.1-1.13","981","color_test","d","","false","[""d"",""k""]","k","3000","true","1","100","0","0","0","5.7","1","-1","3","550","550","[""hsl(0, 50%, 50%)"",""hsl(225, 50%, 50%)""]","[""hsl(225, 50%, 50%)"",""hsl(0, 50%, 50%)""]","6","0.54","0","circle","black","3","2","2","16.82758620689655","[14,17,17,16,17,17,17,17,16,17,16,17,17,17,17,16,17,16,17,17,17,17,17,17,17,17,17,17,17,17,16,17,17,17,17,17,17,17,17,17,17,17,16,17,17,17,17,17,17,17,17,17,17,17,17,17,17,17]","58","965","360","false","20","20","black","1","false","1","1","1820","630","k","staircase_color","","","",""
"","","","","","html-keyboard-response","122","213311","0.0-5.0-1.0-1.0-0.0-1.1-0.1-0.1-2.13","null","","null","<p style='font-size: 60px; color: red'>错误!</p>","","","","","","","","","","","","","","","","","","","","","","","","","","","","","","","","","","","","","","","","","","","","","","",""
"","","","","","html-keyboard-response","123","214328","0.0-5.0-1.0-1.0-0.0-1.1-0.1-0.1-0.14","null","fixation","null","<p style='font-size: 48px; color: white'>+</p >","","","","","","","","","","","","","","","","","","","","","","","","","","","","","","","","","","","","","","","","","","","","","","",""
"","","","","","rdk","124","215777","0.0-5.0-1.0-1.0-0.0-1.1-0.1-0.1-1.14","938","color_test","k","","true","[""d"",""k""]","k","3000","true","1","100","0","0","0","5.7","1","-1","3","550","550","[""hsl(0, 50%, 50%)"",""hsl(225, 50%, 50%)""]","[""hsl(225, 50%, 50%)"",""hsl(0, 50%, 50%)""]","6","0.54","0","circle","black","3","2","2","16.910714285714285","[17,17,16,17,17,16,17,17,17,17,17,17,17,17,17,17,17,17,17,17,17,17,17,16,17,17,17,17,17,17,17,17,17,17,17,17,17,17,17,17,17,17,17,16,17,16,17,17,17,17,17,17,17,17,17,17]","56","965","360","false","20","20","black","1","false","1","1","1820","630","k","staircase_color","","","",""
"","","","","","html-keyboard-response","125","216794","0.0-5.0-1.0-1.0-0.0-1.1-0.1-0.1-2.14","null","","null","<p style='font-size: 60px; color: green'>正确!</p>","","","","","","","","","","","","","","","","","","","","","","","","","","","","","","","","","","","","","","","","","","","","","","",""
"","","","","","html-keyboard-response","126","217810","0.0-5.0-1.0-1.0-0.0-1.1-0.1-0.1-0.15","null","fixation","null","<p style='font-size: 48px; color: white'>+</p >","","","","","","","","","","","","","","","","","","","","","","","","","","","","","","","","","","","","","","","","","","","","","","",""
"","","","","","rdk","127","219313","0.0-5.0-1.0-1.0-0.0-1.1-0.1-0.1-1.15","997","color_test","d","","true","[""d"",""k""]","d","3000","true","1","100","0","0","0","5.7","1","-1","3","550","550","[""hsl(0, 50%, 50%)"",""hsl(225, 50%, 50%)""]","[""hsl(0, 50%, 50%)"",""hsl(225, 50%, 50%)""]","6","0.54","0","circle","black","3","2","2","16.65","[6,17,17,16,17,17,17,17,17,17,17,17,17,17,17,17,17,17,17,17,17,17,17,16,17,17,17,16,17,17,17,17,17,17,16,17,16,17,17,16,17,16,17,17,17,17,17,17,17,16,17,17,17,17,17,17,16,17,17,16]","60","965","360","false","20","20","black","1","false","1","1","1820","630","d","staircase_color","","","",""
"","","","","","html-keyboard-response","128","220329","0.0-5.0-1.0-1.0-0.0-1.1-0.1-0.1-2.15","null","","null","<p style='font-size: 60px; color: green'>正确!</p>","","","","","","","","","","","","","","","","","","","","","","","","","","","","","","","","","","","","","","","","","","","","","","",""
"","","","","","html-keyboard-response","129","221346","0.0-5.0-1.0-1.0-0.0-1.1-0.1-0.1-0.16","null","fixation","null","<p style='font-size: 48px; color: white'>+</p >","","","","","","","","","","","","","","","","","","","","","","","","","","","","","","","","","","","","","","","","","","","","","","",""
"","","","","","rdk","130","222993","0.0-5.0-1.0-1.0-0.0-1.1-0.1-0.1-1.16","1132","color_test","d","","true","[""d"",""k""]","d","3000","true","1","100","0","0","0","5.7","1","-1","3","550","550","[""hsl(0, 50%, 50%)"",""hsl(225, 50%, 50%)""]","[""hsl(0, 50%, 50%)"",""hsl(225, 50%, 50%)""]","6","0.54","0","circle","black","3","2","2","16.823529411764707","[12,17,16,17,17,17,17,17,17,16,17,17,17,17,17,17,17,17,17,17,16,17,17,17,17,17,17,17,17,16,17,17,17,17,17,16,17,17,17,17,17,17,17,17,17,17,17,17,16,17,17,17,17,17,17,17,17,17,17,17,17,17,17,17,17,16,17,17]","68","965","360","false","20","20","black","1","false","1","1","1820","630","d","staircase_color","","","",""
"","","","","","html-keyboard-response","131","223997","0.0-5.0-1.0-1.0-0.0-1.1-0.1-0.1-2.16","null","","null","<p style='font-size: 60px; color: green'>正确!</p>","","","","","","","","","","","","","","","","","","","","","","","","","","","","","","","","","","","","","","","","","","","","","","",""
"","","","","","html-keyboard-response","132","225006","0.0-5.0-1.0-1.0-0.0-1.1-0.1-0.1-0.17","null","fixation","null","<p style='font-size: 48px; color: white'>+</p >","","","","","","","","","","","","","","","","","","","","","","","","","","","","","","","","","","","","","","","","","","","","","","",""
"","","","","","rdk","133","226801","0.0-5.0-1.0-1.0-0.0-1.1-0.1-0.1-1.17","1281","color_test","d","","true","[""d"",""k""]","d","3000","true","1","100","0","0","0","5.7","1","-1","3","550","550","[""hsl(0, 50%, 50%)"",""hsl(225, 50%, 50%)""]","[""hsl(0, 50%, 50%)"",""hsl(225, 50%, 50%)""]","6","0.54","0","circle","black","3","2","2","16.61038961038961","[2,17,16,17,17,17,16,17,16,17,17,17,17,17,17,17,16,16,17,17,17,17,17,17,17,16,17,17,16,17,17,17,17,16,17,17,16,17,17,17,17,17,17,17,16,17,17,17,17,16,17,17,17,17,17,17,17,17,17,17,16,17,17,16,17,17,17,17,17,17,17,17,16,17,17,17,16]","77","965","360","false","20","20","black","1","false","1","1","1820","630","d","staircase_color","","","",""
"","","","","","html-keyboard-response","134","227827","0.0-5.0-1.0-1.0-0.0-1.1-0.1-0.1-2.17","null","","null","<p style='font-size: 60px; color: green'>正确!</p>","","","","","","","","","","","","","","","","","","","","","","","","","","","","","","","","","","","","","","","","","","","","","","",""
"","","","","","html-keyboard-response","135","228843","0.0-5.0-1.0-1.0-0.0-1.1-0.1-0.1-0.18","null","fixation","null","<p style='font-size: 48px; color: white'>+</p >","","","","","","","","","","","","","","","","","","","","","","","","","","","","","","","","","","","","","","","","","","","","","","",""
"","","","","","rdk","136","230369","0.0-5.0-1.0-1.0-0.0-1.1-0.1-0.1-1.18","1016","color_test","k","","true","[""d"",""k""]","k","3000","true","1","100","0","0","0","5.7","1","-1","3","550","550","[""hsl(0, 50%, 50%)"",""hsl(225, 50%, 50%)""]","[""hsl(225, 50%, 50%)"",""hsl(0, 50%, 50%)""]","6","0.54","0","circle","black","3","2","2","16.62295081967213","[3,17,17,17,17,17,17,17,16,17,17,17,17,17,16,17,17,17,17,17,17,17,17,17,17,17,17,17,17,17,17,17,16,17,17,17,16,17,17,17,17,17,16,17,17,17,17,17,17,17,17,16,17,17,16,17,16,17,17,16,17]","61","965","360","false","20","20","black","1","false","1","1","1820","630","k","staircase_color","","","",""
"","","","","","html-keyboard-response","137","231394","0.0-5.0-1.0-1.0-0.0-1.1-0.1-0.1-2.18","null","","null","<p style='font-size: 60px; color: green'>正确!</p>","","","","","","","","","","","","","","","","","","","","","","","","","","","","","","","","","","","","","","","","","","","","","","",""
"","","","","","html-keyboard-response","138","232410","0.0-5.0-1.0-1.0-0.0-1.1-0.1-0.1-0.19","null","fixation","null","<p style='font-size: 48px; color: white'>+</p >","","","","","","","","","","","","","","","","","","","","","","","","","","","","","","","","","","","","","","","","","","","","","","",""
"","","","","","rdk","139","233969","0.0-5.0-1.0-1.0-0.0-1.1-0.1-0.1-1.19","1046","color_test","k","","true","[""d"",""k""]","k","3000","true","1","100","0","0","0","5.7","1","-1","3","550","550","[""hsl(0, 50%, 50%)"",""hsl(225, 50%, 50%)""]","[""hsl(225, 50%, 50%)"",""hsl(0, 50%, 50%)""]","6","0.54","0","circle","black","3","2","2","16.983870967741936","[17,17,17,17,17,17,17,17,17,17,17,17,17,17,17,17,17,16,17,17,17,17,17,17,17,17,17,17,17,17,17,17,17,17,17,17,17,17,17,17,17,17,17,17,17,17,17,17,17,17,17,17,17,17,17,17,17,17,17,17,17,17]","62","965","360","false","20","20","black","1","false","1","1","1820","630","k","staircase_color","","","",""
"","","","","","html-keyboard-response","140","234994","0.0-5.0-1.0-1.0-0.0-1.1-0.1-0.1-2.19","null","","null","<p style='font-size: 60px; color: green'>正确!</p>","","","","","","","","","","","","","","","","","","","","","","","","","","","","","","","","","","","","","","","","","","","","","","",""
"","","","","","html-keyboard-response","141","236010","0.0-5.0-1.0-1.0-0.0-1.1-0.1-0.1-0.20","null","fixation","null","<p style='font-size: 48px; color: white'>+</p >","","","","","","","","","","","","","","","","","","","","","","","","","","","","","","","","","","","","","","","","","","","","","","",""
"","","","","","rdk","142","237649","0.0-5.0-1.0-1.0-0.0-1.1-0.1-0.1-1.20","1128","color_test","k","","true","[""d"",""k""]","k","3000","true","1","100","0","0","0","5.7","1","-1","3","550","550","[""hsl(0, 50%, 50%)"",""hsl(225, 50%, 50%)""]","[""hsl(225, 50%, 50%)"",""hsl(0, 50%, 50%)""]","6","0.54","0","circle","black","3","2","2","16.544117647058822","[2,17,17,17,17,17,16,17,17,17,17,16,17,16,17,17,16,17,16,17,16,17,17,17,17,16,17,16,17,16,17,17,16,17,17,16,17,16,17,17,17,16,17,16,17,17,17,17,17,18,16,17,16,17,17,17,17,17,17,17,17,17,17,17,16,17,17,17]","68","965","360","false","20","20","black","1","false","1","1","1820","630","k","staircase_color","","","",""
"","","","","","html-keyboard-response","143","238662","0.0-5.0-1.0-1.0-0.0-1.1-0.1-0.1-2.20","null","","null","<p style='font-size: 60px; color: green'>正确!</p>","","","","","","","","","","","","","","","","","","","","","","","","","","","","","","","","","","","","","","","","","","","","","","",""
"","","","","","html-keyboard-response","144","239665","0.0-5.0-1.0-1.0-0.0-1.1-0.1-0.1-0.21","null","fixation","null","<p style='font-size: 48px; color: white'>+</p >","","","","","","","","","","","","","","","","","","","","","","","","","","","","","","","","","","","","","","","","","","","","","","",""
"","","","","","rdk","145","241089","0.0-5.0-1.0-1.0-0.0-1.1-0.1-0.1-1.21","909","color_test","d","","true","[""d"",""k""]","d","3000","true","1","100","0","0","0","5.7","1","-1","3","550","550","[""hsl(0, 50%, 50%)"",""hsl(225, 50%, 50%)""]","[""hsl(0, 50%, 50%)"",""hsl(225, 50%, 50%)""]","6","0.54","0","circle","black","3","2","2","16.72222222222222","[9,17,16,17,17,17,17,17,17,17,17,17,17,17,16,17,17,17,17,17,16,17,17,17,17,17,17,17,17,16,17,17,17,17,17,17,17,16,17,17,17,17,17,17,16,17,17,17,17,17,17,17,16,17]","54","965","360","false","20","20","black","1","false","1","1","1820","630","d","staircase_color","","","",""
"","","","","","html-keyboard-response","146","242111","0.0-5.0-1.0-1.0-0.0-1.1-0.1-0.1-2.21","null","","null","<p style='font-size: 60px; color: green'>正确!</p>","","","","","","","","","","","","","","","","","","","","","","","","","","","","","","","","","","","","","","","","","","","","","","",""
"","","","","","html-keyboard-response","147","243127","0.0-5.0-1.0-1.0-0.0-1.1-0.1-0.1-0.22","null","fixation","null","<p style='font-size: 48px; color: white'>+</p >","","","","","","","","","","","","","","","","","","","","","","","","","","","","","","","","","","","","","","","","","","","","","","",""
"","","","","","rdk","148","244673","0.0-5.0-1.0-1.0-0.0-1.1-0.1-0.1-1.22","1043","color_test","k","","false","[""d"",""k""]","d","3000","true","1","100","0","0","0","5.7","1","-1","3","550","550","[""hsl(0, 50%, 50%)"",""hsl(225, 50%, 50%)""]","[""hsl(0, 50%, 50%)"",""hsl(225, 50%, 50%)""]","6","0.54","0","circle","black","3","2","2","16.741935483870968","[9,17,17,17,17,17,17,17,16,17,17,17,17,17,16,17,17,17,16,17,17,17,17,17,16,17,17,17,17,17,17,17,17,17,17,16,17,17,17,17,17,17,16,17,17,17,16,17,17,16,17,17,17,17,17,17,17,17,17,17,17,17]","62","965","360","false","20","20","black","1","false","1","1","1820","630","d","staircase_color","","","",""
"","","","","","html-keyboard-response","149","245679","0.0-5.0-1.0-1.0-0.0-1.1-0.1-0.1-2.22","null","","null","<p style='font-size: 60px; color: red'>错误!</p>","","","","","","","","","","","","","","","","","","","","","","","","","","","","","","","","","","","","","","","","","","","","","","",""
"","","","","","html-keyboard-response","150","246695","0.0-5.0-1.0-1.0-0.0-1.1-0.1-0.1-0.23","null","fixation","null","<p style='font-size: 48px; color: white'>+</p >","","","","","","","","","","","","","","","","","","","","","","","","","","","","","","","","","","","","","","","","","","","","","","",""
"","","","","","rdk","151","248081","0.0-5.0-1.0-1.0-0.0-1.1-0.1-0.1-1.23","870","color_test","k","","true","[""d"",""k""]","k","3000","true","1","100","0","0","0","5.7","1","-1","3","550","550","[""hsl(0, 50%, 50%)"",""hsl(225, 50%, 50%)""]","[""hsl(225, 50%, 50%)"",""hsl(0, 50%, 50%)""]","6","0.54","0","circle","black","3","2","2","16.76923076923077","[12,17,17,17,17,17,17,17,16,17,17,17,17,16,17,17,17,17,17,17,16,17,17,17,17,17,16,17,17,17,16,17,16,17,17,17,17,17,17,17,16,17,17,17,17,17,17,17,17,17,17,17]","52","965","360","false","20","20","black","1","false","1","1","1820","630","k","staircase_color","","","",""
"","","","","","html-keyboard-response","152","249110","0.0-5.0-1.0-1.0-0.0-1.1-0.1-0.1-2.23","null","","null","<p style='font-size: 60px; color: green'>正确!</p>","","","","","","","","","","","","","","","","","","","","","","","","","","","","","","","","","","","","","","","","","","","","","","",""
"","","","","","html-keyboard-response","153","250641","0.0-5.0-1.0-1.0-0.0-1.1-0.1-1.1","1020",""," ","<p style='font-size: 35px; color: white'>您的正确率为： 83% 。平均反应时为：1038毫秒。</p>","","","","","","","","","","","","","","","","","","","","","","","","","","","","","","","","","","","","","","","","","","","","","","",""
"","","","","","html-keyboard-response","154","251647","0.0-5.0-1.0-1.0-0.0-2.0-0.0-0.0-0.0","null","fixation","null","<p style='font-size: 48px; color: white'>+</p >","","","","","","","","","","","","","","","","","","","","","","","","","","","","","","","","","","","","","","","","","","","","","","",""
"","","","","","rdk","155","253089","0.0-5.0-1.0-1.0-0.0-2.0-0.0-0.0-1.0","927","color_test","d","","false","[""d"",""k""]","k","3000","true","1","100","0","0","0","5.7","1","-1","3","550","550","[""hsl(0, 50%, 50%)"",""hsl(225, 50%, 50%)""]","[""hsl(225, 50%, 50%)"",""hsl(0, 50%, 50%)""]","6","0.54","0","circle","black","3","2","2","16.78181818181818","[11,17,17,16,17,17,17,17,16,17,17,17,17,17,17,17,17,17,17,17,17,17,17,17,17,17,17,17,17,17,17,17,17,17,17,16,17,17,17,16,17,17,16,17,17,17,17,17,17,17,17,17,16,17,17]","55","965","360","false","20","20","black","1","false","1","1","1820","630","k","staircase_color","","","",""
"","","","","","html-keyboard-response","156","254096","0.0-5.0-1.0-1.0-0.0-2.0-0.0-0.0-2.0","null","","null","<p style='font-size: 60px; color: red'>错误!</p>","","","","","","","","","","","","","","","","","","","","","","","","","","","","","","","","","","","","","","","","","","","","","","",""
"","","","","","html-keyboard-response","157","255099","0.0-5.0-1.0-1.0-0.0-2.0-0.0-0.0-0.1","null","fixation","null","<p style='font-size: 48px; color: white'>+</p >","","","","","","","","","","","","","","","","","","","","","","","","","","","","","","","","","","","","","","","","","","","","","","",""
"","","","","","rdk","158","256481","0.0-5.0-1.0-1.0-0.0-2.0-0.0-0.0-1.1","867","color_test","k","","true","[""d"",""k""]","k","3000","true","1","100","0","0","0","5.7","1","-1","3","550","550","[""hsl(0, 50%, 50%)"",""hsl(225, 50%, 50%)""]","[""hsl(225, 50%, 50%)"",""hsl(0, 50%, 50%)""]","6","0.54","0","circle","black","3","2","2","16.75","[9,17,17,17,17,16,17,16,17,17,16,17,17,17,17,17,17,17,17,17,17,17,17,17,16,17,17,17,17,17,17,17,17,17,17,17,17,17,17,17,16,17,17,17,17,17,17,17,17,17,17,17]","52","965","360","false","20","20","black","1","false","1","1","1820","630","k","staircase_color","","","",""
"","","","","","html-keyboard-response","159","257510","0.0-5.0-1.0-1.0-0.0-2.0-0.0-0.0-2.1","null","","null","<p style='font-size: 60px; color: green'>正确!</p>","","","","","","","","","","","","","","","","","","","","","","","","","","","","","","","","","","","","","","","","","","","","","","",""
"","","","","","html-keyboard-response","160","258511","0.0-5.0-1.0-1.0-0.0-2.0-0.0-0.0-0.2","null","fixation","null","<p style='font-size: 48px; color: white'>+</p >","","","","","","","","","","","","","","","","","","","","","","","","","","","","","","","","","","","","","","","","","","","","","","",""
"","","","","","rdk","161","259889","0.0-5.0-1.0-1.0-0.0-2.0-0.0-0.0-1.2","873","color_test","k","","false","[""d"",""k""]","d","3000","true","1","100","0","0","0","5.7","1","-1","3","550","550","[""hsl(0, 50%, 50%)"",""hsl(225, 50%, 50%)""]","[""hsl(0, 50%, 50%)"",""hsl(225, 50%, 50%)""]","6","0.54","0","circle","black","3","2","2","16.615384615384617","[6,17,17,17,17,17,16,17,17,16,17,17,16,17,16,17,17,17,17,17,17,17,17,17,17,17,17,17,17,16,17,17,16,17,16,17,17,16,17,17,17,17,17,17,17,17,16,17,17,17,17,17]","52","965","360","false","20","20","black","1","false","1","1","1820","630","d","staircase_color","","","",""
"","","","","","html-keyboard-response","162","260910","0.0-5.0-1.0-1.0-0.0-2.0-0.0-0.0-2.2","null","","null","<p style='font-size: 60px; color: red'>错误!</p>","","","","","","","","","","","","","","","","","","","","","","","","","","","","","","","","","","","","","","","","","","","","","","",""
"","","","","","html-keyboard-response","163","261913","0.0-5.0-1.0-1.0-0.0-2.0-0.0-0.0-0.3","null","fixation","null","<p style='font-size: 48px; color: white'>+</p >","","","","","","","","","","","","","","","","","","","","","","","","","","","","","","","","","","","","","","","","","","","","","","",""
"","","","","","rdk","164","263537","0.0-5.0-1.0-1.0-0.0-2.0-0.0-0.0-1.3","1119","color_test","d","","true","[""d"",""k""]","d","3000","true","1","100","0","0","0","5.7","1","-1","3","550","550","[""hsl(0, 50%, 50%)"",""hsl(225, 50%, 50%)""]","[""hsl(0, 50%, 50%)"",""hsl(225, 50%, 50%)""]","6","0.54","0","circle","black","3","2","2","16.65671641791045","[5,17,16,17,17,17,16,17,17,17,17,17,17,17,17,17,17,16,17,17,17,17,17,16,17,16,17,17,17,17,17,17,17,17,17,16,17,16,17,17,17,17,16,17,17,17,17,17,17,17,17,17,17,17,17,17,16,17,17,17,16,17,17,17,16,17,17]","67","965","360","false","20","20","black","1","false","1","1","1820","630","d","staircase_color","","","",""
"","","","","","html-keyboard-response","165","264561","0.0-5.0-1.0-1.0-0.0-2.0-0.0-0.0-2.3","null","","null","<p style='font-size: 60px; color: green'>正确!</p>","","","","","","","","","","","","","","","","","","","","","","","","","","","","","","","","","","","","","","","","","","","","","","",""
"","","","","","html-keyboard-response","166","265579","0.0-5.0-1.0-1.0-0.0-2.0-0.0-0.0-0.4","null","fixation","null","<p style='font-size: 48px; color: white'>+</p >","","","","","","","","","","","","","","","","","","","","","","","","","","","","","","","","","","","","","","","","","","","","","","",""
"","","","","","rdk","167","266961","0.0-5.0-1.0-1.0-0.0-2.0-0.0-0.0-1.4","879","color_test","d","","true","[""d"",""k""]","d","3000","true","1","100","0","0","0","5.7","1","-1","3","550","550","[""hsl(0, 50%, 50%)"",""hsl(225, 50%, 50%)""]","[""hsl(0, 50%, 50%)"",""hsl(225, 50%, 50%)""]","6","0.54","0","circle","black","3","2","2","16.67924528301887","[8,17,16,17,17,17,17,17,17,16,17,16,17,17,17,17,17,17,17,17,17,17,17,16,17,17,17,17,17,17,17,17,17,17,17,17,16,17,17,16,17,16,17,17,17,17,17,17,17,17,17,16,17]","53","965","360","false","20","20","black","1","false","1","1","1820","630","d","staircase_color","","","",""
"","","","","","html-keyboard-response","168","267977","0.0-5.0-1.0-1.0-0.0-2.0-0.0-0.0-2.4","null","","null","<p style='font-size: 60px; color: green'>正确!</p>","","","","","","","","","","","","","","","","","","","","","","","","","","","","","","","","","","","","","","","","","","","","","","",""
"","","","","","html-keyboard-response","169","268999","0.0-5.0-1.0-1.0-0.0-2.0-0.0-0.0-0.5","null","fixation","null","<p style='font-size: 48px; color: white'>+</p >","","","","","","","","","","","","","","","","","","","","","","","","","","","","","","","","","","","","","","","","","","","","","","",""
"","","","","","rdk","170","270689","0.0-5.0-1.0-1.0-0.0-2.0-0.0-0.0-1.5","1180","color_test","k","","true","[""d"",""k""]","k","3000","true","1","100","0","0","0","5.7","1","-1","3","550","550","[""hsl(0, 50%, 50%)"",""hsl(225, 50%, 50%)""]","[""hsl(225, 50%, 50%)"",""hsl(0, 50%, 50%)""]","6","0.54","0","circle","black","3","2","2","16.785714285714285","[14,17,17,17,16,17,17,17,16,17,16,17,17,17,17,17,17,17,17,16,17,17,17,17,17,17,17,17,17,16,17,17,17,17,16,17,16,17,17,17,16,17,17,17,17,16,17,16,17,16,17,17,17,17,17,17,17,17,17,17,17,17,17,17,17,17,17,17,16,17]","70","965","360","false","20","20","black","1","false","1","1","1820","630","k","staircase_color","","","",""
"","","","","","html-keyboard-response","171","271695","0.0-5.0-1.0-1.0-0.0-2.0-0.0-0.0-2.5","null","","null","<p style='font-size: 60px; color: green'>正确!</p>","","","","","","","","","","","","","","","","","","","","","","","","","","","","","","","","","","","","","","","","","","","","","","",""
"","","","","","html-keyboard-response","172","272713","0.0-5.0-1.0-1.0-0.0-2.0-0.0-0.0-0.6","null","fixation","null","<p style='font-size: 48px; color: white'>+</p >","","","","","","","","","","","","","","","","","","","","","","","","","","","","","","","","","","","","","","","","","","","","","","",""
"","","","","","rdk","173","274433","0.0-5.0-1.0-1.0-0.0-2.0-0.0-0.0-1.6","1209","color_test","d","","false","[""d"",""k""]","k","3000","true","1","100","0","0","0","5.7","1","-1","3","550","550","[""hsl(0, 50%, 50%)"",""hsl(225, 50%, 50%)""]","[""hsl(225, 50%, 50%)"",""hsl(0, 50%, 50%)""]","6","0.54","0","circle","black","3","2","2","16.90277777777778","[16,17,17,16,17,17,17,17,17,17,16,17,17,17,17,17,17,17,17,17,17,16,17,17,17,17,17,17,17,17,16,17,17,17,17,17,17,17,17,17,17,17,17,16,17,17,17,17,17,17,17,17,17,17,17,17,17,17,17,17,17,17,17,16,17,17,17,17,17,17,17,17]","72","965","360","false","20","20","black","1","false","1","1","1820","630","k","staircase_color","","","",""
"","","","","","html-keyboard-response","174","275460","0.0-5.0-1.0-1.0-0.0-2.0-0.0-0.0-2.6","null","","null","<p style='font-size: 60px; color: red'>错误!</p>","","","","","","","","","","","","","","","","","","","","","","","","","","","","","","","","","","","","","","","","","","","","","","",""
"","","","","","html-keyboard-response","175","276475","0.0-5.0-1.0-1.0-0.0-2.0-0.0-0.0-0.7","null","fixation","null","<p style='font-size: 48px; color: white'>+</p >","","","","","","","","","","","","","","","","","","","","","","","","","","","","","","","","","","","","","","","","","","","","","","",""
"","","","","","rdk","176","278145","0.0-5.0-1.0-1.0-0.0-2.0-0.0-0.0-1.7","1166","color_test","k","","false","[""d"",""k""]","d","3000","true","1","100","0","0","0","5.7","1","-1","3","550","550","[""hsl(0, 50%, 50%)"",""hsl(225, 50%, 50%)""]","[""hsl(0, 50%, 50%)"",""hsl(225, 50%, 50%)""]","6","0.54","0","circle","black","3","2","2","16.771428571428572","[10,17,16,17,17,17,17,17,17,17,17,17,17,17,17,17,17,16,17,17,17,18,15,17,17,17,17,17,17,17,17,17,17,17,17,17,17,17,16,17,17,16,17,17,16,17,17,17,17,16,17,17,17,16,17,17,17,16,17,17,17,17,17,17,17,17,17,17,17,17]","70","965","360","false","20","20","black","1","false","1","1","1820","630","d","staircase_color","","","",""
"","","","","","html-keyboard-response","177","279161","0.0-5.0-1.0-1.0-0.0-2.0-0.0-0.0-2.7","null","","null","<p style='font-size: 60px; color: red'>错误!</p>","","","","","","","","","","","","","","","","","","","","","","","","","","","","","","","","","","","","","","","","","","","","","","",""
"","","","","","html-keyboard-response","178","280178","0.0-5.0-1.0-1.0-0.0-2.0-0.0-0.0-0.8","null","fixation","null","<p style='font-size: 48px; color: white'>+</p >","","","","","","","","","","","","","","","","","","","","","","","","","","","","","","","","","","","","","","","","","","","","","","",""
"","","","","","rdk","179","281665","0.0-5.0-1.0-1.0-0.0-2.0-0.0-0.0-1.8","982","color_test","k","","true","[""d"",""k""]","k","3000","true","1","100","0","0","0","5.7","1","-1","3","550","550","[""hsl(0, 50%, 50%)"",""hsl(225, 50%, 50%)""]","[""hsl(225, 50%, 50%)"",""hsl(0, 50%, 50%)""]","6","0.54","0","circle","black","3","2","2","16.779661016949152","[7,17,17,17,17,17,17,17,17,17,17,17,17,17,16,17,17,17,17,17,17,17,17,17,16,17,17,17,17,17,17,17,17,17,17,17,17,17,16,17,17,17,17,17,17,17,17,17,17,17,17,17,17,17,17,17,17,17,17]","59","965","360","false","20","20","black","1","false","1","1","1820","630","k","staircase_color","","","",""
"","","","","","html-keyboard-response","180","282694","0.0-5.0-1.0-1.0-0.0-2.0-0.0-0.0-2.8","null","","null","<p style='font-size: 60px; color: green'>正确!</p>","","","","","","","","","","","","","","","","","","","","","","","","","","","","","","","","","","","","","","","","","","","","","","",""
"","","","","","html-keyboard-response","181","283712","0.0-5.0-1.0-1.0-0.0-2.0-0.0-0.0-0.9","null","fixation","null","<p style='font-size: 48px; color: white'>+</p >","","","","","","","","","","","","","","","","","","","","","","","","","","","","","","","","","","","","","","","","","","","","","","",""
"","","","","","rdk","182","284945","0.0-5.0-1.0-1.0-0.0-2.0-0.0-0.0-1.9","732","color_test","d","","false","[""d"",""k""]","k","3000","true","1","100","0","0","0","5.7","1","-1","3","550","550","[""hsl(0, 50%, 50%)"",""hsl(225, 50%, 50%)""]","[""hsl(225, 50%, 50%)"",""hsl(0, 50%, 50%)""]","6","0.54","0","circle","black","3","2","2","16.681818181818183","[10,17,17,17,17,17,17,17,16,17,16,17,17,17,17,17,17,17,17,17,17,16,17,17,17,17,17,17,16,17,17,17,17,17,17,16,17,17,16,17,17,17,16,17]","44","965","360","false","20","20","black","1","false","1","1","1820","630","k","staircase_color","","","",""
"","","","","","html-keyboard-response","183","285964","0.0-5.0-1.0-1.0-0.0-2.0-0.0-0.0-2.9","null","","null","<p style='font-size: 60px; color: red'>错误!</p>","","","","","","","","","","","","","","","","","","","","","","","","","","","","","","","","","","","","","","","","","","","","","","",""
"","","","","","html-keyboard-response","184","286983","0.0-5.0-1.0-1.0-0.0-2.0-0.0-0.0-0.10","null","fixation","null","<p style='font-size: 48px; color: white'>+</p >","","","","","","","","","","","","","","","","","","","","","","","","","","","","","","","","","","","","","","","","","","","","","","",""
"","","","","","rdk","185","288401","0.0-5.0-1.0-1.0-0.0-2.0-0.0-0.0-1.10","906","color_test","d","","true","[""d"",""k""]","d","3000","true","1","100","0","0","0","5.7","1","-1","3","550","550","[""hsl(0, 50%, 50%)"",""hsl(225, 50%, 50%)""]","[""hsl(0, 50%, 50%)"",""hsl(225, 50%, 50%)""]","6","0.54","0","circle","black","3","2","2","16.77777777777778","[11,17,16,17,17,17,17,17,17,16,17,16,17,16,17,17,17,17,17,17,17,17,17,17,17,16,17,17,17,17,17,17,17,17,17,17,17,17,17,17,17,17,17,17,17,17,17,16,17,17,17,17,17,17]","54","965","360","false","20","20","black","1","false","1","1","1820","630","d","staircase_color","","","",""
"","","","","","html-keyboard-response","186","289413","0.0-5.0-1.0-1.0-0.0-2.0-0.0-0.0-2.10","null","","null","<p style='font-size: 60px; color: green'>正确!</p>","","","","","","","","","","","","","","","","","","","","","","","","","","","","","","","","","","","","","","","","","","","","","","",""
"","","","","","html-keyboard-response","187","290429","0.0-5.0-1.0-1.0-0.0-2.0-0.0-0.0-0.11","null","fixation","null","<p style='font-size: 48px; color: white'>+</p >","","","","","","","","","","","","","","","","","","","","","","","","","","","","","","","","","","","","","","","","","","","","","","",""
"","","","","","rdk","188","292241","0.0-5.0-1.0-1.0-0.0-2.0-0.0-0.0-1.11","1308","color_test","d","","true","[""d"",""k""]","d","3000","true","1","100","0","0","0","5.7","1","-1","3","550","550","[""hsl(0, 50%, 50%)"",""hsl(225, 50%, 50%)""]","[""hsl(0, 50%, 50%)"",""hsl(225, 50%, 50%)""]","6","0.54","0","circle","black","3","2","2","16.759493670886076","[6,17,17,17,17,16,17,17,17,17,17,17,17,17,17,17,17,17,17,17,16,17,17,17,17,16,17,17,17,17,16,17,17,16,17,17,17,17,17,17,17,17,17,17,17,17,17,17,17,17,17,17,17,17,17,17,17,17,17,17,17,17,17,17,17,16,17,17,17,17,17,17,16,17,17,16,17,17,17]","79","965","360","false","20","20","black","1","false","1","1","1820","630","d","staircase_color","","","",""
"","","","","","html-keyboard-response","189","293261","0.0-5.0-1.0-1.0-0.0-2.0-0.0-0.0-2.11","null","","null","<p style='font-size: 60px; color: green'>正确!</p>","","","","","","","","","","","","","","","","","","","","","","","","","","","","","","","","","","","","","","","","","","","","","","",""
"","","","","","html-keyboard-response","190","294705","0.0-5.0-1.0-1.0-0.0-2.0-0.0-1.0","942",""," ","<p style='font-size: 35px; color: white'>您的正确率为： 58% 。平均反应时为：1012毫秒。</p>","","","","","","","","","","","","","","","","","","","","","","","","","","","","","","","","","","","","","","","","","","","","","","",""
"","","","","","html-keyboard-response","191","295731","0.0-5.0-1.0-1.0-0.0-2.1-0.1-0.1-0.12","null","fixation","null","<p style='font-size: 48px; color: white'>+</p >","","","","","","","","","","","","","","","","","","","","","","","","","","","","","","","","","","","","","","","","","","","","","","",""
"","","","","","rdk","192","297393","0.0-5.0-1.0-1.0-0.0-2.1-0.1-0.1-1.12","1160","color_test","d","","false","[""d"",""k""]","k","3000","true","1","100","0","0","0","5.7","1","-1","3","550","550","[""hsl(0, 50%, 50%)"",""hsl(225, 50%, 50%)""]","[""hsl(225, 50%, 50%)"",""hsl(0, 50%, 50%)""]","6","0.52","0","circle","black","3","2","2","16.65714285714286","[7,17,16,16,17,17,17,17,17,17,17,16,17,17,17,17,17,16,17,17,17,17,16,17,17,16,17,17,16,17,17,17,16,17,17,17,16,17,17,17,17,17,17,17,17,16,17,16,17,17,17,17,16,17,17,17,17,17,17,17,17,17,17,16,17,16,18,16,17,17]","70","965","360","false","20","20","black","1","false","1","1","1820","630","k","staircase_color","","","",""
"","","","","","html-keyboard-response","193","298410","0.0-5.0-1.0-1.0-0.0-2.1-0.1-0.1-2.12","null","","null","<p style='font-size: 60px; color: red'>错误!</p>","","","","","","","","","","","","","","","","","","","","","","","","","","","","","","","","","","","","","","","","","","","","","","",""
"","","","","","html-keyboard-response","194","299425","0.0-5.0-1.0-1.0-0.0-2.1-0.1-0.1-0.13","null","fixation","null","<p style='font-size: 48px; color: white'>+</p >","","","","","","","","","","","","","","","","","","","","","","","","","","","","","","","","","","","","","","","","","","","","","","",""
"","","","","","rdk","195","300865","0.0-5.0-1.0-1.0-0.0-2.1-0.1-0.1-1.13","932","color_test","k","","false","[""d"",""k""]","d","3000","true","1","100","0","0","0","5.7","1","-1","3","550","550","[""hsl(0, 50%, 50%)"",""hsl(225, 50%, 50%)""]","[""hsl(0, 50%, 50%)"",""hsl(225, 50%, 50%)""]","6","0.52","0","circle","black","3","2","2","16.696428571428573","[7,17,17,17,17,17,17,17,17,16,17,16,17,17,17,17,17,17,17,17,17,17,16,17,17,17,17,17,17,17,17,17,17,17,17,16,17,17,17,17,17,17,17,16,17,17,17,16,17,17,16,17,17,17,17,17]","56","965","360","false","20","20","black","1","false","1","1","1820","630","d","staircase_color","","","",""
"","","","","","html-keyboard-response","196","301878","0.0-5.0-1.0-1.0-0.0-2.1-0.1-0.1-2.13","null","","null","<p style='font-size: 60px; color: red'>错误!</p>","","","","","","","","","","","","","","","","","","","","","","","","","","","","","","","","","","","","","","","","","","","","","","",""
"","","","","","html-keyboard-response","197","302896","0.0-5.0-1.0-1.0-0.0-2.1-0.1-0.1-0.14","null","fixation","null","<p style='font-size: 48px; color: white'>+</p >","","","","","","","","","","","","","","","","","","","","","","","","","","","","","","","","","","","","","","","","","","","","","","",""
"","","","","","rdk","198","304417","0.0-5.0-1.0-1.0-0.0-2.1-0.1-0.1-1.14","1007","color_test","d","","false","[""d"",""k""]","k","3000","true","1","100","0","0","0","5.7","1","-1","3","550","550","[""hsl(0, 50%, 50%)"",""hsl(225, 50%, 50%)""]","[""hsl(225, 50%, 50%)"",""hsl(0, 50%, 50%)""]","6","0.52","0","circle","black","3","2","2","16.766666666666666","[13,17,17,17,17,17,17,17,17,17,16,17,17,16,17,17,17,16,17,17,16,17,16,17,17,17,16,17,17,17,17,17,17,17,17,17,17,17,17,17,16,17,17,17,16,17,17,17,17,17,16,17,17,17,17,16,17,17,17,17]","60","965","360","false","20","20","black","1","false","1","1","1820","630","k","staircase_color","","","",""
"","","","","","html-keyboard-response","199","305444","0.0-5.0-1.0-1.0-0.0-2.1-0.1-0.1-2.14","null","","null","<p style='font-size: 60px; color: red'>错误!</p>","","","","","","","","","","","","","","","","","","","","","","","","","","","","","","","","","","","","","","","","","","","","","","",""
"","","","","","html-keyboard-response","200","306462","0.0-5.0-1.0-1.0-0.0-2.1-0.1-0.1-0.15","null","fixation","null","<p style='font-size: 48px; color: white'>+</p >","","","","","","","","","","","","","","","","","","","","","","","","","","","","","","","","","","","","","","","","","","","","","","",""
"","","","","","rdk","201","308226","0.0-5.0-1.0-1.0-0.0-2.1-0.1-0.1-1.15","1251","color_test","d","","true","[""d"",""k""]","d","3000","true","1","100","0","0","0","5.7","1","-1","3","550","550","[""hsl(0, 50%, 50%)"",""hsl(225, 50%, 50%)""]","[""hsl(0, 50%, 50%)"",""hsl(225, 50%, 50%)""]","6","0.52","0","circle","black","3","2","2","16.85333333333333","[16,17,17,16,17,17,17,17,17,17,17,17,17,17,17,16,17,17,17,17,17,18,15,17,17,17,17,16,17,17,17,17,17,17,17,17,17,16,17,16,17,17,17,17,16,17,17,16,17,17,17,17,17,17,17,17,17,17,17,17,17,17,17,17,16,17,17,17,16,17,17,17,17,17,17]","75","965","360","false","20","20","black","1","false","1","1","1820","630","d","staircase_color","","","",""
"","","","","","html-keyboard-response","202","309244","0.0-5.0-1.0-1.0-0.0-2.1-0.1-0.1-2.15","null","","null","<p style='font-size: 60px; color: green'>正确!</p>","","","","","","","","","","","","","","","","","","","","","","","","","","","","","","","","","","","","","","","","","","","","","","",""
"","","","","","html-keyboard-response","203","310262","0.0-5.0-1.0-1.0-0.0-2.1-0.1-0.1-0.16","null","fixation","null","<p style='font-size: 48px; color: white'>+</p >","","","","","","","","","","","","","","","","","","","","","","","","","","","","","","","","","","","","","","","","","","","","","","",""
"","","","","","rdk","204","311585","0.0-5.0-1.0-1.0-0.0-2.1-0.1-0.1-1.16","820","color_test","k","","true","[""d"",""k""]","k","3000","true","1","100","0","0","0","5.7","1","-1","3","550","550","[""hsl(0, 50%, 50%)"",""hsl(225, 50%, 50%)""]","[""hsl(225, 50%, 50%)"",""hsl(0, 50%, 50%)""]","6","0.52","0","circle","black","3","2","2","16.6734693877551","[8,17,17,17,17,17,17,16,17,17,17,16,17,17,17,16,17,16,17,17,17,17,17,17,17,17,17,17,17,17,17,16,17,17,16,17,17,17,17,17,17,17,17,16,17,17,17,17,17]","49","965","360","false","20","20","black","1","false","1","1","1820","630","k","staircase_color","","","",""
"","","","","","html-keyboard-response","205","312611","0.0-5.0-1.0-1.0-0.0-2.1-0.1-0.1-2.16","null","","null","<p style='font-size: 60px; color: green'>正确!</p>","","","","","","","","","","","","","","","","","","","","","","","","","","","","","","","","","","","","","","","","","","","","","","",""
"","","","","","html-keyboard-response","206","313626","0.0-5.0-1.0-1.0-0.0-2.1-0.1-0.1-0.17","null","fixation","null","<p style='font-size: 48px; color: white'>+</p >","","","","","","","","","","","","","","","","","","","","","","","","","","","","","","","","","","","","","","","","","","","","","","",""
"","","","","","rdk","207","315026","0.0-5.0-1.0-1.0-0.0-2.1-0.1-0.1-1.17","892","color_test","d","","true","[""d"",""k""]","d","3000","true","1","100","0","0","0","5.7","1","-1","3","550","550","[""hsl(0, 50%, 50%)"",""hsl(225, 50%, 50%)""]","[""hsl(0, 50%, 50%)"",""hsl(225, 50%, 50%)""]","6","0.52","0","circle","black","3","2","2","16.703703703703702","[7,17,17,17,17,17,17,17,17,17,16,17,17,17,18,16,17,17,17,17,17,17,17,16,17,17,17,17,17,17,17,17,17,17,16,17,16,17,17,17,17,17,16,17,17,17,17,17,17,17,17,16,17,17]","54","965","360","false","20","20","black","1","false","1","1","1820","630","d","staircase_color","","","",""
"","","","","","html-keyboard-response","208","316045","0.0-5.0-1.0-1.0-0.0-2.1-0.1-0.1-2.17","null","","null","<p style='font-size: 60px; color: green'>正确!</p>","","","","","","","","","","","","","","","","","","","","","","","","","","","","","","","","","","","","","","","","","","","","","","",""
"","","","","","html-keyboard-response","209","317063","0.0-5.0-1.0-1.0-0.0-2.1-0.1-0.1-0.18","null","fixation","null","<p style='font-size: 48px; color: white'>+</p >","","","","","","","","","","","","","","","","","","","","","","","","","","","","","","","","","","","","","","","","","","","","","","",""
"","","","","","rdk","210","318769","0.0-5.0-1.0-1.0-0.0-2.1-0.1-0.1-1.18","1196","color_test","d","","true","[""d"",""k""]","d","3000","true","1","100","0","0","0","5.7","1","-1","3","550","550","[""hsl(0, 50%, 50%)"",""hsl(225, 50%, 50%)""]","[""hsl(0, 50%, 50%)"",""hsl(225, 50%, 50%)""]","6","0.52","0","circle","black","3","2","2","16.887323943661972","[17,17,16,17,17,17,16,17,16,17,17,17,17,17,17,17,17,17,17,17,17,17,17,17,16,17,17,17,17,17,17,17,17,17,17,17,17,17,17,17,17,17,17,17,17,17,17,16,17,17,17,17,17,17,17,17,17,17,17,17,16,17,16,17,17,17,17,17,17,16,17]","71","965","360","false","20","20","black","1","false","1","1","1820","630","d","staircase_color","","","",""
"","","","","","html-keyboard-response","211","319794","0.0-5.0-1.0-1.0-0.0-2.1-0.1-0.1-2.18","null","","null","<p style='font-size: 60px; color: green'>正确!</p>","","","","","","","","","","","","","","","","","","","","","","","","","","","","","","","","","","","","","","","","","","","","","","",""
"","","","","","html-keyboard-response","212","320812","0.0-5.0-1.0-1.0-0.0-2.1-0.1-0.1-0.19","null","fixation","null","<p style='font-size: 48px; color: white'>+</p >","","","","","","","","","","","","","","","","","","","","","","","","","","","","","","","","","","","","","","","","","","","","","","",""
"","","","","","rdk","213","322417","0.0-5.0-1.0-1.0-0.0-2.1-0.1-0.1-1.19","1100","color_test","k","","true","[""d"",""k""]","k","3000","true","1","100","0","0","0","5.7","1","-1","3","550","550","[""hsl(0, 50%, 50%)"",""hsl(225, 50%, 50%)""]","[""hsl(225, 50%, 50%)"",""hsl(0, 50%, 50%)""]","6","0.52","0","circle","black","3","2","2","16.71212121212121","[6,17,17,17,17,17,17,17,17,17,16,17,17,17,17,17,16,17,17,16,17,17,17,17,17,17,17,16,17,17,16,17,17,17,16,17,17,17,17,16,17,17,17,17,17,17,16,17,17,17,17,17,17,17,17,17,17,17,17,17,17,17,17,17,17,17]","66","965","360","false","20","20","black","1","false","1","1","1820","630","k","staircase_color","","","",""
"","","","","","html-keyboard-response","214","323431","0.0-5.0-1.0-1.0-0.0-2.1-0.1-0.1-2.19","null","","null","<p style='font-size: 60px; color: green'>正确!</p>","","","","","","","","","","","","","","","","","","","","","","","","","","","","","","","","","","","","","","","","","","","","","","",""
"","","","","","html-keyboard-response","215","324447","0.0-5.0-1.0-1.0-0.0-2.1-0.1-0.1-0.20","null","fixation","null","<p style='font-size: 48px; color: white'>+</p >","","","","","","","","","","","","","","","","","","","","","","","","","","","","","","","","","","","","","","","","","","","","","","",""
"","","","","","rdk","216","325985","0.0-5.0-1.0-1.0-0.0-2.1-0.1-0.1-1.20","1030","color_test","k","","true","[""d"",""k""]","k","3000","true","1","100","0","0","0","5.7","1","-1","3","550","550","[""hsl(0, 50%, 50%)"",""hsl(225, 50%, 50%)""]","[""hsl(225, 50%, 50%)"",""hsl(0, 50%, 50%)""]","6","0.52","0","circle","black","3","2","2","16.661290322580644","[4,15,17,17,16,17,17,17,17,17,17,17,17,17,17,17,17,17,17,17,17,17,17,17,17,17,17,17,16,17,17,17,16,17,17,17,16,17,16,17,17,17,17,17,17,17,17,16,17,17,17,17,17,17,17,17,17,17,17,17,17,17]","62","965","360","false","20","20","black","1","false","1","1","1820","630","k","staircase_color","","","",""
"","","","","","html-keyboard-response","217","327010","0.0-5.0-1.0-1.0-0.0-2.1-0.1-0.1-2.20","null","","null","<p style='font-size: 60px; color: green'>正确!</p>","","","","","","","","","","","","","","","","","","","","","","","","","","","","","","","","","","","","","","","","","","","","","","",""
"","","","","","html-keyboard-response","218","328039","0.0-5.0-1.0-1.0-0.0-2.1-0.1-0.1-0.21","null","fixation","null","<p style='font-size: 48px; color: white'>+</p >","","","","","","","","","","","","","","","","","","","","","","","","","","","","","","","","","","","","","","","","","","","","","","",""
"","","","","","rdk","219","329970","0.0-5.0-1.0-1.0-0.0-2.1-0.1-0.1-1.21","1425","color_test","k","","false","[""d"",""k""]","d","3000","true","1","100","0","0","0","5.7","1","-1","3","550","550","[""hsl(0, 50%, 50%)"",""hsl(225, 50%, 50%)""]","[""hsl(0, 50%, 50%)"",""hsl(225, 50%, 50%)""]","6","0.52","0","circle","black","3","2","2","16.83529411764706","[12,17,16,17,17,17,17,17,17,17,17,17,17,17,17,17,16,17,17,17,17,17,17,17,17,17,17,17,17,17,17,17,17,17,17,16,17,17,17,17,16,17,17,17,17,17,17,17,17,17,17,17,17,17,17,17,17,17,17,17,16,17,17,16,17,17,16,17,17,17,17,17,17,17,17,17,17,17,17,16,17,17,17,16,17]","85","965","360","false","20","20","black","1","false","1","1","1820","630","d","staircase_color","","","",""
"","","","","","html-keyboard-response","220","330982","0.0-5.0-1.0-1.0-0.0-2.1-0.1-0.1-2.21","null","","null","<p style='font-size: 60px; color: red'>错误!</p>","","","","","","","","","","","","","","","","","","","","","","","","","","","","","","","","","","","","","","","","","","","","","","",""
"","","","","","html-keyboard-response","221","331993","0.0-5.0-1.0-1.0-0.0-2.1-0.1-0.1-0.22","null","fixation","null","<p style='font-size: 48px; color: white'>+</p >","","","","","","","","","","","","","","","","","","","","","","","","","","","","","","","","","","","","","","","","","","","","","","",""
"","","","","","rdk","222","333537","0.0-5.0-1.0-1.0-0.0-2.1-0.1-0.1-1.22","1031","color_test","k","","false","[""d"",""k""]","d","3000","true","1","100","0","0","0","5.7","1","-1","3","550","550","[""hsl(0, 50%, 50%)"",""hsl(225, 50%, 50%)""]","[""hsl(0, 50%, 50%)"",""hsl(225, 50%, 50%)""]","6","0.52","0","circle","black","3","2","2","16.9672131147541","[17,17,17,17,17,17,17,17,17,17,17,17,17,17,17,17,17,17,17,17,17,17,17,17,17,17,17,17,17,17,17,16,17,17,17,17,17,17,17,17,17,17,17,17,17,17,17,16,17,17,17,17,17,17,17,17,17,17,17,17,17]","61","965","360","false","20","20","black","1","false","1","1","1820","630","d","staircase_color","","","",""
"","","","","","html-keyboard-response","223","334561","0.0-5.0-1.0-1.0-0.0-2.1-0.1-0.1-2.22","null","","null","<p style='font-size: 60px; color: red'>错误!</p>","","","","","","","","","","","","","","","","","","","","","","","","","","","","","","","","","","","","","","","","","","","","","","",""
"","","","","","html-keyboard-response","224","335579","0.0-5.0-1.0-1.0-0.0-2.1-0.1-0.1-0.23","null","fixation","null","<p style='font-size: 48px; color: white'>+</p >","","","","","","","","","","","","","","","","","","","","","","","","","","","","","","","","","","","","","","","","","","","","","","",""
"","","","","","rdk","225","337505","0.0-5.0-1.0-1.0-0.0-2.1-0.1-0.1-1.23","1412","color_test","d","","false","[""d"",""k""]","k","3000","true","1","100","0","0","0","5.7","1","-1","3","550","550","[""hsl(0, 50%, 50%)"",""hsl(225, 50%, 50%)""]","[""hsl(225, 50%, 50%)"",""hsl(0, 50%, 50%)""]","6","0.52","0","circle","black","3","2","2","16.797619047619047","[13,17,16,17,16,17,17,16,17,17,17,17,17,17,17,17,17,17,17,16,17,17,17,17,16,17,17,16,17,17,17,16,17,16,17,17,17,16,17,17,17,17,17,17,17,16,17,17,17,17,17,16,17,17,17,17,17,17,17,17,17,17,17,17,17,17,17,17,17,17,17,16,17,17,17,17,16,17,17,17,17,17,17,17]","84","965","360","false","20","20","black","1","false","1","1","1820","630","k","staircase_color","","","",""
"","","","","","html-keyboard-response","226","338514","0.0-5.0-1.0-1.0-0.0-2.1-0.1-0.1-2.23","null","","null","<p style='font-size: 60px; color: red'>错误!</p>","","","","","","","","","","","","","","","","","","","","","","","","","","","","","","","","","","","","","","","","","","","","","","",""
"","","","","","html-keyboard-response","227","341018","0.0-5.0-1.0-1.0-0.0-2.1-0.1-1.1","null","","null","<p style='font-size: 35px; color: white'>您的正确率为： 50% 。平均反应时为：1105毫秒。</p>","","","","","","","","","","","","","","","","","","","","","","","","","","","","","","","","","","","","","","","","","","","","","","",""
"","","","","","html-keyboard-response","228","342023","0.0-5.0-1.0-1.0-0.0-3.0-0.0-0.0-0.0","null","fixation","null","<p style='font-size: 48px; color: white'>+</p >","","","","","","","","","","","","","","","","","","","","","","","","","","","","","","","","","","","","","","","","","","","","","","",""
"","","","","","rdk","229","343842","0.0-5.0-1.0-1.0-0.0-3.0-0.0-0.0-1.0","1315","color_test","k","","true","[""d"",""k""]","k","3000","true","1","100","0","0","0","5.7","1","-1","3","550","550","[""hsl(0, 50%, 50%)"",""hsl(225, 50%, 50%)""]","[""hsl(225, 50%, 50%)"",""hsl(0, 50%, 50%)""]","6","0.52","0","circle","black","3","2","2","16.848101265822784","[13,17,17,17,17,16,17,17,17,17,16,17,17,17,17,16,17,17,17,17,16,17,17,17,17,17,17,17,17,16,17,17,17,16,17,17,17,17,17,16,17,17,17,17,17,17,17,17,17,17,17,17,17,17,17,17,17,17,17,17,17,17,17,17,17,17,17,17,17,17,17,17,17,16,17,17,17,17,17]","79","965","360","false","20","20","black","1","false","1","1","1820","630","k","staircase_color","","","",""
"","","","","","html-keyboard-response","230","344860","0.0-5.0-1.0-1.0-0.0-3.0-0.0-0.0-2.0","null","","null","<p style='font-size: 60px; color: green'>正确!</p>","","","","","","","","","","","","","","","","","","","","","","","","","","","","","","","","","","","","","","","","","","","","","","",""
"","","","","","html-keyboard-response","231","345878","0.0-5.0-1.0-1.0-0.0-3.0-0.0-0.0-0.1","null","fixation","null","<p style='font-size: 48px; color: white'>+</p >","","","","","","","","","","","","","","","","","","","","","","","","","","","","","","","","","","","","","","","","","","","","","","",""
"","","","","","rdk","232","347586","0.0-5.0-1.0-1.0-0.0-3.0-0.0-0.0-1.1","1204","color_test","d","","false","[""d"",""k""]","k","3000","true","1","100","0","0","0","5.7","1","-1","3","550","550","[""hsl(0, 50%, 50%)"",""hsl(225, 50%, 50%)""]","[""hsl(225, 50%, 50%)"",""hsl(0, 50%, 50%)""]","6","0.52","0","circle","black","3","2","2","16.72222222222222","[9,17,17,17,17,17,17,16,17,17,16,17,17,17,16,17,17,17,17,17,16,17,17,17,17,16,17,17,17,17,17,17,17,16,17,17,17,17,17,17,16,17,17,17,16,17,16,17,16,17,17,17,17,17,17,17,17,17,17,16,17,17,17,17,17,17,17,17,16,17,17,17]","72","965","360","false","20","20","black","1","false","1","1","1820","630","k","staircase_color","","","",""
"","","","","","html-keyboard-response","233","348611","0.0-5.0-1.0-1.0-0.0-3.0-0.0-0.0-2.1","null","","null","<p style='font-size: 60px; color: red'>错误!</p>","","","","","","","","","","","","","","","","","","","","","","","","","","","","","","","","","","","","","","","","","","","","","","",""
"","","","","","html-keyboard-response","234","349630","0.0-5.0-1.0-1.0-0.0-3.0-0.0-0.0-0.2","null","fixation","null","<p style='font-size: 48px; color: white'>+</p >","","","","","","","","","","","","","","","","","","","","","","","","","","","","","","","","","","","","","","","","","","","","","","",""
"","","","","","rdk","235","351106","0.0-5.0-1.0-1.0-0.0-3.0-0.0-0.0-1.2","971","color_test","k","","false","[""d"",""k""]","d","3000","true","1","100","0","0","0","5.7","1","-1","3","550","550","[""hsl(0, 50%, 50%)"",""hsl(225, 50%, 50%)""]","[""hsl(0, 50%, 50%)"",""hsl(225, 50%, 50%)""]","6","0.52","0","circle","black","3","2","2","16.689655172413794","[6,17,17,17,17,17,17,17,17,17,17,17,17,17,17,16,17,17,17,17,17,17,17,17,17,17,17,17,17,17,17,17,17,17,16,17,17,17,16,17,16,17,17,17,17,17,17,17,17,17,16,17,17,17,16,17,17,16]","58","965","360","false","20","20","black","1","false","1","1","1820","630","d","staircase_color","","","",""
"","","","","","html-keyboard-response","236","352127","0.0-5.0-1.0-1.0-0.0-3.0-0.0-0.0-2.2","null","","null","<p style='font-size: 60px; color: red'>错误!</p>","","","","","","","","","","","","","","","","","","","","","","","","","","","","","","","","","","","","","","","","","","","","","","",""
"","","","","","html-keyboard-response","237","353140","0.0-5.0-1.0-1.0-0.0-3.0-0.0-0.0-0.3","null","fixation","null","<p style='font-size: 48px; color: white'>+</p >","","","","","","","","","","","","","","","","","","","","","","","","","","","","","","","","","","","","","","","","","","","","","","",""
