"success","timeout","failed_images","failed_audio","failed_video","trial_type","trial_index","time_elapsed","internal_node_id","rt","part","response","stimulus","correct","choices","correct_choice","trial_duration","response_ends_trial","number_of_apertures","number_of_dots","coherent_direction","coherence","opposite_coherence","dot_radius","dot_side_length","dot_life","move_distance","aperture_width","aperture_height","dot_color","dot_color_final","color_change_delay","target_color_proportion","motion_change_delay","dot_shape","background_color","RDK_type","aperture_type","reinsert_type","frame_rate","frame_rate_array","number_of_frames","aperture_center_x","aperture_center_y","fixation_cross","fixation_cross_width","fixation_cross_height","fixation_cross_color","fixation_cross_thickness","border","border_thickness","border_color","canvas_width","canvas_height","correct_response","data_label","task","difficulty","isMatch","association","label"
"true","false","[]","[]","[]","preload","0","5","0.0-0.0","","","","","","","","","","","","","","","","","","","","","","","","","","","","","","","","","","","","","","","","","","","","","","","","","","","",""
"true","","","","","fullscreen","1","1354246","0.0-1.0","1352379","fullScreen","","","","","","","","","","","","","","","","","","","","","","","","","","","","","","","","","","","","","","","","","","","","","","","","","",""
"","","","","","survey","2","1363686","0.0-2.0","8574","survey","{""sex"":""女"",""age"":24,""hands"":""右"",""color_blindness"":""都不是""}","","","","","","","","","","","","","","","","","","","","","","","","","","","","","","","","","","","","","","","","","","","","","","","","",""
"","","","","","survey-text","3","1370590","0.0-3.0","6060","color_test","{""Q0"":""be""}","","","","","","","","","","","","","","","","","","","","","","","","","","","","","","","","","","","","","","","","","","","","","","","","",""
"","","","","","html-keyboard-response","4","1374150","0.0-4.0","2707","instruction_beginning"," ","
      <div style=""text-align: left; color: white"">
        <h3 style=""text-align: center; font-size: 30px; margin: 0;"">欢迎参与本实验</h3>
          <p>为充分保障您的权利，请确保您已经知晓并同意《参与实验同意书》以及《数据公开知情同意书》，</p>
          <p>如果您未见过上述内容，请咨询实验员 ，</p>
          <p>如果您选择继续实验，则表示您已经清楚两份知情同意书的内容并同意 。</p>
          <p>在整个实验中，您需要完成两项任务，具体的任务要求会在后面说明 ，</p>
          <p>请按空格键进入实验</p >
      </div>","","","","","","","","","","","","","","","","","","","","","","","","","","","","","","","","","","","","","","","","","","","","","","","",""
"","","","","","html-keyboard-response","5","1395942","0.0-5.0-0.0","20947","instruction_getThreshold"," ","
      <div style=""text-align: left; color: white; padding: 10px""> 
        <h3 style=""text-align: center; font-size: 30px; margin: 10px"">欢迎进入实验！</h3>
        <p>在正式开始前，我们将通过一个快速测试为您打造专属的难度水平。<p>
        <p>接下来，屏幕上会呈现一些运动的彩色圆点，</p>
        <p>其中一定比例的点 <span style=""font-weight: bold"">一致地向左或向右运动</span> ，其余点随机运动</p >
        <p>您需要忽略点的颜色并在3秒内判断 <span style=""font-weight: bold"">一致的运动方向是向左还是向右</span>:</p >
        <ul>
          <li><span style=""font-weight: bold"">向左</span>，请按键盘 <span style=""font-weight: bold"">左键</span></li>
          <li><span style=""font-weight: bold"">向右</span>，请按键盘 <span style=""font-weight: bold"">右键</span> </li>
        </ul>
        <p>如有疑问请向主试咨询，没有则按下空格键开始</p>
      </div>","","","","","","","","","","","","","","","","","","","","","","","","","","","","","","","","","","","","","","","","","","","","","","","",""
"","","","","","html-keyboard-response","6","1397294","0.0-5.0-1.0-0.0-0.0-0.0-0.0-0.0-0.0","null","fixation","null","<p style='font-size: 48px; color: white'>+</p >","","","","","","","","","","","","","","","","","","","","","","","","","","","","","","","","","","","","","","","","","","","","","","","",""
"","","","","","rdk","7","1401144","0.0-5.0-1.0-0.0-0.0-0.0-0.0-0.0-1.0","-1","motion_test","","","false","[""ArrowLeft"",""ArrowRight""]","ArrowLeft","3000","true","1","100","180","0.11","0","3","1","-1","2","300","300","[""hsl(0, 50%, 50%)"",""hsl(225, 50%, 50%)""]","[""white""]","0","0","0","circle","black","3","2","2","16.77777777777778","[1,17,17,17,17,16,17,17,17,17,16,17,17,17,17,17,17,17,17,17,17,17,17,17,17,17,17,17,16,17,17,17,17,17,17,17,17,17,17,17,17,17,17,16,17,17,17,17,17,17,16,17,17,17,17,16,17,17,17,16,17,17,17,17,16,17,17,17,16,17,17,17,17,17,17,17,17,17,17,17,17,17,17,17,17,17,17,17,17,17,16,17,16,17,17,17,17,17,17,16,16,17,17,17,17,17,17,17,17,17,17,17,17,17,16,16,17,17,17,16,17,17,17,17,17,17,17,17,16,17,17,17,17,16,17,17,17,16,17,17,17,17,17,17,16,17,17,17,17,16,17,17,17,17,17,17,17,17,17,17,17,16,17,17,16,17,17,17,17,16,17,17,17,17,17,17,17,17,17,17]","180","960","482","false","20","20","black","1","false","1","1","1920","964","ArrowLeft","staircase_motion","","","","",""
"","","","","","html-keyboard-response","8","1402499","0.0-5.0-1.0-0.0-0.0-0.0-0.0-0.0-2.0","null","","null","<p style='font-size: 60px; color: yellow'>太慢!</p>","","","","","","","","","","","","","","","","","","","","","","","","","","","","","","","","","","","","","","","","","","","","","","","",""
"","","","","","html-keyboard-response","9","1403848","0.0-5.0-1.0-0.0-0.0-0.0-0.0-0.0-0.1","null","fixation","null","<p style='font-size: 48px; color: white'>+</p >","","","","","","","","","","","","","","","","","","","","","","","","","","","","","","","","","","","","","","","","","","","","","","","",""
"","","","","","rdk","10","1406070","0.0-5.0-1.0-0.0-0.0-0.0-0.0-0.0-1.1","1378","motion_test","arrowright","","true","[""ArrowLeft"",""ArrowRight""]","ArrowRight","3000","true","1","100","0","0.11","0","3","1","-1","2","300","300","[""hsl(0, 50%, 50%)"",""hsl(225, 50%, 50%)""]","[""white""]","0","0","0","circle","black","3","2","2","16.59036144578313","[1,17,17,17,17,17,17,17,17,17,17,16,17,17,17,16,17,17,17,17,16,17,17,17,17,17,16,17,17,17,17,17,17,16,17,17,17,17,17,16,17,17,16,17,17,16,17,16,17,16,17,16,17,16,17,17,17,17,16,17,16,17,17,16,17,17,17,17,16,17,16,17,17,17,17,17,17,17,17,17,17,16,17]","83","960","482","false","20","20","black","1","false","1","1","1920","964","ArrowRight","staircase_motion","","","","",""
"","","","","","html-keyboard-response","11","1407433","0.0-5.0-1.0-0.0-0.0-0.0-0.0-0.0-2.1","null","","null","<p style='font-size: 60px; color: green'>正确!</p>","","","","","","","","","","","","","","","","","","","","","","","","","","","","","","","","","","","","","","","","","","","","","","","",""
"","","","","","html-keyboard-response","12","1408790","0.0-5.0-1.0-0.0-0.0-0.0-0.0-0.0-0.2","null","fixation","null","<p style='font-size: 48px; color: white'>+</p >","","","","","","","","","","","","","","","","","","","","","","","","","","","","","","","","","","","","","","","","","","","","","","","",""
"","","","","","rdk","13","1411222","0.0-5.0-1.0-0.0-0.0-0.0-0.0-0.0-1.2","1578","motion_test","arrowleft","","true","[""ArrowLeft"",""ArrowRight""]","ArrowLeft","3000","true","1","100","180","0.11","0","3","1","-1","2","300","300","[""hsl(0, 50%, 50%)"",""hsl(225, 50%, 50%)""]","[""white""]","0","0","0","circle","black","3","2","2","16.882978723404257","[17,17,17,17,17,16,17,17,17,17,17,17,17,16,17,17,17,17,17,17,16,17,17,17,17,17,16,17,17,17,17,17,17,17,17,17,17,17,17,17,17,16,17,17,16,17,16,17,16,17,17,17,17,16,17,17,17,17,17,17,17,17,17,17,17,17,17,17,17,16,17,17,17,17,17,17,17,17,17,17,17,16,17,17,17,17,17,17,17,17,17,17,17,17]","94","960","482","false","20","20","black","1","false","1","1","1920","964","ArrowLeft","staircase_motion","","","","",""
"","","","","","html-keyboard-response","14","1412578","0.0-5.0-1.0-0.0-0.0-0.0-0.0-0.0-2.2","null","","null","<p style='font-size: 60px; color: green'>正确!</p>","","","","","","","","","","","","","","","","","","","","","","","","","","","","","","","","","","","","","","","","","","","","","","","",""
"","","","","","html-keyboard-response","15","1413948","0.0-5.0-1.0-0.0-0.0-0.0-0.0-0.0-0.3","null","fixation","null","<p style='font-size: 48px; color: white'>+</p >","","","","","","","","","","","","","","","","","","","","","","","","","","","","","","","","","","","","","","","","","","","","","","","",""
"","","","","","rdk","16","1416846","0.0-5.0-1.0-0.0-0.0-0.0-0.0-0.0-1.3","2051","motion_test","arrowright","","true","[""ArrowLeft"",""ArrowRight""]","ArrowRight","3000","true","1","100","0","0.11","0","3","1","-1","2","300","300","[""hsl(0, 50%, 50%)"",""hsl(225, 50%, 50%)""]","[""white""]","0","0","0","circle","black","3","2","2","16.902439024390244","[15,17,17,17,17,17,16,17,17,17,16,17,17,17,17,17,17,17,17,17,17,17,17,17,17,17,17,17,17,17,16,17,17,17,17,17,17,17,17,17,16,17,16,17,17,17,17,17,17,17,16,17,17,17,17,17,17,17,17,17,17,17,17,17,17,17,17,17,17,17,17,17,17,17,17,17,17,17,17,17,16,17,17,17,17,17,17,17,16,17,17,17,17,17,17,17,17,17,16,17,17,17,17,17,17,17,17,17,17,17,17,17,17,17,17,17,17,17,17,16,17,17,17]","123","960","482","false","20","20","black","1","false","1","1","1920","964","ArrowRight","staircase_motion","","","","",""
"","","","","","html-keyboard-response","17","1418201","0.0-5.0-1.0-0.0-0.0-0.0-0.0-0.0-2.3","null","","null","<p style='font-size: 60px; color: green'>正确!</p>","","","","","","","","","","","","","","","","","","","","","","","","","","","","","","","","","","","","","","","","","","","","","","","",""
"","","","","","html-keyboard-response","18","1419568","0.0-5.0-1.0-0.0-0.0-0.0-0.0-0.0-0.4","null","fixation","null","<p style='font-size: 48px; color: white'>+</p >","","","","","","","","","","","","","","","","","","","","","","","","","","","","","","","","","","","","","","","","","","","","","","","",""
"","","","","","rdk","19","1422334","0.0-5.0-1.0-0.0-0.0-0.0-0.0-0.0-1.4","1919","motion_test","arrowleft","","false","[""ArrowLeft"",""ArrowRight""]","ArrowRight","3000","true","1","100","0","0.11","0","3","1","-1","2","300","300","[""hsl(0, 50%, 50%)"",""hsl(225, 50%, 50%)""]","[""white""]","0","0","0","circle","black","3","2","2","16.88695652173913","[13,17,16,17,17,17,17,16,17,17,17,17,17,17,17,17,17,17,16,17,17,17,17,16,17,17,17,17,17,17,17,17,17,17,16,17,17,17,17,17,17,17,17,17,17,17,17,17,17,17,16,17,17,17,17,17,17,17,16,17,17,17,17,17,17,17,17,17,17,17,16,17,17,17,17,17,17,17,17,17,17,17,17,17,17,17,17,17,17,17,17,17,17,17,17,17,17,17,17,17,17,17,17,17,17,17,17,17,17,17,16,17,17,17,17]","115","960","482","false","20","20","black","1","false","1","1","1920","964","ArrowRight","staircase_motion","","","","",""
"","","","","","html-keyboard-response","20","1423683","0.0-5.0-1.0-0.0-0.0-0.0-0.0-0.0-2.4","null","","null","<p style='font-size: 60px; color: red'>错误!</p>","","","","","","","","","","","","","","","","","","","","","","","","","","","","","","","","","","","","","","","","","","","","","","","",""
"","","","","","html-keyboard-response","21","1425038","0.0-5.0-1.0-0.0-0.0-0.0-0.0-0.0-0.5","null","fixation","null","<p style='font-size: 48px; color: white'>+</p >","","","","","","","","","","","","","","","","","","","","","","","","","","","","","","","","","","","","","","","","","","","","","","","",""
"","","","","","rdk","22","1428254","0.0-5.0-1.0-0.0-0.0-0.0-0.0-0.0-1.5","2359","motion_test","arrowleft","","false","[""ArrowLeft"",""ArrowRight""]","ArrowRight","3000","true","1","100","0","0.11","0","3","1","-1","2","300","300","[""hsl(0, 50%, 50%)"",""hsl(225, 50%, 50%)""]","[""white""]","0","0","0","circle","black","3","2","2","16.893617021276597","[16,17,17,17,17,17,17,17,17,17,17,17,17,17,17,17,17,17,17,16,17,17,17,17,17,17,17,17,17,17,17,17,17,16,17,17,17,17,17,17,17,17,16,17,16,17,17,17,17,17,17,17,17,16,17,17,17,17,16,17,17,17,17,17,17,16,17,17,17,17,17,17,17,16,17,16,17,17,17,17,17,17,17,17,17,17,17,16,17,17,17,17,17,17,17,17,17,17,17,17,17,17,17,17,16,17,17,17,17,17,17,17,17,16,17,17,17,17,17,17,16,17,17,17,17,17,17,17,17,17,17,17,17,17,16,17,17,17,17,17,17]","141","960","482","false","20","20","black","1","false","1","1","1920","964","ArrowRight","staircase_motion","","","","",""
"","","","","","html-keyboard-response","23","1429624","0.0-5.0-1.0-0.0-0.0-0.0-0.0-0.0-2.5","null","","null","<p style='font-size: 60px; color: red'>错误!</p>","","","","","","","","","","","","","","","","","","","","","","","","","","","","","","","","","","","","","","","","","","","","","","","",""
"","","","","","html-keyboard-response","24","1430968","0.0-5.0-1.0-0.0-0.0-0.0-0.0-0.0-0.6","null","fixation","null","<p style='font-size: 48px; color: white'>+</p >","","","","","","","","","","","","","","","","","","","","","","","","","","","","","","","","","","","","","","","","","","","","","","","",""
"","","","","","rdk","25","1433494","0.0-5.0-1.0-0.0-0.0-0.0-0.0-0.0-1.6","1668","motion_test","arrowright","","false","[""ArrowLeft"",""ArrowRight""]","ArrowLeft","3000","true","1","100","180","0.11","0","3","1","-1","2","300","300","[""hsl(0, 50%, 50%)"",""hsl(225, 50%, 50%)""]","[""white""]","0","0","0","circle","black","3","2","2","16.8989898989899","[18,16,17,17,17,17,17,17,17,17,17,16,17,17,17,17,17,17,17,17,17,17,17,17,17,17,17,17,17,17,17,17,16,17,17,17,17,17,16,17,17,17,16,17,17,17,17,17,17,17,17,16,17,17,17,17,17,17,16,17,16,17,17,17,17,17,17,17,17,17,17,17,17,17,16,17,17,17,17,17,17,17,17,17,17,17,16,17,17,17,17,17,17,17,17,17,16,17,17]","99","960","482","false","20","20","black","1","false","1","1","1920","964","ArrowLeft","staircase_motion","","","","",""
"","","","","","html-keyboard-response","26","1434851","0.0-5.0-1.0-0.0-0.0-0.0-0.0-0.0-2.6","null","","null","<p style='font-size: 60px; color: red'>错误!</p>","","","","","","","","","","","","","","","","","","","","","","","","","","","","","","","","","","","","","","","","","","","","","","","",""
"","","","","","html-keyboard-response","27","1436202","0.0-5.0-1.0-0.0-0.0-0.0-0.0-0.0-0.7","null","fixation","null","<p style='font-size: 48px; color: white'>+</p >","","","","","","","","","","","","","","","","","","","","","","","","","","","","","","","","","","","","","","","","","","","","","","","",""
"","","","","","rdk","28","1439462","0.0-5.0-1.0-0.0-0.0-0.0-0.0-0.0-1.7","2409","motion_test","arrowleft","","true","[""ArrowLeft"",""ArrowRight""]","ArrowLeft","3000","true","1","100","180","0.11","0","3","1","-1","2","300","300","[""hsl(0, 50%, 50%)"",""hsl(225, 50%, 50%)""]","[""white""]","0","0","0","circle","black","3","2","2","16.73793103448276","[7,17,16,17,17,17,17,17,17,17,17,17,17,17,17,17,17,17,17,17,17,17,17,17,16,17,16,17,16,17,16,17,16,17,17,17,17,16,17,17,16,17,17,17,17,17,17,17,17,17,17,16,17,17,17,17,17,16,17,16,17,17,17,16,17,16,17,17,16,17,17,17,17,17,17,17,17,16,17,17,17,17,17,17,16,17,16,17,17,17,17,17,17,17,17,16,17,16,17,17,17,16,17,17,17,16,17,17,17,16,17,17,17,16,17,17,17,16,17,17,17,17,16,17,17,17,17,17,16,17,16,17,16,17,17,17,17,17,17,17,17,17,17,17,17]","145","960","482","false","20","20","black","1","false","1","1","1920","964","ArrowLeft","staircase_motion","","","","",""
"","","","","","html-keyboard-response","29","1440817","0.0-5.0-1.0-0.0-0.0-0.0-0.0-0.0-2.7","null","","null","<p style='font-size: 60px; color: green'>正确!</p>","","","","","","","","","","","","","","","","","","","","","","","","","","","","","","","","","","","","","","","","","","","","","","","",""
"","","","","","html-keyboard-response","30","1442176","0.0-5.0-1.0-0.0-0.0-0.0-0.0-0.0-0.8","null","fixation","null","<p style='font-size: 48px; color: white'>+</p >","","","","","","","","","","","","","","","","","","","","","","","","","","","","","","","","","","","","","","","","","","","","","","","",""
"","","","","","rdk","31","1445598","0.0-5.0-1.0-0.0-0.0-0.0-0.0-0.0-1.8","2570","motion_test","arrowleft","","true","[""ArrowLeft"",""ArrowRight""]","ArrowLeft","3000","true","1","100","180","0.11","0","3","1","-1","2","300","300","[""hsl(0, 50%, 50%)"",""hsl(225, 50%, 50%)""]","[""white""]","0","0","0","circle","black","3","2","2","16.883116883116884","[16,17,17,17,17,17,17,17,17,17,16,17,17,17,17,17,17,17,17,17,17,17,17,17,17,17,17,17,17,17,17,17,17,17,17,17,16,17,17,17,17,17,17,17,17,17,17,17,17,17,17,17,17,16,17,17,17,17,17,17,17,17,17,17,17,17,16,17,17,17,17,16,17,17,16,17,17,17,17,17,17,17,17,17,17,17,17,17,17,17,17,17,17,16,17,17,17,17,17,17,17,17,17,17,17,17,17,16,17,17,16,17,16,17,16,17,16,17,17,17,17,17,16,17,16,17,17,17,17,17,16,17,17,17,17,17,16,17,17,17,17,17,17,17,17,17,17,17,17,17,17,16,17,17]","154","960","482","false","20","20","black","1","false","1","1","1920","964","ArrowLeft","staircase_motion","","","","",""
"","","","","","html-keyboard-response","32","1446945","0.0-5.0-1.0-0.0-0.0-0.0-0.0-0.0-2.8","null","","null","<p style='font-size: 60px; color: green'>正确!</p>","","","","","","","","","","","","","","","","","","","","","","","","","","","","","","","","","","","","","","","","","","","","","","","",""
"","","","","","html-keyboard-response","33","1448310","0.0-5.0-1.0-0.0-0.0-0.0-0.0-0.0-0.9","null","fixation","null","<p style='font-size: 48px; color: white'>+</p >","","","","","","","","","","","","","","","","","","","","","","","","","","","","","","","","","","","","","","","","","","","","","","","",""
"","","","","","rdk","34","1451590","0.0-5.0-1.0-0.0-0.0-0.0-0.0-0.0-1.9","2430","motion_test","arrowright","","true","[""ArrowLeft"",""ArrowRight""]","ArrowRight","3000","true","1","100","0","0.11","0","3","1","-1","2","300","300","[""hsl(0, 50%, 50%)"",""hsl(225, 50%, 50%)""]","[""white""]","0","0","0","circle","black","3","2","2","16.813793103448276","[17,16,17,17,17,17,17,17,17,17,17,17,17,17,16,17,17,17,16,17,16,17,17,17,17,17,17,17,17,17,17,16,17,17,17,17,16,17,16,17,16,17,16,17,17,17,16,17,16,17,16,17,17,17,17,17,17,17,17,16,17,17,17,17,17,17,16,17,17,16,17,17,17,16,17,17,17,17,17,17,17,17,17,16,17,16,17,17,17,17,17,17,17,17,16,17,17,17,17,17,17,17,16,17,17,16,17,17,17,17,17,17,16,17,17,17,17,17,16,17,17,17,17,17,17,16,17,17,17,16,17,17,17,17,17,17,16,17,17,17,17,17,16,17,17]","145","960","482","false","20","20","black","1","false","1","1","1920","964","ArrowRight","staircase_motion","","","","",""
"","","","","","html-keyboard-response","35","1452944","0.0-5.0-1.0-0.0-0.0-0.0-0.0-0.0-2.9","null","","null","<p style='font-size: 60px; color: green'>正确!</p>","","","","","","","","","","","","","","","","","","","","","","","","","","","","","","","","","","","","","","","","","","","","","","","",""
"","","","","","html-keyboard-response","36","1454292","0.0-5.0-1.0-0.0-0.0-0.0-0.0-0.0-0.10","null","fixation","null","<p style='font-size: 48px; color: white'>+</p >","","","","","","","","","","","","","","","","","","","","","","","","","","","","","","","","","","","","","","","","","","","","","","","",""
"","","","","","rdk","37","1457886","0.0-5.0-1.0-0.0-0.0-0.0-0.0-0.0-1.10","2749","motion_test","arrowright","","true","[""ArrowLeft"",""ArrowRight""]","ArrowRight","3000","true","1","100","0","0.11","0","3","1","-1","2","300","300","[""hsl(0, 50%, 50%)"",""hsl(225, 50%, 50%)""]","[""white""]","0","0","0","circle","black","3","2","2","16.8","[7,17,16,17,17,17,17,17,17,17,17,17,17,17,17,17,17,17,16,17,17,16,17,16,17,17,17,17,17,17,17,17,17,17,17,17,17,17,16,17,17,17,17,17,17,16,17,17,17,17,17,17,17,17,17,16,17,17,17,17,17,17,17,17,17,17,16,17,17,17,17,17,17,16,17,16,17,17,17,16,17,16,17,17,17,17,17,17,16,17,16,17,17,17,17,17,17,17,17,17,17,16,17,17,17,17,17,17,17,17,17,17,17,17,17,17,17,16,17,17,17,16,17,17,16,17,17,17,17,17,17,16,17,17,17,17,17,16,17,17,17,17,17,17,17,17,17,17,16,17,17,17,17,17,17,16,17,17,17,17,16,17,17,17,17]","165","960","482","false","20","20","black","1","false","1","1","1920","964","ArrowRight","staircase_motion","","","","",""
"","","","","","html-keyboard-response","38","1459249","0.0-5.0-1.0-0.0-0.0-0.0-0.0-0.0-2.10","null","","null","<p style='font-size: 60px; color: green'>正确!</p>","","","","","","","","","","","","","","","","","","","","","","","","","","","","","","","","","","","","","","","","","","","","","","","",""
"","","","","","html-keyboard-response","39","1460607","0.0-5.0-1.0-0.0-0.0-0.0-0.0-0.0-0.11","null","fixation","null","<p style='font-size: 48px; color: white'>+</p >","","","","","","","","","","","","","","","","","","","","","","","","","","","","","","","","","","","","","","","","","","","","","","","",""
"","","","","","rdk","40","1463181","0.0-5.0-1.0-0.0-0.0-0.0-0.0-0.0-1.11","1724","motion_test","arrowleft","","true","[""ArrowLeft"",""ArrowRight""]","ArrowLeft","3000","true","1","100","180","0.11","0","3","1","-1","2","300","300","[""hsl(0, 50%, 50%)"",""hsl(225, 50%, 50%)""]","[""white""]","0","0","0","circle","black","3","2","2","16.78846153846154","[4,16,17,17,17,17,17,17,17,16,17,16,17,17,17,17,17,17,17,17,17,17,17,17,17,17,17,17,17,17,17,17,17,17,17,17,17,17,17,17,17,17,16,17,17,17,17,17,17,17,17,17,17,17,17,17,17,17,17,17,17,16,17,17,17,17,17,17,17,16,17,17,17,17,17,17,17,17,17,17,17,16,17,17,17,17,17,17,17,17,17,17,17,17,17,17,17,17,17,16,17,17,17,16]","104","960","482","false","20","20","black","1","false","1","1","1920","964","ArrowLeft","staircase_motion","","","","",""
"","","","","","html-keyboard-response","41","1464536","0.0-5.0-1.0-0.0-0.0-0.0-0.0-0.0-2.11","null","","null","<p style='font-size: 60px; color: green'>正确!</p>","","","","","","","","","","","","","","","","","","","","","","","","","","","","","","","","","","","","","","","","","","","","","","","",""
"","","","","","html-keyboard-response","42","1467394","0.0-5.0-1.0-0.0-0.0-0.0-0.0-1.0","null","","null","<p style='font-size: 35px; color: white'>您的正确率为： 67% 。平均反应时为：1903毫秒。</p>","","","","","","","","","","","","","","","","","","","","","","","","","","","","","","","","","","","","","","","","","","","","","","","",""
"","","","","","html-keyboard-response","43","1468740","0.0-5.0-1.0-0.0-0.0-1.0-0.0-0.0-0.0","null","fixation","null","<p style='font-size: 48px; color: white'>+</p >","","","","","","","","","","","","","","","","","","","","","","","","","","","","","","","","","","","","","","","","","","","","","","","",""
"","","","","","rdk","44","1472086","0.0-5.0-1.0-0.0-0.0-1.0-0.0-0.0-1.0","2493","motion_test","arrowleft","","true","[""ArrowLeft"",""ArrowRight""]","ArrowLeft","3000","true","1","100","180","0.09","0","3","1","-1","2","300","300","[""hsl(0, 50%, 50%)"",""hsl(225, 50%, 50%)""]","[""white""]","0","0","0","circle","black","3","2","2","16.892617449664428","[17,17,17,17,17,17,17,17,17,17,17,17,16,17,17,17,17,17,17,17,16,17,17,17,17,16,17,17,17,17,17,17,17,17,17,17,17,17,17,17,17,17,17,17,17,17,16,17,17,17,17,17,17,17,16,17,17,16,17,17,17,17,17,17,17,16,17,17,16,17,17,17,16,17,17,16,17,17,17,17,17,17,17,17,17,16,16,17,17,17,17,17,17,17,17,17,16,17,17,17,17,17,17,17,17,16,17,17,17,17,17,17,17,17,17,17,17,17,17,17,17,16,17,17,17,17,17,17,17,17,17,17,17,17,17,17,17,17,17,17,17,17,17,17,17,16,17,17,17]","149","960","482","false","20","20","black","1","false","1","1","1920","964","ArrowLeft","staircase_motion","","","","",""
"","","","","","html-keyboard-response","45","1473449","0.0-5.0-1.0-0.0-0.0-1.0-0.0-0.0-2.0","null","","null","<p style='font-size: 60px; color: green'>正确!</p>","","","","","","","","","","","","","","","","","","","","","","","","","","","","","","","","","","","","","","","","","","","","","","","",""
"","","","","","html-keyboard-response","46","1474811","0.0-5.0-1.0-0.0-0.0-1.0-0.0-0.0-0.1","null","fixation","null","<p style='font-size: 48px; color: white'>+</p >","","","","","","","","","","","","","","","","","","","","","","","","","","","","","","","","","","","","","","","","","","","","","","","",""
"","","","","","rdk","47","1478622","0.0-5.0-1.0-0.0-0.0-1.0-0.0-0.0-1.1","2954","motion_test","arrowright","","false","[""ArrowLeft"",""ArrowRight""]","ArrowLeft","3000","true","1","100","180","0.09","0","3","1","-1","2","300","300","[""hsl(0, 50%, 50%)"",""hsl(225, 50%, 50%)""]","[""white""]","0","0","0","circle","black","3","2","2","16.84180790960452","[9,17,17,17,17,17,16,17,17,17,17,17,17,17,17,17,16,17,17,17,16,17,17,17,17,17,17,17,17,17,17,17,17,17,17,17,16,17,16,17,17,17,17,17,17,17,17,17,17,16,17,17,17,16,17,17,17,17,17,17,17,17,17,17,16,17,17,17,16,17,17,17,17,17,17,17,16,17,17,17,17,17,17,17,17,17,17,17,16,17,17,17,17,16,17,17,17,17,17,17,17,16,17,17,17,17,17,17,17,17,17,17,17,17,17,16,17,17,16,17,17,17,17,17,17,16,17,17,16,17,17,16,17,16,17,17,17,17,17,17,17,17,17,17,17,17,17,17,16,17,17,17,17,17,17,17,17,17,17,17,17,17,17,17,17,17,17,17,17,17,17,17,17,17,17,17,17]","177","960","482","false","20","20","black","1","false","1","1","1920","964","ArrowLeft","staircase_motion","","","","",""
"","","","","","html-keyboard-response","48","1479982","0.0-5.0-1.0-0.0-0.0-1.0-0.0-0.0-2.1","null","","null","<p style='font-size: 60px; color: red'>错误!</p>","","","","","","","","","","","","","","","","","","","","","","","","","","","","","","","","","","","","","","","","","","","","","","","",""
"","","","","","html-keyboard-response","49","1481344","0.0-5.0-1.0-0.0-0.0-1.0-0.0-0.0-0.2","null","fixation","null","<p style='font-size: 48px; color: white'>+</p >","","","","","","","","","","","","","","","","","","","","","","","","","","","","","","","","","","","","","","","","","","","","","","","",""
"","","","","","rdk","50","1484894","0.0-5.0-1.0-0.0-0.0-1.0-0.0-0.0-1.2","2697","motion_test","arrowleft","","false","[""ArrowLeft"",""ArrowRight""]","ArrowRight","3000","true","1","100","0","0.09","0","3","1","-1","2","300","300","[""hsl(0, 50%, 50%)"",""hsl(225, 50%, 50%)""]","[""white""]","0","0","0","circle","black","3","2","2","16.869565217391305","[14,17,17,17,16,17,16,17,17,16,17,17,17,17,17,17,17,17,17,17,17,17,17,17,17,17,17,17,17,17,17,16,17,17,17,17,16,17,17,17,17,17,17,17,17,17,17,17,17,17,17,17,16,17,17,17,17,17,17,17,17,17,17,16,17,17,17,17,17,17,17,17,17,17,17,17,16,17,16,17,17,17,17,17,16,17,17,17,17,17,17,17,17,17,17,17,16,17,17,17,17,17,16,17,17,17,16,17,17,17,17,17,17,17,17,17,17,16,17,17,17,17,17,17,17,17,17,17,17,16,17,17,17,17,17,17,17,17,17,17,17,17,17,17,17,16,17,17,17,17,17,17,17,17,17,17,16,17,16,17,17]","161","960","482","false","20","20","black","1","false","1","1","1920","964","ArrowRight","staircase_motion","","","","",""
"","","","","","html-keyboard-response","51","1486260","0.0-5.0-1.0-0.0-0.0-1.0-0.0-0.0-2.2","null","","null","<p style='font-size: 60px; color: red'>错误!</p>","","","","","","","","","","","","","","","","","","","","","","","","","","","","","","","","","","","","","","","","","","","","","","","",""
"","","","","","html-keyboard-response","52","1487618","0.0-5.0-1.0-0.0-0.0-1.0-0.0-0.0-0.3","null","fixation","null","<p style='font-size: 48px; color: white'>+</p >","","","","","","","","","","","","","","","","","","","","","","","","","","","","","","","","","","","","","","","","","","","","","","","",""
"","","","","","rdk","53","1491382","0.0-5.0-1.0-0.0-0.0-1.0-0.0-0.0-1.3","2920","motion_test","arrowright","","true","[""ArrowLeft"",""ArrowRight""]","ArrowRight","3000","true","1","100","0","0.09","0","3","1","-1","2","300","300","[""hsl(0, 50%, 50%)"",""hsl(225, 50%, 50%)""]","[""white""]","0","0","0","circle","black","3","2","2","16.857142857142858","[15,17,17,17,17,17,16,17,17,17,17,16,17,17,17,17,17,17,17,17,16,17,17,17,17,17,17,17,17,17,16,17,17,17,17,17,17,17,17,16,17,17,17,17,17,17,17,16,17,17,17,17,17,16,17,17,17,17,17,16,17,16,17,16,17,17,17,17,17,17,17,17,17,16,17,17,17,17,17,17,16,17,16,17,17,17,17,17,17,17,17,17,17,17,17,17,17,17,17,17,17,16,17,17,17,17,17,16,17,17,17,17,17,16,17,17,17,17,17,17,17,17,17,17,17,18,15,17,16,17,17,17,17,17,17,17,17,17,16,17,16,17,17,17,17,17,17,17,17,16,17,16,17,17,17,17,17,16,17,17,17,17,17,17,17,17,17,17,17,17,17,17,17,17,17]","175","960","482","false","20","20","black","1","false","1","1","1920","964","ArrowRight","staircase_motion","","","","",""
"","","","","","html-keyboard-response","54","1492742","0.0-5.0-1.0-0.0-0.0-1.0-0.0-0.0-2.3","null","","null","<p style='font-size: 60px; color: green'>正确!</p>","","","","","","","","","","","","","","","","","","","","","","","","","","","","","","","","","","","","","","","","","","","","","","","",""
"","","","","","html-keyboard-response","55","1494100","0.0-5.0-1.0-0.0-0.0-1.0-0.0-0.0-0.4","null","fixation","null","<p style='font-size: 48px; color: white'>+</p >","","","","","","","","","","","","","","","","","","","","","","","","","","","","","","","","","","","","","","","","","","","","","","","",""
"","","","","","rdk","56","1497350","0.0-5.0-1.0-0.0-0.0-1.0-0.0-0.0-1.4","2407","motion_test","arrowleft","","false","[""ArrowLeft"",""ArrowRight""]","ArrowRight","3000","true","1","100","0","0.09","0","3","1","-1","2","300","300","[""hsl(0, 50%, 50%)"",""hsl(225, 50%, 50%)""]","[""white""]","0","0","0","circle","black","3","2","2","16.895833333333332","[17,17,17,17,16,17,17,17,17,17,17,17,17,16,17,17,17,17,16,17,17,16,17,17,16,17,17,17,17,17,17,17,17,17,17,17,17,17,17,17,17,17,16,17,16,17,17,17,17,16,17,17,17,17,17,17,17,17,17,17,17,17,17,17,17,17,17,17,17,17,17,17,17,17,17,17,17,17,17,17,17,17,17,17,16,17,17,17,17,17,17,17,16,17,17,17,17,17,17,17,17,17,16,17,17,17,17,17,17,17,17,16,17,17,17,17,17,17,17,17,17,17,17,17,17,17,17,17,17,17,17,16,17,17,17,16,17,16,17,17,17,17,17,17]","144","960","482","false","20","20","black","1","false","1","1","1920","964","ArrowRight","staircase_motion","","","","",""
"","","","","","html-keyboard-response","57","1498695","0.0-5.0-1.0-0.0-0.0-1.0-0.0-0.0-2.4","null","","null","<p style='font-size: 60px; color: red'>错误!</p>","","","","","","","","","","","","","","","","","","","","","","","","","","","","","","","","","","","","","","","","","","","","","","","",""
"","","","","","html-keyboard-response","58","1500068","0.0-5.0-1.0-0.0-0.0-1.0-0.0-0.0-0.5","null","fixation","null","<p style='font-size: 48px; color: white'>+</p >","","","","","","","","","","","","","","","","","","","","","","","","","","","","","","","","","","","","","","","","","","","","","","","",""
"","","","","","rdk","59","1503718","0.0-5.0-1.0-0.0-0.0-1.0-0.0-0.0-1.5","2807","motion_test","arrowleft","","true","[""ArrowLeft"",""ArrowRight""]","ArrowLeft","3000","true","1","100","180","0.09","0","3","1","-1","2","300","300","[""hsl(0, 50%, 50%)"",""hsl(225, 50%, 50%)""]","[""white""]","0","0","0","circle","black","3","2","2","16.863095238095237","[16,17,16,17,17,16,17,17,17,16,17,17,17,17,17,16,17,17,17,17,17,17,17,16,17,17,17,17,17,16,17,17,17,17,16,17,16,17,17,17,17,17,16,17,17,17,17,17,17,17,17,17,17,17,17,17,17,17,17,17,17,16,17,17,16,17,17,17,17,17,17,17,17,17,17,16,17,17,17,16,17,17,17,17,17,17,17,17,17,17,17,17,17,17,17,17,17,17,17,17,17,17,17,17,17,17,16,17,17,17,17,17,17,17,17,17,17,17,17,17,17,17,17,16,17,16,17,17,17,17,17,16,17,17,17,17,17,17,17,17,17,16,17,17,17,17,16,17,17,16,17,17,17,17,17,17,17,17,17,17,17,17,17,16,17,16,17,17]","168","960","482","false","20","20","black","1","false","1","1","1920","964","ArrowLeft","staircase_motion","","","","",""
"","","","","","html-keyboard-response","60","1505074","0.0-5.0-1.0-0.0-0.0-1.0-0.0-0.0-2.5","null","","null","<p style='font-size: 60px; color: green'>正确!</p>","","","","","","","","","","","","","","","","","","","","","","","","","","","","","","","","","","","","","","","","","","","","","","","",""
"","","","","","html-keyboard-response","61","1506429","0.0-5.0-1.0-0.0-0.0-1.0-0.0-0.0-0.6","null","fixation","null","<p style='font-size: 48px; color: white'>+</p >","","","","","","","","","","","","","","","","","","","","","","","","","","","","","","","","","","","","","","","","","","","","","","","",""
"","","","","","rdk","62","1509718","0.0-5.0-1.0-0.0-0.0-1.0-0.0-0.0-1.6","2438","motion_test","arrowleft","","true","[""ArrowLeft"",""ArrowRight""]","ArrowLeft","3000","true","1","100","180","0.09","0","3","1","-1","2","300","300","[""hsl(0, 50%, 50%)"",""hsl(225, 50%, 50%)""]","[""white""]","0","0","0","circle","black","3","2","2","16.876712328767123","[13,17,17,17,17,17,17,17,16,17,17,17,17,17,16,17,17,17,16,17,17,17,17,17,17,17,17,17,17,17,17,17,16,17,17,17,17,17,17,17,17,17,17,16,17,17,17,17,17,17,17,17,17,17,17,17,17,17,17,16,17,16,17,17,17,17,17,17,17,17,16,17,17,17,17,17,17,17,17,17,17,17,17,17,17,17,17,17,17,17,17,17,17,17,17,17,17,17,17,17,16,17,16,17,17,17,17,17,17,17,17,17,17,17,17,17,16,17,17,17,17,17,17,17,17,17,17,17,16,17,17,17,17,17,17,17,17,17,17,17,16,17,16,17,17,17]","146","960","482","false","20","20","black","1","false","1","1","1920","964","ArrowLeft","staircase_motion","","","","",""
"","","","","","html-keyboard-response","63","1511076","0.0-5.0-1.0-0.0-0.0-1.0-0.0-0.0-2.6","null","","null","<p style='font-size: 60px; color: green'>正确!</p>","","","","","","","","","","","","","","","","","","","","","","","","","","","","","","","","","","","","","","","","","","","","","","","",""
"","","","","","html-keyboard-response","64","1512450","0.0-5.0-1.0-0.0-0.0-1.0-0.0-0.0-0.7","null","fixation","null","<p style='font-size: 48px; color: white'>+</p >","","","","","","","","","","","","","","","","","","","","","","","","","","","","","","","","","","","","","","","","","","","","","","","",""
"","","","","","rdk","65","1516311","0.0-5.0-1.0-0.0-0.0-1.0-0.0-0.0-1.7","-1","motion_test","","","false","[""ArrowLeft"",""ArrowRight""]","ArrowRight","3000","true","1","100","0","0.09","0","3","1","-1","2","300","300","[""hsl(0, 50%, 50%)"",""hsl(225, 50%, 50%)""]","[""white""]","0","0","0","circle","black","3","2","2","16.833333333333332","[4,17,17,17,17,17,16,17,17,17,16,17,17,17,17,17,17,17,17,17,17,17,17,17,17,17,16,16,17,16,17,17,17,17,17,17,17,17,17,17,17,17,17,17,17,17,17,17,17,17,17,17,16,17,17,17,17,16,17,17,17,17,17,17,17,17,17,17,17,17,17,17,17,17,17,17,17,17,17,17,17,17,17,17,17,16,17,16,17,17,17,17,17,17,17,17,17,17,17,16,17,17,17,17,17,17,17,16,17,17,17,16,17,17,17,17,17,17,17,17,17,17,17,17,17,17,17,16,17,17,17,17,17,17,17,17,17,17,17,17,17,17,17,16,17,17,17,17,17,17,17,17,16,17,17,17,17,17,17,17,17,16,17,17,17,17,17,17,17,17,17,16,17,17,17,17,17,17,17,17]","180","960","482","false","20","20","black","1","false","1","1","1920","964","ArrowRight","staircase_motion","","","","",""
"","","","","","html-keyboard-response","66","1517676","0.0-5.0-1.0-0.0-0.0-1.0-0.0-0.0-2.7","null","","null","<p style='font-size: 60px; color: yellow'>太慢!</p>","","","","","","","","","","","","","","","","","","","","","","","","","","","","","","","","","","","","","","","","","","","","","","","",""
"","","","","","html-keyboard-response","67","1519045","0.0-5.0-1.0-0.0-0.0-1.0-0.0-0.0-0.8","null","fixation","null","<p style='font-size: 48px; color: white'>+</p >","","","","","","","","","","","","","","","","","","","","","","","","","","","","","","","","","","","","","","","","","","","","","","","",""
"","","","","","rdk","68","1521846","0.0-5.0-1.0-0.0-0.0-1.0-0.0-0.0-1.8","1948","motion_test","arrowleft","","true","[""ArrowLeft"",""ArrowRight""]","ArrowLeft","3000","true","1","100","180","0.09","0","3","1","-1","2","300","300","[""hsl(0, 50%, 50%)"",""hsl(225, 50%, 50%)""]","[""white""]","0","0","0","circle","black","3","2","2","16.88888888888889","[12,17,17,17,17,17,17,17,17,17,17,17,16,17,17,17,17,16,17,17,17,17,17,17,17,17,17,17,17,17,17,17,17,17,17,17,17,17,17,17,17,16,17,17,17,17,16,17,17,17,17,17,16,17,17,17,17,17,17,17,17,17,17,17,17,17,17,17,17,17,16,17,17,17,17,17,17,17,16,17,17,17,17,17,17,17,17,17,17,17,17,17,16,17,17,17,17,17,17,17,17,17,17,17,17,17,17,17,17,17,17,17,17,17,17,17,17]","117","960","482","false","20","20","black","1","false","1","1","1920","964","ArrowLeft","staircase_motion","","","","",""
"","","","","","html-keyboard-response","69","1523200","0.0-5.0-1.0-0.0-0.0-1.0-0.0-0.0-2.8","null","","null","<p style='font-size: 60px; color: green'>正确!</p>","","","","","","","","","","","","","","","","","","","","","","","","","","","","","","","","","","","","","","","","","","","","","","","",""
"","","","","","html-keyboard-response","70","1524545","0.0-5.0-1.0-0.0-0.0-1.0-0.0-0.0-0.9","null","fixation","null","<p style='font-size: 48px; color: white'>+</p >","","","","","","","","","","","","","","","","","","","","","","","","","","","","","","","","","","","","","","","","","","","","","","","",""
"","","","","","rdk","71","1527526","0.0-5.0-1.0-0.0-0.0-1.0-0.0-0.0-1.9","2138","motion_test","arrowleft","","true","[""ArrowLeft"",""ArrowRight""]","ArrowLeft","3000","true","1","100","180","0.09","0","3","1","-1","2","300","300","[""hsl(0, 50%, 50%)"",""hsl(225, 50%, 50%)""]","[""white""]","0","0","0","circle","black","3","2","2","16.78125","[6,17,17,17,16,17,17,16,17,16,17,16,17,17,17,17,17,17,17,17,17,17,17,17,17,17,17,17,17,16,17,17,17,17,17,16,17,17,17,17,17,17,17,17,16,17,17,16,17,17,17,17,17,17,17,16,17,17,17,17,17,17,17,17,16,17,17,17,17,17,16,17,17,17,17,17,17,17,17,17,17,17,17,16,17,16,17,17,17,17,17,17,17,17,17,17,17,17,17,17,17,17,16,17,17,17,17,17,17,17,17,17,17,17,17,17,17,17,16,17,16,17,17,17,17,16,17,17]","128","960","482","false","20","20","black","1","false","1","1","1920","964","ArrowLeft","staircase_motion","","","","",""
"","","","","","html-keyboard-response","72","1528877","0.0-5.0-1.0-0.0-0.0-1.0-0.0-0.0-2.9","null","","null","<p style='font-size: 60px; color: green'>正确!</p>","","","","","","","","","","","","","","","","","","","","","","","","","","","","","","","","","","","","","","","","","","","","","","","",""
"","","","","","html-keyboard-response","73","1530234","0.0-5.0-1.0-0.0-0.0-1.0-0.0-0.0-0.10","null","fixation","null","<p style='font-size: 48px; color: white'>+</p >","","","","","","","","","","","","","","","","","","","","","","","","","","","","","","","","","","","","","","","","","","","","","","","",""
"","","","","","rdk","74","1533246","0.0-5.0-1.0-0.0-0.0-1.0-0.0-0.0-1.10","2161","motion_test","arrowright","","true","[""ArrowLeft"",""ArrowRight""]","ArrowRight","3000","true","1","100","0","0.09","0","3","1","-1","2","300","300","[""hsl(0, 50%, 50%)"",""hsl(225, 50%, 50%)""]","[""white""]","0","0","0","circle","black","3","2","2","16.815384615384616","[9,17,17,17,17,17,16,17,17,17,16,17,17,16,17,17,17,17,17,16,17,17,17,17,17,16,17,17,17,17,17,17,17,16,17,17,17,17,17,17,17,17,17,17,17,16,17,16,17,16,17,17,17,17,17,17,17,17,17,17,17,17,17,17,17,17,16,17,17,17,17,17,17,17,17,17,17,17,16,17,17,17,17,17,17,17,16,17,17,17,16,17,17,17,17,17,17,17,17,17,17,16,17,17,17,16,17,17,17,17,17,17,17,17,17,17,17,17,17,17,17,17,17,17,17,16,17,17,17,17]","130","960","482","false","20","20","black","1","false","1","1","1920","964","ArrowRight","staircase_motion","","","","",""
"","","","","","html-keyboard-response","75","1534606","0.0-5.0-1.0-0.0-0.0-1.0-0.0-0.0-2.10","null","","null","<p style='font-size: 60px; color: green'>正确!</p>","","","","","","","","","","","","","","","","","","","","","","","","","","","","","","","","","","","","","","","","","","","","","","","",""
"","","","","","html-keyboard-response","76","1535958","0.0-5.0-1.0-0.0-0.0-1.0-0.0-0.0-0.11","null","fixation","null","<p style='font-size: 48px; color: white'>+</p >","","","","","","","","","","","","","","","","","","","","","","","","","","","","","","","","","","","","","","","","","","","","","","","",""
"","","","","","rdk","77","1539811","0.0-5.0-1.0-0.0-0.0-1.0-0.0-0.0-1.11","-1","motion_test","","","false","[""ArrowLeft"",""ArrowRight""]","ArrowRight","3000","true","1","100","0","0.09","0","3","1","-1","2","300","300","[""hsl(0, 50%, 50%)"",""hsl(225, 50%, 50%)""]","[""white""]","0","0","0","circle","black","3","2","2","16.794444444444444","[8,17,17,16,17,17,17,17,17,17,17,17,17,16,17,17,17,17,16,17,17,17,17,16,17,17,17,17,17,17,17,17,17,16,17,16,17,16,17,17,17,17,17,17,17,17,17,16,17,17,17,17,17,17,17,17,17,17,17,17,17,17,17,17,17,17,17,17,17,16,17,16,17,17,17,17,17,16,17,17,17,16,17,16,17,16,17,16,17,17,17,17,16,17,16,17,17,17,17,17,17,17,17,17,17,17,17,17,16,17,17,17,17,17,17,17,17,17,17,16,17,17,17,17,17,17,17,16,17,17,17,17,17,17,17,16,17,17,17,16,17,16,17,16,17,17,17,17,17,17,17,17,17,17,16,17,17,16,17,17,17,17,17,17,17,17,17,17,16,17,17,17,17,17,17,16,17,17,17,17]","180","960","482","false","20","20","black","1","false","1","1","1920","964","ArrowRight","staircase_motion","","","","",""
"","","","","","html-keyboard-response","78","1541164","0.0-5.0-1.0-0.0-0.0-1.0-0.0-0.0-2.11","null","","null","<p style='font-size: 60px; color: yellow'>太慢!</p>","","","","","","","","","","","","","","","","","","","","","","","","","","","","","","","","","","","","","","","","","","","","","","","",""
"","","","","","html-keyboard-response","79","1544019","0.0-5.0-1.0-0.0-0.0-1.0-0.0-1.0","null","","null","<p style='font-size: 35px; color: white'>您的正确率为： 58% 。平均反应时为：2080毫秒。</p>","","","","","","","","","","","","","","","","","","","","","","","","","","","","","","","","","","","","","","","","","","","","","","","",""
"","","","","","html-keyboard-response","80","1545380","0.0-5.0-1.0-0.0-0.0-2.0-0.0-0.0-0.0","null","fixation","null","<p style='font-size: 48px; color: white'>+</p >","","","","","","","","","","","","","","","","","","","","","","","","","","","","","","","","","","","","","","","","","","","","","","","",""
"","","","","","rdk","81","1548766","0.0-5.0-1.0-0.0-0.0-2.0-0.0-0.0-1.0","2532","motion_test","arrowleft","","false","[""ArrowLeft"",""ArrowRight""]","ArrowRight","3000","true","1","100","0","0.07","0","3","1","-1","2","300","300","[""hsl(0, 50%, 50%)"",""hsl(225, 50%, 50%)""]","[""white""]","0","0","0","circle","black","3","2","2","16.79605263157895","[10,16,17,17,17,17,17,17,17,16,17,17,17,17,17,17,17,16,17,17,17,17,16,17,17,17,17,17,17,17,17,17,17,17,17,17,17,17,16,17,17,17,17,16,17,17,17,17,17,17,17,17,17,17,17,16,17,17,17,16,17,17,17,17,17,17,17,17,17,17,16,17,17,17,17,17,17,16,17,16,17,17,17,17,16,17,16,17,17,17,17,17,17,17,17,17,17,17,17,16,17,16,17,17,17,17,17,17,17,17,17,17,17,17,17,17,17,17,17,17,17,16,17,17,17,16,17,16,17,17,17,16,17,16,17,17,17,17,17,16,17,17,17,17,17,16,17,16,17,17,17,16]","152","960","482","false","20","20","black","1","false","1","1","1920","964","ArrowRight","staircase_motion","","","","",""
"","","","","","html-keyboard-response","82","1550122","0.0-5.0-1.0-0.0-0.0-2.0-0.0-0.0-2.0","null","","null","<p style='font-size: 60px; color: red'>错误!</p>","","","","","","","","","","","","","","","","","","","","","","","","","","","","","","","","","","","","","","","","","","","","","","","",""
"","","","","","html-keyboard-response","83","1551473","0.0-5.0-1.0-0.0-0.0-2.0-0.0-0.0-0.1","null","fixation","null","<p style='font-size: 48px; color: white'>+</p >","","","","","","","","","","","","","","","","","","","","","","","","","","","","","","","","","","","","","","","","","","","","","","","",""
"","","","","","rdk","84","1553862","0.0-5.0-1.0-0.0-0.0-2.0-0.0-0.0-1.1","1531","motion_test","arrowright","","true","[""ArrowLeft"",""ArrowRight""]","ArrowRight","3000","true","1","100","0","0.07","0","3","1","-1","2","300","300","[""hsl(0, 50%, 50%)"",""hsl(225, 50%, 50%)""]","[""white""]","0","0","0","circle","black","3","2","2","16.793478260869566","[13,17,17,17,17,17,17,17,17,16,17,16,17,17,17,17,16,17,17,17,17,16,17,17,17,17,17,17,16,17,17,16,17,17,17,17,17,17,16,17,17,17,16,17,17,17,17,16,17,16,17,17,17,17,17,17,17,17,16,17,17,17,17,16,17,17,16,17,17,17,17,17,17,17,17,17,17,17,17,17,17,16,17,17,17,17,17,17,16,17,17,17]","92","960","482","false","20","20","black","1","false","1","1","1920","964","ArrowRight","staircase_motion","","","","",""
"","","","","","html-keyboard-response","85","1555217","0.0-5.0-1.0-0.0-0.0-2.0-0.0-0.0-2.1","null","","null","<p style='font-size: 60px; color: green'>正确!</p>","","","","","","","","","","","","","","","","","","","","","","","","","","","","","","","","","","","","","","","","","","","","","","","",""
"","","","","","html-keyboard-response","86","1556573","0.0-5.0-1.0-0.0-0.0-2.0-0.0-0.0-0.2","null","fixation","null","<p style='font-size: 48px; color: white'>+</p >","","","","","","","","","","","","","","","","","","","","","","","","","","","","","","","","","","","","","","","","","","","","","","","",""
"","","","","","rdk","87","1559174","0.0-5.0-1.0-0.0-0.0-2.0-0.0-0.0-1.2","1757","motion_test","arrowleft","","true","[""ArrowLeft"",""ArrowRight""]","ArrowLeft","3000","true","1","100","180","0.07","0","3","1","-1","2","300","300","[""hsl(0, 50%, 50%)"",""hsl(225, 50%, 50%)""]","[""white""]","0","0","0","circle","black","3","2","2","16.83809523809524","[10,17,17,17,17,17,17,17,16,17,16,17,17,17,17,16,17,17,17,17,17,17,17,17,17,17,17,16,17,17,17,17,17,16,17,17,17,17,17,17,17,17,17,16,17,17,17,17,17,17,17,17,17,17,17,17,17,17,17,16,17,16,17,17,17,17,17,17,17,17,17,16,17,17,17,17,17,17,17,16,17,17,17,17,17,17,17,17,17,17,17,17,17,17,17,17,17,17,17,17,17,17,17,17,17]","105","960","482","false","20","20","black","1","false","1","1","1920","964","ArrowLeft","staircase_motion","","","","",""
"","","","","","html-keyboard-response","88","1560540","0.0-5.0-1.0-0.0-0.0-2.0-0.0-0.0-2.2","null","","null","<p style='font-size: 60px; color: green'>正确!</p>","","","","","","","","","","","","","","","","","","","","","","","","","","","","","","","","","","","","","","","","","","","","","","","",""
"","","","","","html-keyboard-response","89","1561911","0.0-5.0-1.0-0.0-0.0-2.0-0.0-0.0-0.3","null","fixation","null","<p style='font-size: 48px; color: white'>+</p >","","","","","","","","","","","","","","","","","","","","","","","","","","","","","","","","","","","","","","","","","","","","","","","",""
"","","","","","rdk","90","1564086","0.0-5.0-1.0-0.0-0.0-2.0-0.0-0.0-1.3","1332","motion_test","arrowleft","","true","[""ArrowLeft"",""ArrowRight""]","ArrowLeft","3000","true","1","100","180","0.07","0","3","1","-1","2","300","300","[""hsl(0, 50%, 50%)"",""hsl(225, 50%, 50%)""]","[""white""]","0","0","0","circle","black","3","2","2","16.775","[6,17,17,17,17,17,17,17,17,16,17,17,17,16,17,17,17,17,17,17,17,17,17,17,17,17,17,17,16,17,16,17,17,17,17,17,17,17,17,17,16,17,17,17,17,17,17,17,17,17,17,17,17,17,17,17,17,17,17,17,17,17,17,17,17,17,16,17,17,17,17,17,17,17,17,17,17,17,16,17]","80","960","482","false","20","20","black","1","false","1","1","1920","964","ArrowLeft","staircase_motion","","","","",""
"","","","","","html-keyboard-response","91","1565444","0.0-5.0-1.0-0.0-0.0-2.0-0.0-0.0-2.3","null","","null","<p style='font-size: 60px; color: green'>正确!</p>","","","","","","","","","","","","","","","","","","","","","","","","","","","","","","","","","","","","","","","","","","","","","","","",""
"","","","","","html-keyboard-response","92","1566803","0.0-5.0-1.0-0.0-0.0-2.0-0.0-0.0-0.4","null","fixation","null","<p style='font-size: 48px; color: white'>+</p >","","","","","","","","","","","","","","","","","","","","","","","","","","","","","","","","","","","","","","","","","","","","","","","",""
"","","","","","rdk","93","1570206","0.0-5.0-1.0-0.0-0.0-2.0-0.0-0.0-1.4","2550","motion_test","arrowright","","true","[""ArrowLeft"",""ArrowRight""]","ArrowRight","3000","true","1","100","0","0.07","0","3","1","-1","2","300","300","[""hsl(0, 50%, 50%)"",""hsl(225, 50%, 50%)""]","[""white""]","0","0","0","circle","black","3","2","2","16.705882352941178","[5,17,17,17,17,17,16,17,17,16,17,17,17,16,17,17,17,17,17,16,17,17,17,17,16,17,17,16,17,17,17,17,17,17,17,17,16,17,16,17,17,17,16,17,17,17,17,16,17,17,17,17,16,17,16,17,17,17,16,17,17,17,17,17,17,17,16,17,17,17,16,17,16,17,16,17,17,17,16,17,16,17,16,17,17,17,17,17,16,17,17,17,17,17,17,17,17,17,17,17,17,16,17,16,17,17,16,17,17,17,17,17,16,17,17,17,16,17,17,16,17,17,17,17,17,17,17,17,17,16,17,17,17,17,17,17,17,17,16,17,17,17,16,17,17,17,17,16,17,16,17,16,17]","153","960","482","false","20","20","black","1","false","1","1","1920","964","ArrowRight","staircase_motion","","","","",""
"","","","","","html-keyboard-response","94","1571573","0.0-5.0-1.0-0.0-0.0-2.0-0.0-0.0-2.4","null","","null","<p style='font-size: 60px; color: green'>正确!</p>","","","","","","","","","","","","","","","","","","","","","","","","","","","","","","","","","","","","","","","","","","","","","","","",""
"","","","","","html-keyboard-response","95","1572934","0.0-5.0-1.0-0.0-0.0-2.0-0.0-0.0-0.5","null","fixation","null","<p style='font-size: 48px; color: white'>+</p >","","","","","","","","","","","","","","","","","","","","","","","","","","","","","","","","","","","","","","","","","","","","","","","",""
"","","","","","rdk","96","1574750","0.0-5.0-1.0-0.0-0.0-2.0-0.0-0.0-1.5","972","motion_test","arrowleft","","true","[""ArrowLeft"",""ArrowRight""]","ArrowLeft","3000","true","1","100","180","0.07","0","3","1","-1","2","300","300","[""hsl(0, 50%, 50%)"",""hsl(225, 50%, 50%)""]","[""white""]","0","0","0","circle","black","3","2","2","16.96551724137931","[16,17,17,16,17,17,17,17,17,17,17,17,17,17,17,17,17,17,17,17,17,17,17,17,17,17,17,17,17,17,17,17,17,17,17,17,17,17,17,17,17,17,17,17,17,17,17,17,17,17,17,17,17,17,17,17,17,17]","58","960","482","false","20","20","black","1","false","1","1","1920","964","ArrowLeft","staircase_motion","","","","",""
"","","","","","html-keyboard-response","97","1576107","0.0-5.0-1.0-0.0-0.0-2.0-0.0-0.0-2.5","null","","null","<p style='font-size: 60px; color: green'>正确!</p>","","","","","","","","","","","","","","","","","","","","","","","","","","","","","","","","","","","","","","","","","","","","","","","",""
"","","","","","html-keyboard-response","98","1577463","0.0-5.0-1.0-0.0-0.0-2.0-0.0-0.0-0.6","null","fixation","null","<p style='font-size: 48px; color: white'>+</p >","","","","","","","","","","","","","","","","","","","","","","","","","","","","","","","","","","","","","","","","","","","","","","","",""
"","","","","","rdk","99","1580638","0.0-5.0-1.0-0.0-0.0-2.0-0.0-0.0-1.6","2327","motion_test","arrowleft","","true","[""ArrowLeft"",""ArrowRight""]","ArrowLeft","3000","true","1","100","180","0.07","0","3","1","-1","2","300","300","[""hsl(0, 50%, 50%)"",""hsl(225, 50%, 50%)""]","[""white""]","0","0","0","circle","black","3","2","2","16.884892086330936","[16,17,17,17,17,17,17,17,17,17,16,17,17,17,17,17,17,17,17,17,17,17,17,17,17,17,17,17,17,17,17,17,16,17,17,17,17,16,17,17,17,17,17,17,17,17,17,17,16,17,17,17,16,17,17,17,17,17,17,17,17,16,17,17,17,17,17,17,17,17,17,17,16,17,17,17,17,17,17,17,17,17,17,17,16,17,17,17,17,17,17,17,16,17,17,17,17,17,17,17,17,17,17,17,17,17,16,17,16,17,16,17,17,17,17,17,17,17,17,16,17,17,17,17,17,17,17,17,17,17,17,17,17,16,17,17,17,17,16]","139","960","482","false","20","20","black","1","false","1","1","1920","964","ArrowLeft","staircase_motion","","","","",""
"","","","","","html-keyboard-response","100","1581994","0.0-5.0-1.0-0.0-0.0-2.0-0.0-0.0-2.6","null","","null","<p style='font-size: 60px; color: green'>正确!</p>","","","","","","","","","","","","","","","","","","","","","","","","","","","","","","","","","","","","","","","","","","","","","","","",""
"","","","","","html-keyboard-response","101","1583347","0.0-5.0-1.0-0.0-0.0-2.0-0.0-0.0-0.7","null","fixation","null","<p style='font-size: 48px; color: white'>+</p >","","","","","","","","","","","","","","","","","","","","","","","","","","","","","","","","","","","","","","","","","","","","","","","",""
"","","","","","rdk","102","1586526","0.0-5.0-1.0-0.0-0.0-2.0-0.0-0.0-1.7","2324","motion_test","arrowright","","true","[""ArrowLeft"",""ArrowRight""]","ArrowRight","3000","true","1","100","0","0.07","0","3","1","-1","2","300","300","[""hsl(0, 50%, 50%)"",""hsl(225, 50%, 50%)""]","[""white""]","0","0","0","circle","black","3","2","2","16.820143884892087","[9,17,17,17,17,17,17,17,17,17,17,17,17,17,17,17,17,17,17,17,16,17,17,17,17,17,17,17,17,17,17,17,16,17,16,17,16,17,17,17,16,17,17,17,17,17,16,17,16,17,16,17,17,17,17,17,16,17,17,16,17,17,17,17,17,17,17,17,16,17,17,17,17,17,17,17,17,17,17,17,17,17,17,17,17,17,17,17,17,17,17,17,17,17,17,17,17,17,17,17,17,17,17,17,17,17,16,17,16,17,17,17,17,16,17,17,17,17,17,17,17,16,17,17,17,17,17,17,17,17,16,17,17,17,17,16,17,17,17]","139","960","482","false","20","20","black","1","false","1","1","1920","964","ArrowRight","staircase_motion","","","","",""
"","","","","","html-keyboard-response","103","1587877","0.0-5.0-1.0-0.0-0.0-2.0-0.0-0.0-2.7","null","","null","<p style='font-size: 60px; color: green'>正确!</p>","","","","","","","","","","","","","","","","","","","","","","","","","","","","","","","","","","","","","","","","","","","","","","","",""
"","","","","","html-keyboard-response","104","1589242","0.0-5.0-1.0-0.0-0.0-2.0-0.0-0.0-0.8","null","fixation","null","<p style='font-size: 48px; color: white'>+</p >","","","","","","","","","","","","","","","","","","","","","","","","","","","","","","","","","","","","","","","","","","","","","","","",""
"","","","","","rdk","105","1592382","0.0-5.0-1.0-0.0-0.0-2.0-0.0-0.0-1.8","2287","motion_test","arrowleft","","true","[""ArrowLeft"",""ArrowRight""]","ArrowLeft","3000","true","1","100","180","0.07","0","3","1","-1","2","300","300","[""hsl(0, 50%, 50%)"",""hsl(225, 50%, 50%)""]","[""white""]","0","0","0","circle","black","3","2","2","16.905109489051096","[16,17,17,17,17,17,16,17,17,17,17,17,17,17,17,17,17,17,16,17,17,17,17,17,17,17,17,17,17,16,18,15,17,17,16,17,16,17,17,17,17,17,17,17,17,17,17,17,17,17,17,17,17,17,17,17,17,16,17,17,17,16,17,17,17,17,17,17,17,17,17,17,17,17,17,17,16,17,17,17,17,17,17,17,17,17,17,17,16,17,17,17,17,17,17,17,17,17,17,17,17,17,17,17,17,17,17,17,17,17,17,17,17,16,17,17,17,17,17,17,17,17,17,17,17,17,17,17,17,17,16,17,17,17,17,17,17]","137","960","482","false","20","20","black","1","false","1","1","1920","964","ArrowLeft","staircase_motion","","","","",""
"","","","","","html-keyboard-response","106","1593731","0.0-5.0-1.0-0.0-0.0-2.0-0.0-0.0-2.8","null","","null","<p style='font-size: 60px; color: green'>正确!</p>","","","","","","","","","","","","","","","","","","","","","","","","","","","","","","","","","","","","","","","","","","","","","","","",""
"","","","","","html-keyboard-response","107","1595089","0.0-5.0-1.0-0.0-0.0-2.0-0.0-0.0-0.9","null","fixation","null","<p style='font-size: 48px; color: white'>+</p >","","","","","","","","","","","","","","","","","","","","","","","","","","","","","","","","","","","","","","","","","","","","","","","",""
"","","","","","rdk","108","1597990","0.0-5.0-1.0-0.0-0.0-2.0-0.0-0.0-1.9","2057","motion_test","arrowright","","false","[""ArrowLeft"",""ArrowRight""]","ArrowLeft","3000","true","1","100","180","0.07","0","3","1","-1","2","300","300","[""hsl(0, 50%, 50%)"",""hsl(225, 50%, 50%)""]","[""white""]","0","0","0","circle","black","3","2","2","16.86178861788618","[11,17,17,17,17,17,17,17,17,17,17,16,17,17,17,17,17,17,17,17,17,17,17,17,17,17,17,17,17,17,17,17,16,17,17,17,16,17,16,17,16,17,17,17,17,17,17,17,16,17,17,17,17,17,17,17,17,17,17,17,17,17,17,16,17,17,17,17,17,17,17,17,17,17,17,17,17,17,17,17,17,17,17,17,17,17,17,17,17,17,17,17,17,17,17,17,16,17,16,17,16,17,17,17,17,17,17,17,17,17,17,17,16,17,17,17,17,17,17,17,17,17,17]","123","960","482","false","20","20","black","1","false","1","1","1920","964","ArrowLeft","staircase_motion","","","","",""
"","","","","","html-keyboard-response","109","1599356","0.0-5.0-1.0-0.0-0.0-2.0-0.0-0.0-2.9","null","","null","<p style='font-size: 60px; color: red'>错误!</p>","","","","","","","","","","","","","","","","","","","","","","","","","","","","","","","","","","","","","","","","","","","","","","","",""
"","","","","","html-keyboard-response","110","1600718","0.0-5.0-1.0-0.0-0.0-2.0-0.0-0.0-0.10","null","fixation","null","<p style='font-size: 48px; color: white'>+</p >","","","","","","","","","","","","","","","","","","","","","","","","","","","","","","","","","","","","","","","","","","","","","","","",""
"","","","","","rdk","111","1603102","0.0-5.0-1.0-0.0-0.0-2.0-0.0-0.0-1.10","1541","motion_test","arrowleft","","false","[""ArrowLeft"",""ArrowRight""]","ArrowRight","3000","true","1","100","0","0.07","0","3","1","-1","2","300","300","[""hsl(0, 50%, 50%)"",""hsl(225, 50%, 50%)""]","[""white""]","0","0","0","circle","black","3","2","2","16.847826086956523","[16,17,17,17,17,17,17,17,17,16,17,17,17,16,17,17,17,17,17,17,17,17,17,17,17,17,17,17,17,17,17,16,17,17,17,17,16,17,17,17,17,17,16,17,17,17,17,16,17,17,17,17,17,16,17,16,17,16,17,16,17,17,17,17,17,17,17,17,17,17,17,17,17,17,17,16,17,17,17,17,17,17,17,17,17,17,17,16,17,16,17,17]","92","960","482","false","20","20","black","1","false","1","1","1920","964","ArrowRight","staircase_motion","","","","",""
"","","","","","html-keyboard-response","112","1604469","0.0-5.0-1.0-0.0-0.0-2.0-0.0-0.0-2.10","null","","null","<p style='font-size: 60px; color: red'>错误!</p>","","","","","","","","","","","","","","","","","","","","","","","","","","","","","","","","","","","","","","","","","","","","","","","",""
"","","","","","html-keyboard-response","113","1605819","0.0-5.0-1.0-0.0-0.0-2.0-0.0-0.0-0.11","null","fixation","null","<p style='font-size: 48px; color: white'>+</p >","","","","","","","","","","","","","","","","","","","","","","","","","","","","","","","","","","","","","","","","","","","","","","","",""
"","","","","","rdk","114","1609406","0.0-5.0-1.0-0.0-0.0-2.0-0.0-0.0-1.11","2738","motion_test","arrowleft","","false","[""ArrowLeft"",""ArrowRight""]","ArrowRight","3000","true","1","100","0","0.07","0","3","1","-1","2","300","300","[""hsl(0, 50%, 50%)"",""hsl(225, 50%, 50%)""]","[""white""]","0","0","0","circle","black","3","2","2","16.878048780487806","[9,17,17,17,17,17,17,17,17,17,17,17,17,17,17,17,17,17,17,17,17,17,17,17,17,17,17,17,16,17,17,17,17,17,17,17,17,17,17,17,17,17,17,17,17,17,17,17,17,17,17,17,17,17,17,17,17,17,17,17,17,17,17,17,17,17,16,17,17,17,17,17,17,17,17,16,17,17,17,17,17,17,17,17,17,17,16,17,17,16,17,17,17,17,17,17,17,17,17,16,17,17,16,17,17,17,17,17,17,17,17,17,17,16,17,17,17,17,17,17,17,17,17,17,16,17,17,17,17,17,17,17,17,17,17,16,17,17,17,17,17,16,17,17,17,17,17,17,17,17,17,17,17,17,17,17,17,17,16,17,17,17,17,17]","164","960","482","false","20","20","black","1","false","1","1","1920","964","ArrowRight","staircase_motion","","","","",""
"","","","","","html-keyboard-response","115","1610766","0.0-5.0-1.0-0.0-0.0-2.0-0.0-0.0-2.11","null","","null","<p style='font-size: 60px; color: red'>错误!</p>","","","","","","","","","","","","","","","","","","","","","","","","","","","","","","","","","","","","","","","","","","","","","","","",""
"","","","","","html-keyboard-response","116","1613629","0.0-5.0-1.0-0.0-0.0-2.0-0.0-1.0","null","","null","<p style='font-size: 35px; color: white'>您的正确率为： 67% 。平均反应时为：1996毫秒。</p>","","","","","","","","","","","","","","","","","","","","","","","","","","","","","","","","","","","","","","","","","","","","","","","",""
"","","","","","html-keyboard-response","117","1614998","0.0-5.0-1.0-0.0-0.0-3.0-0.0-0.0-0.0","null","fixation","null","<p style='font-size: 48px; color: white'>+</p >","","","","","","","","","","","","","","","","","","","","","","","","","","","","","","","","","","","","","","","","","","","","","","","",""
"","","","","","rdk","118","1617982","0.0-5.0-1.0-0.0-0.0-3.0-0.0-0.0-1.0","2135","motion_test","arrowleft","","true","[""ArrowLeft"",""ArrowRight""]","ArrowLeft","3000","true","1","100","180","0.03","0","3","1","-1","2","300","300","[""hsl(0, 50%, 50%)"",""hsl(225, 50%, 50%)""]","[""white""]","0","0","0","circle","black","3","2","2","16.9140625","[14,17,17,17,17,17,16,17,16,17,17,17,17,17,17,17,17,17,17,17,17,17,17,17,17,17,17,16,17,17,17,17,17,17,17,17,17,17,17,17,17,17,16,17,17,17,17,17,17,17,17,17,17,17,17,17,17,17,16,17,17,17,17,16,17,17,17,17,17,17,17,17,17,17,17,17,17,17,17,17,17,17,17,17,17,17,17,17,17,17,17,17,17,17,17,17,16,17,17,17,17,17,17,17,17,17,17,17,17,17,17,17,17,17,16,17,17,17,17,17,17,17,17,17,17,17,17,17]","128","960","482","false","20","20","black","1","false","1","1","1920","964","ArrowLeft","staircase_motion","","","","",""
"","","","","","html-keyboard-response","119","1619338","0.0-5.0-1.0-0.0-0.0-3.0-0.0-0.0-2.0","null","","null","<p style='font-size: 60px; color: green'>正确!</p>","","","","","","","","","","","","","","","","","","","","","","","","","","","","","","","","","","","","","","","","","","","","","","","",""
"","","","","","html-keyboard-response","120","1620709","0.0-5.0-1.0-0.0-0.0-3.0-0.0-0.0-0.1","null","fixation","null","<p style='font-size: 48px; color: white'>+</p >","","","","","","","","","","","","","","","","","","","","","","","","","","","","","","","","","","","","","","","","","","","","","","","",""
"","","","","","rdk","121","1624214","0.0-5.0-1.0-0.0-0.0-3.0-0.0-0.0-1.1","2653","motion_test","arrowleft","","true","[""ArrowLeft"",""ArrowRight""]","ArrowLeft","3000","true","1","100","180","0.03","0","3","1","-1","2","300","300","[""hsl(0, 50%, 50%)"",""hsl(225, 50%, 50%)""]","[""white""]","0","0","0","circle","black","3","2","2","16.89308176100629","[16,17,17,17,17,16,17,17,17,16,17,17,17,17,17,17,17,17,17,17,17,17,17,17,17,17,17,17,17,17,17,17,17,17,17,17,17,17,17,17,16,17,17,17,17,17,17,16,17,17,17,17,16,17,17,17,16,17,17,16,17,16,17,17,17,17,17,17,17,16,17,17,17,17,17,17,17,17,17,17,17,16,17,17,16,17,17,17,17,17,17,17,17,17,17,17,17,17,17,17,17,17,17,17,17,17,17,16,17,17,17,16,17,16,17,17,17,17,17,17,17,17,17,17,17,17,17,17,17,17,17,17,17,17,17,17,17,17,17,17,16,17,17,17,17,17,17,17,17,17,17,17,17,17,17,17,17,17,16]","159","960","482","false","20","20","black","1","false","1","1","1920","964","ArrowLeft","staircase_motion","","","","",""
"","","","","","html-keyboard-response","122","1625561","0.0-5.0-1.0-0.0-0.0-3.0-0.0-0.0-2.1","null","","null","<p style='font-size: 60px; color: green'>正确!</p>","","","","","","","","","","","","","","","","","","","","","","","","","","","","","","","","","","","","","","","","","","","","","","","",""
"","","","","","html-keyboard-response","123","1626929","0.0-5.0-1.0-0.0-0.0-3.0-0.0-0.0-0.2","null","fixation","null","<p style='font-size: 48px; color: white'>+</p >","","","","","","","","","","","","","","","","","","","","","","","","","","","","","","","","","","","","","","","","","","","","","","","",""
"","","","","","rdk","124","1629470","0.0-5.0-1.0-0.0-0.0-3.0-0.0-0.0-1.2","1698","motion_test","arrowright","","true","[""ArrowLeft"",""ArrowRight""]","ArrowRight","3000","true","1","100","0","0.03","0","3","1","-1","2","300","300","[""hsl(0, 50%, 50%)"",""hsl(225, 50%, 50%)""]","[""white""]","0","0","0","circle","black","3","2","2","16.784313725490197","[5,17,16,17,17,17,16,17,17,16,17,16,17,17,17,17,16,17,17,17,17,17,16,17,17,17,17,16,17,17,17,17,17,17,17,17,17,17,17,17,17,17,17,17,17,17,17,17,17,17,17,17,17,17,17,17,16,17,17,17,17,17,17,17,17,17,17,17,17,17,17,17,17,17,17,17,17,17,17,17,17,17,16,17,17,17,17,17,17,17,17,17,17,17,17,17,16,17,17,17,17,17]","102","960","482","false","20","20","black","1","false","1","1","1920","964","ArrowRight","staircase_motion","","","","",""
"","","","","","html-keyboard-response","125","1630840","0.0-5.0-1.0-0.0-0.0-3.0-0.0-0.0-2.2","null","","null","<p style='font-size: 60px; color: green'>正确!</p>","","","","","","","","","","","","","","","","","","","","","","","","","","","","","","","","","","","","","","","","","","","","","","","",""
"","","","","","html-keyboard-response","126","1632207","0.0-5.0-1.0-0.0-0.0-3.0-0.0-0.0-0.3","null","fixation","null","<p style='font-size: 48px; color: white'>+</p >","","","","","","","","","","","","","","","","","","","","","","","","","","","","","","","","","","","","","","","","","","","","","","","",""
"","","","","","rdk","127","1634806","0.0-5.0-1.0-0.0-0.0-3.0-0.0-0.0-1.3","1749","motion_test","arrowleft","","false","[""ArrowLeft"",""ArrowRight""]","ArrowRight","3000","true","1","100","0","0.03","0","3","1","-1","2","300","300","[""hsl(0, 50%, 50%)"",""hsl(225, 50%, 50%)""]","[""white""]","0","0","0","circle","black","3","2","2","16.695238095238096","[3,17,17,17,16,17,16,17,17,17,16,17,16,17,17,17,17,17,17,16,17,16,17,17,17,16,17,16,17,17,17,17,17,17,17,17,16,17,17,17,17,16,17,16,17,17,17,17,17,17,17,17,17,17,17,17,17,16,17,17,17,17,17,17,17,17,17,17,17,17,17,17,17,17,17,17,17,17,16,17,17,17,17,17,17,17,16,17,16,17,17,17,17,16,17,17,17,17,17,17,17,16,17,16,17]","105","960","482","false","20","20","black","1","false","1","1","1920","964","ArrowRight","staircase_motion","","","","",""
"","","","","","html-keyboard-response","128","1636174","0.0-5.0-1.0-0.0-0.0-3.0-0.0-0.0-2.3","null","","null","<p style='font-size: 60px; color: red'>错误!</p>","","","","","","","","","","","","","","","","","","","","","","","","","","","","","","","","","","","","","","","","","","","","","","","",""
"","","","","","html-keyboard-response","129","1637538","0.0-5.0-1.0-0.0-0.0-3.0-0.0-0.0-0.4","null","fixation","null","<p style='font-size: 48px; color: white'>+</p >","","","","","","","","","","","","","","","","","","","","","","","","","","","","","","","","","","","","","","","","","","","","","","","",""
"","","","","","rdk","130","1640630","0.0-5.0-1.0-0.0-0.0-3.0-0.0-0.0-1.4","2249","motion_test","arrowright","","true","[""ArrowLeft"",""ArrowRight""]","ArrowRight","3000","true","1","100","0","0.03","0","3","1","-1","2","300","300","[""hsl(0, 50%, 50%)"",""hsl(225, 50%, 50%)""]","[""white""]","0","0","0","circle","black","3","2","2","16.85925925925926","[13,17,17,17,17,17,17,17,16,17,17,17,17,17,17,17,17,17,17,16,17,16,17,17,17,17,17,17,17,17,17,17,17,17,17,17,16,17,17,17,17,17,17,17,17,17,17,16,17,17,17,17,17,16,17,16,17,17,17,17,17,17,17,17,17,17,17,16,17,17,17,17,17,17,17,17,17,17,17,17,17,17,17,17,17,16,17,17,17,17,17,16,17,17,17,17,17,17,17,16,17,17,17,17,17,17,16,17,17,17,17,17,17,17,17,17,17,16,17,16,17,16,17,17,17,17,17,17,17,17,17,17,17,17,17]","135","960","482","false","20","20","black","1","false","1","1","1920","964","ArrowRight","staircase_motion","","","","",""
"","","","","","html-keyboard-response","131","1641978","0.0-5.0-1.0-0.0-0.0-3.0-0.0-0.0-2.4","null","","null","<p style='font-size: 60px; color: green'>正确!</p>","","","","","","","","","","","","","","","","","","","","","","","","","","","","","","","","","","","","","","","","","","","","","","","",""
"","","","","","html-keyboard-response","132","1643333","0.0-5.0-1.0-0.0-0.0-3.0-0.0-0.0-0.5","null","fixation","null","<p style='font-size: 48px; color: white'>+</p >","","","","","","","","","","","","","","","","","","","","","","","","","","","","","","","","","","","","","","","","","","","","","","","",""
"","","","","","rdk","133","1646063","0.0-5.0-1.0-0.0-0.0-3.0-0.0-0.0-1.5","1878","motion_test","arrowleft","","true","[""ArrowLeft"",""ArrowRight""]","ArrowLeft","3000","true","1","100","180","0.03","0","3","1","-1","2","300","300","[""hsl(0, 50%, 50%)"",""hsl(225, 50%, 50%)""]","[""white""]","0","0","0","circle","black","3","2","2","16.831858407079647","[9,17,17,17,16,17,17,17,17,16,17,16,17,17,17,17,17,17,17,17,16,17,17,17,17,17,17,17,17,17,17,17,17,17,17,17,17,17,17,17,17,17,16,17,17,17,17,17,17,17,17,17,17,17,17,17,17,16,17,17,17,17,17,17,17,17,17,16,17,17,17,17,17,17,17,16,17,16,17,17,17,17,17,17,17,17,17,17,17,17,17,16,17,17,17,17,17,17,17,17,17,17,17,16,17,17,17,17,17,17,16,17,18]","113","960","482","false","20","20","black","1","false","1","1","1920","964","ArrowLeft","staircase_motion","","","","",""
"","","","","","html-keyboard-response","134","1647427","0.0-5.0-1.0-0.0-0.0-3.0-0.0-0.0-2.5","null","","null","<p style='font-size: 60px; color: green'>正确!</p>","","","","","","","","","","","","","","","","","","","","","","","","","","","","","","","","","","","","","","","","","","","","","","","",""
"","","","","","html-keyboard-response","135","1648795","0.0-5.0-1.0-0.0-0.0-3.0-0.0-0.0-0.6","null","fixation","null","<p style='font-size: 48px; color: white'>+</p >","","","","","","","","","","","","","","","","","","","","","","","","","","","","","","","","","","","","","","","","","","","","","","","",""
"","","","","","rdk","136","1651398","0.0-5.0-1.0-0.0-0.0-3.0-0.0-0.0-1.6","1750","motion_test","arrowleft","","false","[""ArrowLeft"",""ArrowRight""]","ArrowRight","3000","true","1","100","0","0.03","0","3","1","-1","2","300","300","[""hsl(0, 50%, 50%)"",""hsl(225, 50%, 50%)""]","[""white""]","0","0","0","circle","black","3","2","2","16.80952380952381","[13,17,17,17,17,17,17,17,17,16,17,17,16,17,17,17,17,16,17,17,17,17,17,17,17,17,16,17,17,17,17,17,16,17,17,17,17,17,17,16,17,17,16,17,17,17,16,17,17,17,16,17,17,17,17,17,17,17,17,17,17,17,16,17,17,17,17,17,17,17,17,17,17,17,16,17,16,17,17,17,16,17,17,17,17,17,17,17,17,16,17,17,16,17,17,17,16,17,17,17,17,17,17,17,17]","105","960","482","false","20","20","black","1","false","1","1","1920","964","ArrowRight","staircase_motion","","","","",""
"","","","","","html-keyboard-response","137","1652748","0.0-5.0-1.0-0.0-0.0-3.0-0.0-0.0-2.6","null","","null","<p style='font-size: 60px; color: red'>错误!</p>","","","","","","","","","","","","","","","","","","","","","","","","","","","","","","","","","","","","","","","","","","","","","","","",""
"","","","","","html-keyboard-response","138","1654100","0.0-5.0-1.0-0.0-0.0-3.0-0.0-0.0-0.7","null","fixation","null","<p style='font-size: 48px; color: white'>+</p >","","","","","","","","","","","","","","","","","","","","","","","","","","","","","","","","","","","","","","","","","","","","","","","",""
"","","","","","rdk","139","1657270","0.0-5.0-1.0-0.0-0.0-3.0-0.0-0.0-1.7","2326","motion_test","arrowleft","","true","[""ArrowLeft"",""ArrowRight""]","ArrowLeft","3000","true","1","100","180","0.03","0","3","1","-1","2","300","300","[""hsl(0, 50%, 50%)"",""hsl(225, 50%, 50%)""]","[""white""]","0","0","0","circle","black","3","2","2","16.906474820143885","[17,17,17,17,17,17,17,17,17,17,17,17,17,17,17,17,17,17,17,17,17,17,16,17,17,17,17,17,16,17,17,17,17,17,17,17,17,17,17,17,17,17,16,17,17,16,17,17,17,17,17,17,17,17,17,17,16,17,17,17,17,17,17,17,17,17,16,17,16,17,17,17,17,17,17,17,17,17,17,17,17,17,17,16,17,17,17,17,17,17,17,17,17,17,17,17,17,16,17,17,17,17,17,17,17,17,17,17,17,17,17,17,17,17,16,17,17,17,17,17,17,17,17,16,17,16,17,17,17,17,17,16,17,17,17,17,17,17,17]","139","960","482","false","20","20","black","1","false","1","1","1920","964","ArrowLeft","staircase_motion","","","","",""
"","","","","","html-keyboard-response","140","1658633","0.0-5.0-1.0-0.0-0.0-3.0-0.0-0.0-2.7","null","","null","<p style='font-size: 60px; color: green'>正确!</p>","","","","","","","","","","","","","","","","","","","","","","","","","","","","","","","","","","","","","","","","","","","","","","","",""
"","","","","","html-keyboard-response","141","1659993","0.0-5.0-1.0-0.0-0.0-3.0-0.0-0.0-0.8","null","fixation","null","<p style='font-size: 48px; color: white'>+</p >","","","","","","","","","","","","","","","","","","","","","","","","","","","","","","","","","","","","","","","","","","","","","","","",""
"","","","","","rdk","142","1663680","0.0-5.0-1.0-0.0-0.0-3.0-0.0-0.0-1.8","2836","motion_test","arrowleft","","true","[""ArrowLeft"",""ArrowRight""]","ArrowLeft","3000","true","1","100","180","0.03","0","3","1","-1","2","300","300","[""hsl(0, 50%, 50%)"",""hsl(225, 50%, 50%)""]","[""white""]","0","0","0","circle","black","3","2","2","16.935294117647057","[17,17,17,17,17,16,17,17,17,17,17,17,17,17,17,17,16,17,17,17,17,17,17,17,17,17,17,16,17,17,17,17,16,17,17,17,17,17,17,17,17,17,17,17,17,17,17,17,17,16,17,16,17,17,17,17,17,17,17,17,17,17,17,16,17,17,17,17,17,17,17,17,17,17,17,17,17,17,17,17,16,17,17,17,17,17,17,17,17,17,17,17,17,17,17,17,17,17,17,17,17,17,17,17,17,17,17,17,17,17,17,17,17,17,17,17,17,17,17,17,17,17,17,17,17,17,17,17,17,17,17,17,16,17,17,17,17,17,17,17,17,17,17,17,17,17,17,17,17,17,17,17,16,17,17,17,17,17,17,17,17,17,17,17,17,17,17,17,16,17]","170","960","482","false","20","20","black","1","false","1","1","1920","964","ArrowLeft","staircase_motion","","","","",""
"","","","","","html-keyboard-response","143","1665040","0.0-5.0-1.0-0.0-0.0-3.0-0.0-0.0-2.8","null","","null","<p style='font-size: 60px; color: green'>正确!</p>","","","","","","","","","","","","","","","","","","","","","","","","","","","","","","","","","","","","","","","","","","","","","","","",""
"","","","","","html-keyboard-response","144","1666409","0.0-5.0-1.0-0.0-0.0-3.0-0.0-0.0-0.9","null","fixation","null","<p style='font-size: 48px; color: white'>+</p >","","","","","","","","","","","","","","","","","","","","","","","","","","","","","","","","","","","","","","","","","","","","","","","",""
"","","","","","rdk","145","1669879","0.0-5.0-1.0-0.0-0.0-3.0-0.0-0.0-1.9","2623","motion_test","arrowleft","","true","[""ArrowLeft"",""ArrowRight""]","ArrowLeft","3000","true","1","100","180","0.03","0","3","1","-1","2","300","300","[""hsl(0, 50%, 50%)"",""hsl(225, 50%, 50%)""]","[""white""]","0","0","0","circle","black","3","2","2","16.70253164556962","[4,17,17,16,17,16,17,17,17,16,17,16,17,17,17,16,17,17,17,17,17,17,17,17,17,17,17,17,16,17,16,17,16,17,16,17,16,17,17,17,17,17,17,16,17,17,17,17,17,17,17,17,17,17,17,17,17,16,17,17,17,16,17,16,17,17,17,16,17,16,17,17,17,17,17,17,17,17,16,17,17,17,17,17,17,17,17,17,17,17,16,17,17,17,16,17,16,17,17,17,16,17,16,17,17,17,17,17,16,17,17,16,17,17,17,17,17,16,17,17,17,17,16,17,17,17,17,17,16,17,16,17,17,17,16,17,17,17,16,17,17,16,17,16,17,17,17,17,17,17,17,16,17,16,17,17,17,17]","158","960","482","false","20","20","black","1","false","1","1","1920","964","ArrowLeft","staircase_motion","","","","",""
"","","","","","html-keyboard-response","146","1671228","0.0-5.0-1.0-0.0-0.0-3.0-0.0-0.0-2.9","null","","null","<p style='font-size: 60px; color: green'>正确!</p>","","","","","","","","","","","","","","","","","","","","","","","","","","","","","","","","","","","","","","","","","","","","","","","",""
"","","","","","html-keyboard-response","147","1672587","0.0-5.0-1.0-0.0-0.0-3.0-0.0-0.0-0.10","null","fixation","null","<p style='font-size: 48px; color: white'>+</p >","","","","","","","","","","","","","","","","","","","","","","","","","","","","","","","","","","","","","","","","","","","","","","","",""
"","","","","","rdk","148","1675918","0.0-5.0-1.0-0.0-0.0-3.0-0.0-0.0-1.10","2482","motion_test","arrowright","","true","[""ArrowLeft"",""ArrowRight""]","ArrowRight","3000","true","1","100","0","0.03","0","3","1","-1","2","300","300","[""hsl(0, 50%, 50%)"",""hsl(225, 50%, 50%)""]","[""white""]","0","0","0","circle","black","3","2","2","16.80536912751678","[8,17,17,17,17,16,17,17,17,17,16,17,17,17,17,17,17,17,16,17,16,17,16,17,17,17,17,17,17,17,17,16,17,17,17,17,17,17,17,17,17,16,17,17,17,17,17,17,17,17,16,17,17,17,17,17,17,17,17,17,17,17,17,17,17,17,16,17,17,16,17,17,17,17,17,16,17,17,17,17,17,17,17,17,17,17,17,17,17,17,16,17,17,17,17,17,17,17,17,17,17,16,17,17,17,17,17,16,17,16,17,17,17,17,17,17,16,17,17,17,16,17,17,17,17,17,17,17,17,17,16,17,17,17,16,17,17,17,17,17,17,17,16,17,17,17,17,17,17]","149","960","482","false","20","20","black","1","false","1","1","1920","964","ArrowRight","staircase_motion","","","","",""
"","","","","","html-keyboard-response","149","1677273","0.0-5.0-1.0-0.0-0.0-3.0-0.0-0.0-2.10","null","","null","<p style='font-size: 60px; color: green'>正确!</p>","","","","","","","","","","","","","","","","","","","","","","","","","","","","","","","","","","","","","","","","","","","","","","","",""
"","","","","","html-keyboard-response","150","1678622","0.0-5.0-1.0-0.0-0.0-3.0-0.0-0.0-0.11","null","fixation","null","<p style='font-size: 48px; color: white'>+</p >","","","","","","","","","","","","","","","","","","","","","","","","","","","","","","","","","","","","","","","","","","","","","","","",""
"","","","","","rdk","151","1682198","0.0-5.0-1.0-0.0-0.0-3.0-0.0-0.0-1.11","2728","motion_test","arrowright","","true","[""ArrowLeft"",""ArrowRight""]","ArrowRight","3000","true","1","100","0","0.03","0","3","1","-1","2","300","300","[""hsl(0, 50%, 50%)"",""hsl(225, 50%, 50%)""]","[""white""]","0","0","0","circle","black","3","2","2","16.829268292682926","[7,17,17,16,17,16,17,17,17,17,17,17,17,17,17,17,17,17,17,17,17,17,17,17,17,17,17,17,17,17,17,17,16,17,17,17,17,17,17,16,17,17,17,17,17,17,17,17,17,17,17,17,17,17,16,17,16,17,17,16,17,17,17,17,17,17,17,17,17,17,17,16,17,17,16,17,17,17,17,17,17,17,17,17,16,17,17,17,17,17,17,17,16,17,17,17,17,17,17,17,16,17,17,17,17,16,17,17,17,17,17,17,17,17,17,17,17,17,17,17,17,16,17,17,17,16,17,17,17,17,17,17,17,16,17,17,17,17,17,17,17,17,17,16,17,17,17,16,17,17,17,17,17,17,17,17,17,17,17,17,17,17,17,17]","164","960","482","false","20","20","black","1","false","1","1","1920","964","ArrowRight","staircase_motion","","","","",""
"","","","","","html-keyboard-response","152","1683545","0.0-5.0-1.0-0.0-0.0-3.0-0.0-0.0-2.11","null","","null","<p style='font-size: 60px; color: green'>正确!</p>","","","","","","","","","","","","","","","","","","","","","","","","","","","","","","","","","","","","","","","","","","","","","","","",""
"","","","","","html-keyboard-response","153","1686407","0.0-5.0-1.0-0.0-0.0-3.0-0.0-1.0","null","","null","<p style='font-size: 35px; color: white'>您的正确率为： 83% 。平均反应时为：2259毫秒。</p>","","","","","","","","","","","","","","","","","","","","","","","","","","","","","","","","","","","","","","","","","","","","","","","",""
"","","","","","html-keyboard-response","154","1687774","0.0-5.0-1.0-0.0-0.0-4.0-0.0-0.0-0.0","null","fixation","null","<p style='font-size: 48px; color: white'>+</p >","","","","","","","","","","","","","","","","","","","","","","","","","","","","","","","","","","","","","","","","","","","","","","","",""
"","","","","","rdk","155","1691628","0.0-5.0-1.0-0.0-0.0-4.0-0.0-0.0-1.0","-1","motion_test","","","false","[""ArrowLeft"",""ArrowRight""]","ArrowLeft","3000","true","1","100","180","0.02","0","3","1","-1","2","300","300","[""hsl(0, 50%, 50%)"",""hsl(225, 50%, 50%)""]","[""white""]","0","0","0","circle","black","3","2","2","16.83888888888889","[11,16,17,17,17,17,17,17,17,16,17,17,17,17,17,17,17,17,17,17,17,17,17,17,17,16,17,17,17,17,16,17,17,17,17,17,17,17,17,17,17,17,17,17,17,16,17,16,17,17,17,17,17,17,16,17,17,17,16,17,17,16,17,17,17,16,17,17,17,17,17,16,17,17,17,16,17,17,17,17,17,17,17,16,17,17,17,17,17,17,17,17,17,17,17,17,17,17,17,17,17,16,17,17,17,16,17,16,17,17,17,17,17,17,17,17,17,17,17,17,17,17,17,17,17,17,16,17,17,16,17,17,17,16,17,17,17,17,17,17,16,17,17,17,17,17,17,17,17,17,16,17,17,17,17,17,17,16,17,17,17,17,17,17,17,17,16,17,17,17,17,17,17,17,17,17,17,17,17,17]","180","960","482","false","20","20","black","1","false","1","1","1920","964","ArrowLeft","staircase_motion","","","","",""
"","","","","","html-keyboard-response","156","1692985","0.0-5.0-1.0-0.0-0.0-4.0-0.0-0.0-2.0","null","","null","<p style='font-size: 60px; color: yellow'>太慢!</p>","","","","","","","","","","","","","","","","","","","","","","","","","","","","","","","","","","","","","","","","","","","","","","","",""
"","","","","","html-keyboard-response","157","1694343","0.0-5.0-1.0-0.0-0.0-4.0-0.0-0.0-0.1","null","fixation","null","<p style='font-size: 48px; color: white'>+</p >","","","","","","","","","","","","","","","","","","","","","","","","","","","","","","","","","","","","","","","","","","","","","","","",""
"","","","","","rdk","158","1697406","0.0-5.0-1.0-0.0-0.0-4.0-0.0-0.0-1.1","2209","motion_test","arrowright","","true","[""ArrowLeft"",""ArrowRight""]","ArrowRight","3000","true","1","100","0","0.02","0","3","1","-1","2","300","300","[""hsl(0, 50%, 50%)"",""hsl(225, 50%, 50%)""]","[""white""]","0","0","0","circle","black","3","2","2","16.848484848484848","[13,17,17,16,17,17,17,17,17,17,17,17,16,17,17,16,17,17,17,17,17,17,17,16,17,17,17,16,17,17,17,17,17,17,17,17,17,17,17,17,17,17,17,17,16,17,17,17,17,17,16,17,17,17,17,17,17,17,17,17,17,17,17,17,16,17,17,17,17,17,17,17,16,17,17,17,17,17,17,17,17,17,17,17,17,17,17,16,17,17,17,16,17,16,17,17,17,17,17,17,17,16,17,17,17,17,17,17,17,17,17,16,17,17,17,17,17,17,16,17,16,17,17,17,17,17,17,17,17,17,17,17]","132","960","482","false","20","20","black","1","false","1","1","1920","964","ArrowRight","staircase_motion","","","","",""
"","","","","","html-keyboard-response","159","1698776","0.0-5.0-1.0-0.0-0.0-4.0-0.0-0.0-2.1","null","","null","<p style='font-size: 60px; color: green'>正确!</p>","","","","","","","","","","","","","","","","","","","","","","","","","","","","","","","","","","","","","","","","","","","","","","","",""
"","","","","","html-keyboard-response","160","1700133","0.0-5.0-1.0-0.0-0.0-4.0-0.0-0.0-0.2","null","fixation","null","<p style='font-size: 48px; color: white'>+</p >","","","","","","","","","","","","","","","","","","","","","","","","","","","","","","","","","","","","","","","","","","","","","","","",""
"","","","","","rdk","161","1703222","0.0-5.0-1.0-0.0-0.0-4.0-0.0-0.0-1.2","2233","motion_test","arrowleft","","true","[""ArrowLeft"",""ArrowRight""]","ArrowLeft","3000","true","1","100","180","0.02","0","3","1","-1","2","300","300","[""hsl(0, 50%, 50%)"",""hsl(225, 50%, 50%)""]","[""white""]","0","0","0","circle","black","3","2","2","16.738805970149254","[5,17,17,17,17,17,17,17,17,17,17,17,17,17,17,18,16,17,17,17,17,17,16,17,16,17,16,17,16,17,17,17,17,17,17,16,17,17,17,17,17,17,17,17,17,17,17,17,17,17,17,17,17,17,17,17,16,17,17,16,17,16,17,17,17,17,16,17,16,17,16,17,17,16,17,17,17,17,16,17,16,17,16,17,17,17,16,17,17,17,16,17,17,17,17,17,17,16,17,17,17,17,16,17,17,17,17,17,17,16,17,17,16,17,17,17,17,16,17,17,17,16,17,17,17,17,17,17,17,17,17,17,17,17]","134","960","482","false","20","20","black","1","false","1","1","1920","964","ArrowLeft","staircase_motion","","","","",""
"","","","","","html-keyboard-response","162","1704592","0.0-5.0-1.0-0.0-0.0-4.0-0.0-0.0-2.2","null","","null","<p style='font-size: 60px; color: green'>正确!</p>","","","","","","","","","","","","","","","","","","","","","","","","","","","","","","","","","","","","","","","","","","","","","","","",""
"","","","","","html-keyboard-response","163","1705953","0.0-5.0-1.0-0.0-0.0-4.0-0.0-0.0-0.3","null","fixation","null","<p style='font-size: 48px; color: white'>+</p >","","","","","","","","","","","","","","","","","","","","","","","","","","","","","","","","","","","","","","","","","","","","","","","",""
"","","","","","rdk","164","1708446","0.0-5.0-1.0-0.0-0.0-4.0-0.0-0.0-1.3","1643","motion_test","arrowright","","true","[""ArrowLeft"",""ArrowRight""]","ArrowRight","3000","true","1","100","0","0.02","0","3","1","-1","2","300","300","[""hsl(0, 50%, 50%)"",""hsl(225, 50%, 50%)""]","[""white""]","0","0","0","circle","black","3","2","2","16.80808080808081","[8,17,16,17,17,17,17,17,17,17,17,17,16,17,17,17,17,17,16,17,17,17,17,17,17,17,17,17,17,17,16,17,17,17,17,17,17,16,17,17,17,17,17,17,17,17,17,17,16,17,17,17,17,17,17,17,17,17,16,17,16,17,16,17,17,17,17,17,17,17,17,17,17,17,17,17,17,17,17,17,17,17,17,17,17,17,17,17,17,17,17,17,16,17,17,17,17,17,17]","99","960","482","false","20","20","black","1","false","1","1","1920","964","ArrowRight","staircase_motion","","","","",""
"","","","","","html-keyboard-response","165","1709802","0.0-5.0-1.0-0.0-0.0-4.0-0.0-0.0-2.3","null","","null","<p style='font-size: 60px; color: green'>正确!</p>","","","","","","","","","","","","","","","","","","","","","","","","","","","","","","","","","","","","","","","","","","","","","","","",""
"","","","","","html-keyboard-response","166","1711168","0.0-5.0-1.0-0.0-0.0-4.0-0.0-0.0-0.4","null","fixation","null","<p style='font-size: 48px; color: white'>+</p >","","","","","","","","","","","","","","","","","","","","","","","","","","","","","","","","","","","","","","","","","","","","","","","",""
"","","","","","rdk","167","1713702","0.0-5.0-1.0-0.0-0.0-4.0-0.0-0.0-1.4","1691","motion_test","arrowleft","","true","[""ArrowLeft"",""ArrowRight""]","ArrowLeft","3000","true","1","100","180","0.02","0","3","1","-1","2","300","300","[""hsl(0, 50%, 50%)"",""hsl(225, 50%, 50%)""]","[""white""]","0","0","0","circle","black","3","2","2","16.900990099009903","[16,17,17,17,16,17,17,17,17,17,16,17,17,17,17,17,17,17,17,17,17,17,17,17,17,17,17,17,17,17,17,17,17,17,17,17,17,17,17,17,16,17,17,17,17,17,17,17,17,17,17,17,17,17,17,17,16,17,16,17,16,17,17,17,17,17,16,17,17,17,17,17,17,17,17,17,17,17,17,17,16,17,17,17,17,17,17,17,17,17,17,16,17,17,17,17,17,17,17,17,17]","101","960","482","false","20","20","black","1","false","1","1","1920","964","ArrowLeft","staircase_motion","","","","",""
"","","","","","html-keyboard-response","168","1715064","0.0-5.0-1.0-0.0-0.0-4.0-0.0-0.0-2.4","null","","null","<p style='font-size: 60px; color: green'>正确!</p>","","","","","","","","","","","","","","","","","","","","","","","","","","","","","","","","","","","","","","","","","","","","","","","",""
"","","","","","html-keyboard-response","169","1716418","0.0-5.0-1.0-0.0-0.0-4.0-0.0-0.0-0.5","null","fixation","null","<p style='font-size: 48px; color: white'>+</p >","","","","","","","","","","","","","","","","","","","","","","","","","","","","","","","","","","","","","","","","","","","","","","","",""
"","","","","","rdk","170","1718982","0.0-5.0-1.0-0.0-0.0-4.0-0.0-0.0-1.5","1721","motion_test","arrowright","","true","[""ArrowLeft"",""ArrowRight""]","ArrowRight","3000","true","1","100","0","0.02","0","3","1","-1","2","300","300","[""hsl(0, 50%, 50%)"",""hsl(225, 50%, 50%)""]","[""white""]","0","0","0","circle","black","3","2","2","16.92233009708738","[16,17,17,17,17,17,17,17,17,17,17,17,17,17,17,17,16,17,17,17,17,17,17,17,17,17,17,17,17,17,17,17,17,17,17,16,17,17,17,17,17,17,17,17,16,17,17,17,16,17,17,17,17,17,17,17,17,17,17,17,17,17,17,17,17,17,17,17,17,16,17,16,17,17,17,17,17,17,17,17,17,17,17,17,17,17,17,16,17,17,17,17,17,17,17,17,17,17,17,17,17,17,17]","103","960","482","false","20","20","black","1","false","1","1","1920","964","ArrowRight","staircase_motion","","","","",""
"","","","","","html-keyboard-response","171","1720328","0.0-5.0-1.0-0.0-0.0-4.0-0.0-0.0-2.5","null","","null","<p style='font-size: 60px; color: green'>正确!</p>","","","","","","","","","","","","","","","","","","","","","","","","","","","","","","","","","","","","","","","","","","","","","","","",""
"","","","","","html-keyboard-response","172","1721685","0.0-5.0-1.0-0.0-0.0-4.0-0.0-0.0-0.6","null","fixation","null","<p style='font-size: 48px; color: white'>+</p >","","","","","","","","","","","","","","","","","","","","","","","","","","","","","","","","","","","","","","","","","","","","","","","",""
"","","","","","rdk","173","1724958","0.0-5.0-1.0-0.0-0.0-4.0-0.0-0.0-1.6","2417","motion_test","arrowleft","","false","[""ArrowLeft"",""ArrowRight""]","ArrowRight","3000","true","1","100","0","0.02","0","3","1","-1","2","300","300","[""hsl(0, 50%, 50%)"",""hsl(225, 50%, 50%)""]","[""white""]","0","0","0","circle","black","3","2","2","16.73793103448276","[3,17,17,17,17,16,17,17,17,17,17,17,17,17,17,17,17,17,17,17,16,17,17,17,17,17,17,16,17,17,17,17,16,17,17,17,17,16,17,17,16,17,16,17,17,17,17,17,17,17,16,17,16,17,17,16,17,17,17,17,17,16,17,17,17,17,17,16,17,17,17,17,17,17,17,17,17,17,17,17,16,17,17,17,17,17,17,16,17,17,17,16,17,17,17,16,17,17,17,16,17,17,17,17,17,17,17,16,17,17,17,17,17,17,16,17,16,17,16,17,17,17,17,17,17,17,17,17,17,17,16,17,17,17,17,16,17,17,17,17,17,16,17,17,17]","145","960","482","false","20","20","black","1","false","1","1","1920","964","ArrowRight","staircase_motion","","","","",""
"","","","","","html-keyboard-response","174","1726323","0.0-5.0-1.0-0.0-0.0-4.0-0.0-0.0-2.6","null","","null","<p style='font-size: 60px; color: red'>错误!</p>","","","","","","","","","","","","","","","","","","","","","","","","","","","","","","","","","","","","","","","","","","","","","","","",""
"","","","","","html-keyboard-response","175","1727684","0.0-5.0-1.0-0.0-0.0-4.0-0.0-0.0-0.7","null","fixation","null","<p style='font-size: 48px; color: white'>+</p >","","","","","","","","","","","","","","","","","","","","","","","","","","","","","","","","","","","","","","","","","","","","","","","",""
"","","","","","rdk","176","1730590","0.0-5.0-1.0-0.0-0.0-4.0-0.0-0.0-1.7","2054","motion_test","arrowleft","","true","[""ArrowLeft"",""ArrowRight""]","ArrowLeft","3000","true","1","100","180","0.02","0","3","1","-1","2","300","300","[""hsl(0, 50%, 50%)"",""hsl(225, 50%, 50%)""]","[""white""]","0","0","0","circle","black","3","2","2","16.853658536585368","[8,17,16,17,17,17,17,17,17,17,17,17,16,17,17,17,17,17,16,17,17,17,17,17,17,17,17,17,16,17,17,17,16,17,17,17,17,17,17,17,17,17,17,17,17,17,17,17,17,17,17,17,17,17,17,17,17,17,17,17,17,17,17,17,17,16,17,17,17,17,17,16,17,17,17,17,17,17,17,17,17,17,17,17,17,17,17,17,17,17,17,17,17,17,17,17,17,17,17,17,17,17,17,17,17,17,16,17,17,17,17,17,17,17,17,17,17,17,17,17,16,17,17]","123","960","482","false","20","20","black","1","false","1","1","1920","964","ArrowLeft","staircase_motion","","","","",""
"","","","","","html-keyboard-response","177","1731949","0.0-5.0-1.0-0.0-0.0-4.0-0.0-0.0-2.7","null","","null","<p style='font-size: 60px; color: green'>正确!</p>","","","","","","","","","","","","","","","","","","","","","","","","","","","","","","","","","","","","","","","","","","","","","","","",""
"","","","","","html-keyboard-response","178","1733310","0.0-5.0-1.0-0.0-0.0-4.0-0.0-0.0-0.8","null","fixation","null","<p style='font-size: 48px; color: white'>+</p >","","","","","","","","","","","","","","","","","","","","","","","","","","","","","","","","","","","","","","","","","","","","","","","",""
"","","","","","rdk","179","1736574","0.0-5.0-1.0-0.0-0.0-4.0-0.0-0.0-1.8","2412","motion_test","arrowright","","true","[""ArrowLeft"",""ArrowRight""]","ArrowRight","3000","true","1","100","0","0.02","0","3","1","-1","2","300","300","[""hsl(0, 50%, 50%)"",""hsl(225, 50%, 50%)""]","[""white""]","0","0","0","circle","black","3","2","2","16.90972222222222","[16,17,17,17,17,17,17,17,17,17,17,17,17,17,17,17,17,17,16,17,17,17,17,16,17,17,17,17,17,17,17,16,17,17,17,17,17,17,17,16,17,17,17,16,17,17,17,17,17,17,17,17,17,17,17,17,17,17,17,17,17,17,17,17,17,17,17,17,17,17,17,17,17,17,17,16,17,17,17,17,17,17,17,17,17,17,17,16,17,16,17,17,17,17,17,17,17,17,17,17,17,17,17,17,17,17,17,17,17,17,17,17,17,17,17,17,17,17,17,17,17,17,16,17,17,17,17,17,17,17,17,17,17,17,16,17,17,17,17,16,17,17,16,17]","144","960","482","false","20","20","black","1","false","1","1","1920","964","ArrowRight","staircase_motion","","","","",""
"","","","","","html-keyboard-response","180","1737943","0.0-5.0-1.0-0.0-0.0-4.0-0.0-0.0-2.8","null","","null","<p style='font-size: 60px; color: green'>正确!</p>","","","","","","","","","","","","","","","","","","","","","","","","","","","","","","","","","","","","","","","","","","","","","","","",""
"","","","","","html-keyboard-response","181","1739299","0.0-5.0-1.0-0.0-0.0-4.0-0.0-0.0-0.9","null","fixation","null","<p style='font-size: 48px; color: white'>+</p >","","","","","","","","","","","","","","","","","","","","","","","","","","","","","","","","","","","","","","","","","","","","","","","",""
"","","","","","rdk","182","1741726","0.0-5.0-1.0-0.0-0.0-4.0-0.0-0.0-1.9","1584","motion_test","arrowleft","","true","[""ArrowLeft"",""ArrowRight""]","ArrowLeft","3000","true","1","100","180","0.02","0","3","1","-1","2","300","300","[""hsl(0, 50%, 50%)"",""hsl(225, 50%, 50%)""]","[""white""]","0","0","0","circle","black","3","2","2","16.74736842105263","[3,16,17,17,17,17,17,17,17,17,16,17,17,17,17,16,17,17,17,17,17,17,17,17,17,17,17,17,16,17,17,17,17,17,17,17,16,17,17,16,17,17,17,17,17,17,17,16,17,17,17,17,17,17,17,17,17,17,17,17,17,17,17,17,17,17,16,17,17,17,16,17,17,17,17,17,17,17,17,17,17,17,17,17,17,17,17,17,17,17,16,17,17,17,17]","95","960","482","false","20","20","black","1","false","1","1","1920","964","ArrowLeft","staircase_motion","","","","",""
"","","","","","html-keyboard-response","183","1743092","0.0-5.0-1.0-0.0-0.0-4.0-0.0-0.0-2.9","null","","null","<p style='font-size: 60px; color: green'>正确!</p>","","","","","","","","","","","","","","","","","","","","","","","","","","","","","","","","","","","","","","","","","","","","","","","",""
"","","","","","html-keyboard-response","184","1744436","0.0-5.0-1.0-0.0-0.0-4.0-0.0-0.0-0.10","null","fixation","null","<p style='font-size: 48px; color: white'>+</p >","","","","","","","","","","","","","","","","","","","","","","","","","","","","","","","","","","","","","","","","","","","","","","","",""
"","","","","","rdk","185","1747006","0.0-5.0-1.0-0.0-0.0-4.0-0.0-0.0-1.10","1715","motion_test","arrowleft","","true","[""ArrowLeft"",""ArrowRight""]","ArrowLeft","3000","true","1","100","180","0.02","0","3","1","-1","2","300","300","[""hsl(0, 50%, 50%)"",""hsl(225, 50%, 50%)""]","[""white""]","0","0","0","circle","black","3","2","2","16.689320388349515","[3,17,16,17,17,17,16,17,16,17,17,16,17,16,17,17,17,17,17,17,17,17,17,17,17,17,17,16,17,17,17,17,17,17,17,17,17,16,17,17,17,17,17,17,17,17,17,16,17,16,17,17,17,16,17,16,17,17,17,17,17,17,17,17,17,17,17,17,17,17,16,17,16,17,17,17,16,17,17,17,16,17,17,17,16,17,17,17,17,17,17,17,17,17,17,17,16,17,17,16,17,17,17]","103","960","482","false","20","20","black","1","false","1","1","1920","964","ArrowLeft","staircase_motion","","","","",""
"","","","","","html-keyboard-response","186","1748367","0.0-5.0-1.0-0.0-0.0-4.0-0.0-0.0-2.10","null","","null","<p style='font-size: 60px; color: green'>正确!</p>","","","","","","","","","","","","","","","","","","","","","","","","","","","","","","","","","","","","","","","","","","","","","","","",""
"","","","","","html-keyboard-response","187","1749717","0.0-5.0-1.0-0.0-0.0-4.0-0.0-0.0-0.11","null","fixation","null","<p style='font-size: 48px; color: white'>+</p >","","","","","","","","","","","","","","","","","","","","","","","","","","","","","","","","","","","","","","","","","","","","","","","",""
"","","","","","rdk","188","1753006","0.0-5.0-1.0-0.0-0.0-4.0-0.0-0.0-1.11","2443","motion_test","arrowleft","","false","[""ArrowLeft"",""ArrowRight""]","ArrowRight","3000","true","1","100","0","0.02","0","3","1","-1","2","300","300","[""hsl(0, 50%, 50%)"",""hsl(225, 50%, 50%)""]","[""white""]","0","0","0","circle","black","3","2","2","16.883561643835616","[15,17,17,17,17,17,16,17,17,17,17,17,17,17,16,17,17,17,17,17,17,17,17,17,17,17,17,17,16,17,17,17,17,17,17,17,17,17,17,17,17,17,17,17,16,17,17,17,17,17,17,17,17,16,17,17,16,17,17,17,17,17,17,17,17,17,16,17,17,17,17,16,17,17,17,17,17,17,17,17,17,17,17,17,17,16,17,17,17,17,16,17,17,17,17,17,17,16,17,17,17,17,17,17,17,17,17,17,17,17,17,17,17,16,17,17,17,17,17,17,17,16,17,17,16,17,17,17,17,17,17,17,17,17,17,17,16,17,17,17,17,17,17,17,17,17]","146","960","482","false","20","20","black","1","false","1","1","1920","964","ArrowRight","staircase_motion","","","","",""
"","","","","","html-keyboard-response","189","1754368","0.0-5.0-1.0-0.0-0.0-4.0-0.0-0.0-2.11","null","","null","<p style='font-size: 60px; color: red'>错误!</p>","","","","","","","","","","","","","","","","","","","","","","","","","","","","","","","","","","","","","","","","","","","","","","","",""
"","","","","","html-keyboard-response","190","1757219","0.0-5.0-1.0-0.0-0.0-4.0-0.0-1.0","null","","null","<p style='font-size: 35px; color: white'>您的正确率为： 75% 。平均反应时为：1843毫秒。</p>","","","","","","","","","","","","","","","","","","","","","","","","","","","","","","","","","","","","","","","","","","","","","","","",""
"","","","","","html-keyboard-response","191","1758586","0.0-5.0-1.0-0.0-0.0-5.0-0.0-0.0-0.0","null","fixation","null","<p style='font-size: 48px; color: white'>+</p >","","","","","","","","","","","","","","","","","","","","","","","","","","","","","","","","","","","","","","","","","","","","","","","",""
"","","","","","rdk","192","1761438","0.0-5.0-1.0-0.0-0.0-5.0-0.0-0.0-1.0","2000","motion_test","arrowright","","true","[""ArrowLeft"",""ArrowRight""]","ArrowRight","3000","true","1","100","0","0.1","0","3","1","-1","2","300","300","[""hsl(0, 50%, 50%)"",""hsl(225, 50%, 50%)""]","[""white""]","0","0","0","circle","black","3","2","2","16.725","[6,17,17,17,17,17,17,16,17,17,17,16,17,16,17,17,16,17,17,17,17,17,17,17,16,17,17,17,16,17,17,17,17,17,17,17,17,16,17,16,17,16,17,17,17,17,17,17,17,17,16,17,17,17,17,17,17,17,16,17,16,17,17,17,17,16,17,17,17,17,17,17,17,17,16,17,17,17,17,17,17,17,16,17,17,17,17,17,16,17,17,17,17,16,17,17,17,17,17,17,16,17,17,16,17,17,17,17,17,17,17,17,16,17,16,17,17,17,17,16]","120","960","482","false","20","20","black","1","false","1","1","1920","964","ArrowRight","staircase_motion","","","","",""
"","","","","","html-keyboard-response","193","1762797","0.0-5.0-1.0-0.0-0.0-5.0-0.0-0.0-2.0","null","","null","<p style='font-size: 60px; color: green'>正确!</p>","","","","","","","","","","","","","","","","","","","","","","","","","","","","","","","","","","","","","","","","","","","","","","","",""
"","","","","","html-keyboard-response","194","1764157","0.0-5.0-1.0-0.0-0.0-5.0-0.0-0.0-0.1","null","fixation","null","<p style='font-size: 48px; color: white'>+</p >","","","","","","","","","","","","","","","","","","","","","","","","","","","","","","","","","","","","","","","","","","","","","","","",""
"","","","","","rdk","195","1768012","0.0-5.0-1.0-0.0-0.0-5.0-0.0-0.0-1.1","-1","motion_test","","","false","[""ArrowLeft"",""ArrowRight""]","ArrowLeft","3000","true","1","100","180","0.1","0","3","1","-1","2","300","300","[""hsl(0, 50%, 50%)"",""hsl(225, 50%, 50%)""]","[""white""]","0","0","0","circle","black","3","2","2","16.933333333333334","[18,16,17,17,17,17,17,17,17,17,17,17,17,17,17,17,17,17,17,17,17,17,17,17,17,17,17,17,17,17,17,17,17,17,17,17,17,17,17,17,16,17,17,17,17,17,17,17,17,17,17,17,17,17,17,17,17,17,17,17,16,17,17,17,16,17,17,17,17,17,17,17,17,17,17,17,17,17,16,17,17,17,17,17,17,17,17,17,17,17,17,17,17,17,17,17,17,17,17,17,17,16,17,17,17,17,17,17,17,17,17,17,17,17,17,17,17,17,17,17,17,17,17,17,17,17,16,17,17,17,17,17,17,17,17,17,16,17,17,16,17,17,16,17,17,17,17,17,16,17,17,17,17,17,16,17,17,17,17,17,17,17,17,17,17,17,17,17,16,17,17,17,17,17,17,17,17,17,17,17]","180","960","482","false","20","20","black","1","false","1","1","1920","964","ArrowLeft","staircase_motion","","","","",""
"","","","","","html-keyboard-response","196","1769369","0.0-5.0-1.0-0.0-0.0-5.0-0.0-0.0-2.1","null","","null","<p style='font-size: 60px; color: yellow'>太慢!</p>","","","","","","","","","","","","","","","","","","","","","","","","","","","","","","","","","","","","","","","","","","","","","","","",""
"","","","","","html-keyboard-response","197","1770722","0.0-5.0-1.0-0.0-0.0-5.0-0.0-0.0-0.2","null","fixation","null","<p style='font-size: 48px; color: white'>+</p >","","","","","","","","","","","","","","","","","","","","","","","","","","","","","","","","","","","","","","","","","","","","","","","",""
"","","","","","rdk","198","1773702","0.0-5.0-1.0-0.0-0.0-5.0-0.0-0.0-1.2","2134","motion_test","arrowright","","true","[""ArrowLeft"",""ArrowRight""]","ArrowRight","3000","true","1","100","0","0.1","0","3","1","-1","2","300","300","[""hsl(0, 50%, 50%)"",""hsl(225, 50%, 50%)""]","[""white""]","0","0","0","circle","black","3","2","2","16.8515625","[9,17,17,17,17,17,17,17,17,17,17,17,17,17,16,17,17,17,17,17,16,17,17,17,17,17,16,17,17,17,17,17,17,17,16,17,17,17,17,17,17,17,17,17,17,17,17,17,17,17,17,17,17,17,17,17,17,17,17,17,17,17,17,17,17,17,16,17,17,16,17,17,17,17,17,17,16,17,17,17,17,17,17,17,17,17,17,17,17,17,17,17,17,17,16,17,17,17,17,17,17,17,17,17,16,17,17,17,17,17,17,17,16,17,17,17,17,17,17,16,17,17,17,17,17,17,17,17]","128","960","482","false","20","20","black","1","false","1","1","1920","964","ArrowRight","staircase_motion","","","","",""
"","","","","","html-keyboard-response","199","1775067","0.0-5.0-1.0-0.0-0.0-5.0-0.0-0.0-2.2","null","","null","<p style='font-size: 60px; color: green'>正确!</p>","","","","","","","","","","","","","","","","","","","","","","","","","","","","","","","","","","","","","","","","","","","","","","","",""
"","","","","","html-keyboard-response","200","1776430","0.0-5.0-1.0-0.0-0.0-5.0-0.0-0.0-0.3","null","fixation","null","<p style='font-size: 48px; color: white'>+</p >","","","","","","","","","","","","","","","","","","","","","","","","","","","","","","","","","","","","","","","","","","","","","","","",""
