"success","timeout","failed_images","failed_audio","failed_video","trial_type","trial_index","time_elapsed","internal_node_id","rt","part","response","stimulus","correct","choices","correct_choice","trial_duration","response_ends_trial","number_of_apertures","number_of_dots","number_of_sets","coherent_direction","coherence","opposite_coherence","dot_radius","dot_side_length","dot_life","move_distance","aperture_width","aperture_height","dot_color_beforeOne","dot_color_beforeTwo","dot_color_after","dot_color_delay","move_delay","dot_shape","background_color","RDK_type","aperture_type","reinsert_type","frame_rate","frame_rate_array","number_of_frames","aperture_center_x","aperture_center_y","fixation_cross","fixation_cross_width","fixation_cross_height","fixation_cross_color","fixation_cross_thickness","border","border_thickness","border_color","canvas_width","canvas_height","task","correct_responce","match","association","difficulty"
"true","false","[]","[]","[]","preload","0","3","0.0-0.0","","","","","","","","","","","","","","","","","","","","","","","","","","","","","","","","","","","","","","","","","","","","","","","","","","",""
"true","","","","","fullscreen","1","75254","0.0-1.0","73249","fullScreen","","","","","","","","","","","","","","","","","","","","","","","","","","","","","","","","","","","","","","","","","","","","","","","","",""
"","","","","","survey","2","87309","0.0-2.0","11013","survey","{""sex"":""女"",""age"":22,""hands"":""右"",""color_blindness"":""都不是""}","","","","","","","","","","","","","","","","","","","","","","","","","","","","","","","","","","","","","","","","","","","","","","","",""
"","","","","","survey-text","3","99653","0.0-3.0","11334","color_test","{""Q0"":""be""}","","","","","","","","","","","","","","","","","","","","","","","","","","","","","","","","","","","","","","","","","","","","","","","",""
"","","","","","html-keyboard-response","4","107468","0.0-4.0","6805","instruction_beginning"," ","
      <div style=""text-align: left; color: white"">
        <h3 style=""text-align: center; font-size: 30px; margin: 0;"">欢迎参与本实验</h3>
          <p>为充分保障您的权利，请确保您已经知晓并同意《参与实验同意书》以及《数据公开知情同意书》，</p>
          <p>如果您未见过上述内容，请咨询实验员 ，</p>
          <p>如果您选择继续实验，则表示您已经清楚两份知情同意书的内容并同意 。</p>
          <p>在整个实验中，您需要完成两项任务，具体的任务要求会在后面说明 ，</p>
          <p>请按空格键进入实验</p >
      </div>","","","","","","","","","","","","","","","","","","","","","","","","","","","","","","","","","","","","","","","","","","","","","","",""
"","","","","","html-keyboard-response","5","120284","0.0-5.0-0.0-0.0-0.0","11814","instruction_match"," ","
      <div style=""text-align: left; color: white; padding: 10px""> 
        <h3 style=""text-align: center; font-size: 30px; margin: 10px;"">任务一：匹配判断</h3>
        <p>接下来，屏幕上会呈现一些运动的彩色圆点，</p>
        <p>如果图中大部分点向 <span style=""font-weight: bold"">左</span> 运动代表 <span style=""font-weight: bold"">你自己</span> ，向 <span style=""font-weight: bold"">右</span> 运动代表 <span style=""font-weight: bold"">生人（即陌生人）</span>，</p >
        <p>同时散点图的下方会出现 ""自己"" 或 ""生人"" 的文字标签。</p >
        <p>您需要判断 <span style=""font-weight: bold"">散点图的运动方向与文字是否匹配</span> ：</p >
        <ul>
          <li><span style=""color: hsl(135, 50%, 50%)"">匹配</span>，请按键盘 <span style=""color: hsl(135, 50%, 50%)"">""F"" 键</span></li>
          <li><span style=""color: red"">不匹配</span>，请按键盘 <span style=""color: red"">""J"" 键</span> </li>
        </ul>
        <p>按下空格键后将呈现示例</p>
      </div>","","","","","","","","","","","","","","","","","","","","","","","","","","","","","","","","","","","","","","","","","","","","","","",""
"","","","","","rdk","6","133309","0.0-5.0-0.0-0.0-1.0","12017","example"," ","","true","["" ""]","["" ""]","3000000","true","2","100","1","[180,0]","0.6","0","5","1","-1","3","400","400","hsl(225, 50%, 50%)","hsl(0, 50%, 50%)","white","3000000","9","circle","black","3","1","2","16.877947295423024","[4,15,17,17,16,16,17,17,17,17,17,17,17,17,16,17,16,17,17,17,17,17,16,17,17,17,17,16,17,17,17,17,17,17,17,17,17,17,17,17,17,17,17,17,17,16,17,17,16,17,17,16,17,16,17,17,17,17,17,17,17,17,17,17,17,17,17,17,17,17,17,17,17,17,17,17,17,16,17,17,17,17,17,17,17,17,16,17,16,16,17,17,16,17,17,17,17,17,17,17,17,16,17,17,17,17,17,17,17,17,17,17,17,16,17,17,17,17,17,17,17,17,16,17,17,17,17,16,17,17,17,17,17,17,17,17,17,17,17,16,17,17,17,17,17,17,17,17,17,17,17,17,16,17,17,17,17,17,17,17,17,17,17,17,17,17,17,17,17,17,17,17,16,17,17,17,17,17,17,17,17,16,17,17,17,17,17,16,17,17,17,17,17,17,17,17,17,17,17,17,17,17,17,17,17,17,17,17,17,17,17,17,17,17,17,17,17,17,17,17,17,17,17,17,17,17,17,17,17,17,17,17,17,16,17,17,17,17,17,17,17,17,16,17,17,17,17,17,17,16,17,17,17,17,17,17,16,17,17,17,16,17,17,17,17,17,17,17,17,17,17,17,17,17,16,17,17,17,17,17,17,17,17,16,17,17,17,17,17,17,17,16,17,17,17,17,17,17,16,17,17,16,17,17,17,17,17,17,17,17,17,17,16,17,17,16,17,17,17,17,17,17,17,17,17,17,17,17,17,17,17,17,17,16,17,17,17,17,16,17,17,17,17,17,17,17,17,17,17,17,17,17,17,17,17,17,17,17,17,17,17,17,16,17,17,17,17,17,17,17,17,17,17,17,17,17,17,17,17,17,17,17,17,16,17,17,17,17,17,17,17,17,17,17,17,17,17,17,17,17,17,17,17,17,17,17,16,17,17,17,17,17,17,17,17,17,17,17,17,17,17,17,17,17,17,17,17,17,17,16,17,17,17,17,17,17,17,17,17,17,17,17,17,17,16,17,17,17,17,17,17,17,17,17,17,17,17,17,17,17,17,17,17,17,17,16,17,16,17,17,17,17,17,17,17,16,17,17,17,17,17,17,16,17,17,16,17,16,17,17,17,17,17,17,17,17,17,17,17,17,17,17,17,17,17,16,17,17,17,17,17,17,16,17,17,17,17,17,17,17,17,17,17,17,17,17,17,17,17,17,17,16,17,17,17,17,16,16,17,16,17,17,17,17,17,17,17,17,17,17,17,17,17,17,17,17,17,17,17,17,17,17,17,17,17,17,17,17,16,17,17,17,16,17,17,17,17,17,17,17,17,17,17,17,17,17,17,17,16,17,17,17,16,17,17,16,17,16,17,17,17,17,16,17,17,16,17,17,17,17,17,17,17,17,17,17,17,17,17,17,17,17,17,17,17,17,17,16,17,17,16,17,17,17,17,17,17,17,17,17,17,17,17,17,17,17,17,17,17,17,17,17,17,17,17,17,17,17,16,17,17,17,16,17,17,16,17,17,17,17,17,17,17,17,17,16,17,17,17,17,16,17,17,16,17,17,17,17,17,17,17,17,17,17,17,17,17,17,17,17,17,16,17,16,17,17,17,17,17,17,17,17,17,17,17,17,17,17,17,17,17]","721","[300,900]","[280,280]","false","20","20","black","1","false","1","1","1200","660","","","","",""
"","","","","","html-keyboard-response","7","139132","0.0-5.0-0.0-0.0-2.0-0.0-0.0-0.0","5313","instruction_match_practice"," ","
      <div style=""text-align: left; color: white; padding: 10px"">  
        <h3 style=""text-align: center; font-size: 30px; margin: 10px;"">练习阶段</h3>
        <p>大部分点向 <span style=""font-weight: bold"">左</span> 运动代表 <span style=""font-weight: bold"">你自己</span> ，向 <span style=""font-weight: bold"">右</span> 运动代表 <span style=""font-weight: bold"">生人（即陌生人）</span>，</p >
        <p>您需要在3秒内判断 <span style=""font-weight: bold"">散点图的运动方向与文字是否匹配</span>，<span style=""color: hsl(135, 50%, 50%);"">匹配</span> 按 <span style=""color: hsl(135, 50%, 50%);"">""F"" 键</span>；<span style=""color: red;"">不匹配</span> 按 <span style=""color: red;"">""J"" 键</span></p >
        <p>正确率达到 70% 及以上才能进入下一个阶段 </p >
        <p>请把左手食指放在 ""F"" 键上，右手食指放在 ""J"" 键上</p >
        <p>请按下空格键开始练习</p >
      </div>","","","","","","","","","","","","","","","","","","","","","","","","","","","","","","","","","","","","","","","","","","","","","","",""
"","","","","","html-keyboard-response","8","140634","0.0-5.0-0.0-0.0-2.0-0.0-0.0-1.0-0.0","null","fixation","null","<p style='font-size: 48px; color: white'>+</p >","","","","","","","","","","","","","","","","","","","","","","","","","","","","","","","","","","","","","","","","","","","","","","",""
"","","","","","rdk","9","142988","0.0-5.0-0.0-0.0-2.0-0.0-0.0-1.0-1.0","1353","match_RDK","j","","true","[""f"",""j""]","[""j""]","3000","true","1","100","1","0","0.6","0","5","1","-1","3","500","500","hsl(225, 50%, 50%)","hsl(0, 50%, 50%)","white","3000","7","circle","black","3","2","2","16.839506172839506","[10,17,17,17,17,17,17,17,17,17,17,17,17,17,17,17,16,17,17,17,17,17,17,17,17,17,17,17,17,17,17,17,17,17,17,17,17,17,17,17,17,17,17,17,17,17,17,17,17,17,17,17,17,17,17,17,16,17,17,17,16,17,17,17,17,17,17,17,17,16,17,17,17,16,17,17,17,17,17,16,17]","81","600","250","false","20","20","black","1","false","1","1","1200","660","response","j","no","self",""
"","","","","","html-keyboard-response","10","144016","0.0-5.0-0.0-0.0-2.0-0.0-0.0-1.0-2.0","null","","null","<p style='font-size: 60px; color: green'>正确!</p>","","","","","","","","","","","","","","","","","","","","","","","","","","","","","","","","","","","","","","","","","","","","","","",""
"","","","","","html-keyboard-response","11","145533","0.0-5.0-0.0-0.0-2.0-0.0-0.0-1.0-0.1","null","fixation","null","<p style='font-size: 48px; color: white'>+</p >","","","","","","","","","","","","","","","","","","","","","","","","","","","","","","","","","","","","","","","","","","","","","","",""
"","","","","","rdk","12","147740","0.0-5.0-0.0-0.0-2.0-0.0-0.0-1.0-1.1","1206","match_RDK","j","","false","[""f"",""j""]","[""f""]","3000","true","1","100","1","0","0.6","0","5","1","-1","3","500","500","hsl(225, 50%, 50%)","hsl(0, 50%, 50%)","white","3000","7","circle","black","3","2","2","16.88888888888889","[11,17,17,17,17,17,17,17,17,17,17,17,17,17,17,17,17,17,17,17,17,17,17,17,17,17,17,17,17,17,17,17,17,17,17,17,17,17,17,17,17,17,17,17,17,17,17,17,17,17,17,17,17,17,17,17,17,17,16,17,17,17,17,17,17,17,17,17,17,16,17,17]","72","600","250","false","20","20","black","1","false","1","1","1200","660","response","f","yes","other",""
"","","","","","html-keyboard-response","13","148765","0.0-5.0-0.0-0.0-2.0-0.0-0.0-1.0-2.1","null","","null","<p style='font-size: 60px; color: red'>错误!</p>","","","","","","","","","","","","","","","","","","","","","","","","","","","","","","","","","","","","","","","","","","","","","","",""
"","","","","","html-keyboard-response","14","150277","0.0-5.0-0.0-0.0-2.0-0.0-0.0-1.0-0.2","null","fixation","null","<p style='font-size: 48px; color: white'>+</p >","","","","","","","","","","","","","","","","","","","","","","","","","","","","","","","","","","","","","","","","","","","","","","",""
"","","","","","rdk","15","152797","0.0-5.0-0.0-0.0-2.0-0.0-0.0-1.0-1.2","1518","match_RDK","j","","true","[""f"",""j""]","[""j""]","3000","true","1","100","1","180","0.6","0","5","1","-1","3","500","500","hsl(225, 50%, 50%)","hsl(0, 50%, 50%)","white","3000","7","circle","black","3","2","2","16.912087912087912","[17,17,17,17,17,17,17,16,17,17,17,16,17,17,17,17,17,17,17,17,17,17,17,17,17,17,17,17,17,17,17,17,17,17,17,17,17,17,17,17,17,17,17,17,16,17,17,17,17,17,17,17,17,17,16,17,16,17,17,17,17,17,17,17,17,17,17,17,16,17,17,17,17,17,17,16,17,17,17,17,17,16,17,17,17,17,17,17,17,17,17]","91","600","250","false","20","20","black","1","false","1","1","1200","660","response","j","no","other",""
"","","","","","html-keyboard-response","16","153816","0.0-5.0-0.0-0.0-2.0-0.0-0.0-1.0-2.2","null","","null","<p style='font-size: 60px; color: green'>正确!</p>","","","","","","","","","","","","","","","","","","","","","","","","","","","","","","","","","","","","","","","","","","","","","","",""
"","","","","","html-keyboard-response","17","155320","0.0-5.0-0.0-0.0-2.0-0.0-0.0-1.0-0.3","null","fixation","null","<p style='font-size: 48px; color: white'>+</p >","","","","","","","","","","","","","","","","","","","","","","","","","","","","","","","","","","","","","","","","","","","","","","",""
"","","","","","rdk","18","157596","0.0-5.0-0.0-0.0-2.0-0.0-0.0-1.0-1.3","1274","match_RDK","f","","true","[""f"",""j""]","[""f""]","3000","true","1","100","1","180","0.6","0","5","1","-1","3","500","500","hsl(225, 50%, 50%)","hsl(0, 50%, 50%)","white","3000","7","circle","black","3","2","2","16.83116883116883","[6,17,17,17,17,17,17,17,17,17,17,16,17,17,17,17,17,17,17,17,17,17,17,17,17,17,17,17,17,17,17,17,17,17,17,17,17,17,17,17,16,17,17,17,17,17,17,17,17,17,17,17,17,17,17,17,17,17,17,17,17,17,17,17,17,17,17,17,17,17,17,17,17,17,17,17,17]","77","600","250","false","20","20","black","1","false","1","1","1200","660","response","f","yes","self",""
"","","","","","html-keyboard-response","19","158615","0.0-5.0-0.0-0.0-2.0-0.0-0.0-1.0-2.3","null","","null","<p style='font-size: 60px; color: green'>正确!</p>","","","","","","","","","","","","","","","","","","","","","","","","","","","","","","","","","","","","","","","","","","","","","","",""
"","","","","","html-keyboard-response","20","160131","0.0-5.0-0.0-0.0-2.0-0.0-0.0-1.0-0.4","null","fixation","null","<p style='font-size: 48px; color: white'>+</p >","","","","","","","","","","","","","","","","","","","","","","","","","","","","","","","","","","","","","","","","","","","","","","",""
"","","","","","rdk","21","162363","0.0-5.0-0.0-0.0-2.0-0.0-0.0-1.0-1.4","1221","match_RDK","j","","true","[""f"",""j""]","[""j""]","3000","true","1","100","1","180","0.6","0","5","1","-1","3","500","500","hsl(225, 50%, 50%)","hsl(0, 50%, 50%)","white","3000","7","circle","black","3","2","2","16.7027027027027","[2,17,17,16,17,16,17,17,16,17,17,17,17,17,17,17,17,17,17,17,17,17,17,17,17,17,17,17,17,17,17,17,17,17,16,17,17,17,17,17,17,17,17,17,17,17,17,17,17,17,17,17,17,17,17,17,17,17,17,17,16,17,17,17,16,17,17,16,17,17,17,17,17,17]","74","600","250","false","20","20","black","1","false","1","1","1200","660","response","j","no","other",""
"","","","","","html-keyboard-response","22","163381","0.0-5.0-0.0-0.0-2.0-0.0-0.0-1.0-2.4","null","","null","<p style='font-size: 60px; color: green'>正确!</p>","","","","","","","","","","","","","","","","","","","","","","","","","","","","","","","","","","","","","","","","","","","","","","",""
"","","","","","html-keyboard-response","23","164883","0.0-5.0-0.0-0.0-2.0-0.0-0.0-1.0-0.5","null","fixation","null","<p style='font-size: 48px; color: white'>+</p >","","","","","","","","","","","","","","","","","","","","","","","","","","","","","","","","","","","","","","","","","","","","","","",""
"","","","","","rdk","24","167052","0.0-5.0-0.0-0.0-2.0-0.0-0.0-1.0-1.5","1167","match_RDK","f","","false","[""f"",""j""]","[""j""]","3000","true","1","100","1","0","0.6","0","5","1","-1","3","500","500","hsl(225, 50%, 50%)","hsl(0, 50%, 50%)","white","3000","7","circle","black","3","2","2","16.84285714285714","[10,17,17,17,16,17,17,17,16,17,17,17,17,16,17,17,17,17,17,17,17,17,17,17,17,17,17,17,17,17,17,17,17,17,17,17,17,17,17,17,17,17,17,17,17,17,17,17,17,17,17,17,17,17,16,17,17,17,17,17,17,17,17,17,17,17,17,17,17,17]","70","600","250","false","20","20","black","1","false","1","1","1200","660","response","j","no","self",""
"","","","","","html-keyboard-response","25","168067","0.0-5.0-0.0-0.0-2.0-0.0-0.0-1.0-2.5","null","","null","<p style='font-size: 60px; color: red'>错误!</p>","","","","","","","","","","","","","","","","","","","","","","","","","","","","","","","","","","","","","","","","","","","","","","",""
"","","","","","html-keyboard-response","26","169570","0.0-5.0-0.0-0.0-2.0-0.0-0.0-1.0-0.6","null","fixation","null","<p style='font-size: 48px; color: white'>+</p >","","","","","","","","","","","","","","","","","","","","","","","","","","","","","","","","","","","","","","","","","","","","","","",""
"","","","","","rdk","27","172908","0.0-5.0-0.0-0.0-2.0-0.0-0.0-1.0-1.6","2336","match_RDK","f","","true","[""f"",""j""]","[""f""]","3000","true","1","100","1","0","0.6","0","5","1","-1","3","500","500","hsl(225, 50%, 50%)","hsl(0, 50%, 50%)","white","3000","7","circle","black","3","2","2","16.885714285714286","[6,17,17,17,17,17,17,17,17,17,17,17,17,17,17,17,17,17,17,17,17,17,17,17,17,17,17,17,17,17,17,17,17,17,17,17,17,17,17,17,17,17,17,17,17,17,17,17,17,17,17,17,17,17,17,17,17,17,17,17,17,17,17,17,17,16,17,17,17,17,17,17,17,17,17,17,17,17,17,17,17,17,16,17,17,17,17,17,17,16,17,17,16,17,17,17,17,16,17,17,17,17,17,17,17,17,17,17,17,17,17,17,17,17,17,17,17,17,17,17,17,17,17,17,17,17,17,17,17,17,17,17,17,17,17,17,17,17,17,17]","140","600","250","false","20","20","black","1","false","1","1","1200","660","response","f","yes","other",""
"","","","","","html-keyboard-response","28","173917","0.0-5.0-0.0-0.0-2.0-0.0-0.0-1.0-2.6","null","","null","<p style='font-size: 60px; color: green'>正确!</p>","","","","","","","","","","","","","","","","","","","","","","","","","","","","","","","","","","","","","","","","","","","","","","",""
"","","","","","html-keyboard-response","29","175419","0.0-5.0-0.0-0.0-2.0-0.0-0.0-1.0-0.7","null","fixation","null","<p style='font-size: 48px; color: white'>+</p >","","","","","","","","","","","","","","","","","","","","","","","","","","","","","","","","","","","","","","","","","","","","","","",""
"","","","","","rdk","30","177804","0.0-5.0-0.0-0.0-2.0-0.0-0.0-1.0-1.7","1383","match_RDK","f","","true","[""f"",""j""]","[""f""]","3000","true","1","100","1","180","0.6","0","5","1","-1","3","500","500","hsl(225, 50%, 50%)","hsl(0, 50%, 50%)","white","3000","7","circle","black","3","2","2","16.771084337349397","[7,17,17,17,16,17,17,17,17,17,17,17,17,17,17,16,17,17,17,17,17,17,17,17,17,17,17,17,17,17,17,17,17,17,17,17,17,17,17,17,17,17,17,17,16,17,17,16,17,16,17,16,17,17,17,17,17,17,17,17,17,17,17,17,17,17,17,17,17,17,17,16,17,17,16,17,17,17,17,17,17,17,16]","83","600","250","false","20","20","black","1","false","1","1","1200","660","response","f","yes","self",""
"","","","","","html-keyboard-response","31","178834","0.0-5.0-0.0-0.0-2.0-0.0-0.0-1.0-2.7","null","","null","<p style='font-size: 60px; color: green'>正确!</p>","","","","","","","","","","","","","","","","","","","","","","","","","","","","","","","","","","","","","","","","","","","","","","",""
"","","","","","html-keyboard-response","32","180350","0.0-5.0-0.0-0.0-2.0-0.0-0.0-1.0-0.8","null","fixation","null","<p style='font-size: 48px; color: white'>+</p >","","","","","","","","","","","","","","","","","","","","","","","","","","","","","","","","","","","","","","","","","","","","","","",""
"","","","","","rdk","33","182396","0.0-5.0-0.0-0.0-2.0-0.0-0.0-1.0-1.8","1032","match_RDK","f","","true","[""f"",""j""]","[""f""]","3000","true","1","100","1","180","0.6","0","5","1","-1","3","500","500","hsl(225, 50%, 50%)","hsl(0, 50%, 50%)","white","3000","7","circle","black","3","2","2","16.93548387096774","[14,17,17,17,17,17,17,17,17,17,17,17,17,17,17,17,17,17,17,17,17,17,17,17,17,16,17,17,17,17,17,17,17,17,17,17,17,17,17,17,17,17,17,17,17,17,17,17,17,17,17,17,17,17,17,17,17,17,17,17,17,17]","62","600","250","false","20","20","black","1","false","1","1","1200","660","response","f","yes","self",""
"","","","","","html-keyboard-response","34","183415","0.0-5.0-0.0-0.0-2.0-0.0-0.0-1.0-2.8","null","","null","<p style='font-size: 60px; color: green'>正确!</p>","","","","","","","","","","","","","","","","","","","","","","","","","","","","","","","","","","","","","","","","","","","","","","",""
"","","","","","html-keyboard-response","35","184930","0.0-5.0-0.0-0.0-2.0-0.0-0.0-1.0-0.9","null","fixation","null","<p style='font-size: 48px; color: white'>+</p >","","","","","","","","","","","","","","","","","","","","","","","","","","","","","","","","","","","","","","","","","","","","","","",""
"","","","","","rdk","36","187324","0.0-5.0-0.0-0.0-2.0-0.0-0.0-1.0-1.9","1380","match_RDK","j","","true","[""f"",""j""]","[""j""]","3000","true","1","100","1","180","0.6","0","5","1","-1","3","500","500","hsl(225, 50%, 50%)","hsl(0, 50%, 50%)","white","3000","7","circle","black","3","2","2","16.662650602409638","[1,17,17,17,16,17,17,17,17,16,17,17,17,17,17,17,17,17,17,17,17,17,16,16,17,17,16,17,16,17,16,17,17,17,17,16,17,17,16,17,17,17,17,17,17,17,17,17,17,17,17,17,17,17,17,17,17,17,16,17,17,17,17,16,17,17,17,17,17,17,16,17,17,17,17,17,17,17,17,17,17,17,17]","83","600","250","false","20","20","black","1","false","1","1","1200","660","response","j","no","other",""
"","","","","","html-keyboard-response","37","188348","0.0-5.0-0.0-0.0-2.0-0.0-0.0-1.0-2.9","null","","null","<p style='font-size: 60px; color: green'>正确!</p>","","","","","","","","","","","","","","","","","","","","","","","","","","","","","","","","","","","","","","","","","","","","","","",""
"","","","","","html-keyboard-response","38","189854","0.0-5.0-0.0-0.0-2.0-0.0-0.0-1.0-0.10","null","fixation","null","<p style='font-size: 48px; color: white'>+</p >","","","","","","","","","","","","","","","","","","","","","","","","","","","","","","","","","","","","","","","","","","","","","","",""
"","","","","","rdk","39","192797","0.0-5.0-0.0-0.0-2.0-0.0-0.0-1.0-1.10","1932","match_RDK","j","","true","[""f"",""j""]","[""j""]","3000","true","1","100","1","0","0.6","0","5","1","-1","3","500","500","hsl(225, 50%, 50%)","hsl(0, 50%, 50%)","white","3000","7","circle","black","3","2","2","16.92241379310345","[13,17,17,17,17,17,17,17,17,17,17,17,17,17,17,17,17,17,17,17,17,17,17,17,17,17,17,17,17,17,17,17,17,17,17,17,17,17,17,17,17,17,17,17,17,17,17,17,17,17,17,17,17,17,17,17,17,17,17,17,17,16,17,17,17,17,17,17,17,17,17,17,17,17,17,17,17,16,17,17,17,17,17,17,16,17,17,16,17,16,17,17,17,17,17,17,17,17,17,17,17,17,17,17,17,17,17,17,17,17,17,17,17,17,17,17]","116","600","250","false","20","20","black","1","false","1","1","1200","660","response","j","no","self",""
"","","","","","html-keyboard-response","40","193817","0.0-5.0-0.0-0.0-2.0-0.0-0.0-1.0-2.10","null","","null","<p style='font-size: 60px; color: green'>正确!</p>","","","","","","","","","","","","","","","","","","","","","","","","","","","","","","","","","","","","","","","","","","","","","","",""
"","","","","","html-keyboard-response","41","195325","0.0-5.0-0.0-0.0-2.0-0.0-0.0-1.0-0.11","null","fixation","null","<p style='font-size: 48px; color: white'>+</p >","","","","","","","","","","","","","","","","","","","","","","","","","","","","","","","","","","","","","","","","","","","","","","",""
"","","","","","rdk","42","197660","0.0-5.0-0.0-0.0-2.0-0.0-0.0-1.0-1.11","1318","match_RDK","f","","true","[""f"",""j""]","[""f""]","3000","true","1","100","1","0","0.6","0","5","1","-1","3","500","500","hsl(225, 50%, 50%)","hsl(0, 50%, 50%)","white","3000","7","circle","black","3","2","2","16.70886075949367","[2,17,17,17,17,16,17,17,17,17,17,17,17,17,17,17,17,17,17,17,16,17,16,17,17,16,17,17,17,17,17,17,17,17,17,16,17,17,17,17,17,17,16,17,17,17,17,17,17,17,17,17,17,17,16,17,17,17,17,17,17,17,17,17,17,17,17,17,17,17,17,17,16,17,17,17,17,17,17]","79","600","250","false","20","20","black","1","false","1","1","1200","660","response","f","yes","other",""
"","","","","","html-keyboard-response","43","198682","0.0-5.0-0.0-0.0-2.0-0.0-0.0-1.0-2.11","null","","null","<p style='font-size: 60px; color: green'>正确!</p>","","","","","","","","","","","","","","","","","","","","","","","","","","","","","","","","","","","","","","","","","","","","","","",""
"","","","","","html-keyboard-response","44","200209","0.0-5.0-0.0-0.0-2.0-0.0-0.0-1.0-0.12","null","fixation","null","<p style='font-size: 48px; color: white'>+</p >","","","","","","","","","","","","","","","","","","","","","","","","","","","","","","","","","","","","","","","","","","","","","","",""
"","","","","","rdk","45","203148","0.0-5.0-0.0-0.0-2.0-0.0-0.0-1.0-1.12","1937","match_RDK","j","","true","[""f"",""j""]","[""j""]","3000","true","1","100","1","0","0.6","0","5","1","-1","3","500","500","hsl(225, 50%, 50%)","hsl(0, 50%, 50%)","white","3000","7","circle","black","3","2","2","16.77777777777778","[1,17,17,17,17,17,17,17,17,16,17,17,17,17,17,17,17,17,17,17,17,17,16,17,17,17,17,16,17,17,17,17,17,17,17,17,17,17,17,17,17,16,17,17,17,17,17,16,17,17,17,17,16,17,17,17,17,17,17,17,17,17,17,17,17,17,17,17,17,17,17,17,17,17,17,17,17,17,17,17,17,17,16,17,17,17,17,17,17,17,16,17,17,17,17,17,17,17,17,17,17,17,17,17,17,17,17,17,17,17,17,17,16,17,17,16,17]","117","600","250","false","20","20","black","1","false","1","1","1200","660","response","j","no","self",""
"","","","","","html-keyboard-response","46","204166","0.0-5.0-0.0-0.0-2.0-0.0-0.0-1.0-2.12","null","","null","<p style='font-size: 60px; color: green'>正确!</p>","","","","","","","","","","","","","","","","","","","","","","","","","","","","","","","","","","","","","","","","","","","","","","",""
"","","","","","html-keyboard-response","47","205675","0.0-5.0-0.0-0.0-2.0-0.0-0.0-1.0-0.13","null","fixation","null","<p style='font-size: 48px; color: white'>+</p >","","","","","","","","","","","","","","","","","","","","","","","","","","","","","","","","","","","","","","","","","","","","","","",""
"","","","","","rdk","48","208236","0.0-5.0-0.0-0.0-2.0-0.0-0.0-1.0-1.13","1547","match_RDK","f","","true","[""f"",""j""]","[""f""]","3000","true","1","100","1","180","0.6","0","5","1","-1","3","500","500","hsl(225, 50%, 50%)","hsl(0, 50%, 50%)","white","3000","7","circle","black","3","2","2","16.849462365591396","[6,17,17,17,17,17,17,17,17,17,17,17,16,17,17,17,17,17,17,17,17,17,17,17,17,17,17,17,17,16,17,17,17,17,16,17,17,17,17,17,17,17,17,17,17,17,17,17,17,17,17,17,17,17,17,17,17,17,17,17,17,17,17,17,17,17,17,17,17,17,17,17,17,17,17,17,17,17,17,17,17,17,17,17,17,17,17,17,17,17,17,17,17]","93","600","250","false","20","20","black","1","false","1","1","1200","660","response","f","yes","self",""
"","","","","","html-keyboard-response","49","209265","0.0-5.0-0.0-0.0-2.0-0.0-0.0-1.0-2.13","null","","null","<p style='font-size: 60px; color: green'>正确!</p>","","","","","","","","","","","","","","","","","","","","","","","","","","","","","","","","","","","","","","","","","","","","","","",""
"","","","","","html-keyboard-response","50","210768","0.0-5.0-0.0-0.0-2.0-0.0-0.0-1.0-0.14","null","fixation","null","<p style='font-size: 48px; color: white'>+</p >","","","","","","","","","","","","","","","","","","","","","","","","","","","","","","","","","","","","","","","","","","","","","","",""
"","","","","","rdk","51","212828","0.0-5.0-0.0-0.0-2.0-0.0-0.0-1.0-1.14","1043","match_RDK","j","","true","[""f"",""j""]","[""j""]","3000","true","1","100","1","180","0.6","0","5","1","-1","3","500","500","hsl(225, 50%, 50%)","hsl(0, 50%, 50%)","white","3000","7","circle","black","3","2","2","16.822580645161292","[10,16,17,17,17,17,17,17,17,17,17,17,17,17,17,17,16,17,17,17,17,17,17,17,17,16,17,17,17,17,17,17,17,17,17,17,17,17,17,17,17,17,17,17,17,17,16,17,17,17,17,17,17,17,17,17,17,17,17,17,17,17]","62","600","250","false","20","20","black","1","false","1","1","1200","660","response","j","no","other",""
"","","","","","html-keyboard-response","52","213848","0.0-5.0-0.0-0.0-2.0-0.0-0.0-1.0-2.14","null","","null","<p style='font-size: 60px; color: green'>正确!</p>","","","","","","","","","","","","","","","","","","","","","","","","","","","","","","","","","","","","","","","","","","","","","","",""
"","","","","","html-keyboard-response","53","215362","0.0-5.0-0.0-0.0-2.0-0.0-0.0-1.0-0.15","null","fixation","null","<p style='font-size: 48px; color: white'>+</p >","","","","","","","","","","","","","","","","","","","","","","","","","","","","","","","","","","","","","","","","","","","","","","",""
"","","","","","rdk","54","217563","0.0-5.0-0.0-0.0-2.0-0.0-0.0-1.0-1.15","1197","match_RDK","f","","true","[""f"",""j""]","[""f""]","3000","true","1","100","1","0","0.6","0","5","1","-1","3","500","500","hsl(225, 50%, 50%)","hsl(0, 50%, 50%)","white","3000","7","circle","black","3","2","2","16.84722222222222","[12,17,17,17,17,17,17,17,17,17,17,17,17,17,17,17,17,17,17,17,17,17,17,17,17,16,17,17,17,17,16,17,17,17,17,17,17,17,16,17,16,17,17,17,17,17,17,17,17,17,17,17,17,17,16,17,17,17,16,17,17,17,17,17,17,17,17,17,17,17,17,17]","72","600","250","false","20","20","black","1","false","1","1","1200","660","response","f","yes","other",""
"","","","","","html-keyboard-response","55","218582","0.0-5.0-0.0-0.0-2.0-0.0-0.0-1.0-2.15","null","","null","<p style='font-size: 60px; color: green'>正确!</p>","","","","","","","","","","","","","","","","","","","","","","","","","","","","","","","","","","","","","","","","","","","","","","",""
"","","","","","html-keyboard-response","56","220095","0.0-5.0-0.0-0.0-2.0-0.0-0.0-1.0-0.16","null","fixation","null","<p style='font-size: 48px; color: white'>+</p >","","","","","","","","","","","","","","","","","","","","","","","","","","","","","","","","","","","","","","","","","","","","","","",""
"","","","","","rdk","57","222940","0.0-5.0-0.0-0.0-2.0-0.0-0.0-1.0-1.16","1828","match_RDK","j","","true","[""f"",""j""]","[""j""]","3000","true","1","100","1","0","0.6","0","5","1","-1","3","500","500","hsl(225, 50%, 50%)","hsl(0, 50%, 50%)","white","3000","7","circle","black","3","2","2","16.93577981651376","[17,16,17,17,17,17,17,17,17,17,17,17,18,16,17,17,17,17,17,17,17,17,17,17,17,17,17,17,16,17,17,16,17,17,17,17,17,17,17,17,17,17,17,16,17,17,17,17,17,17,17,17,17,17,16,17,17,17,17,17,17,17,17,17,17,17,17,17,17,17,17,17,17,17,17,17,17,17,17,17,17,17,17,16,17,17,17,17,17,17,17,17,17,17,17,17,17,16,17,17,17,17,17,17,17,17,17,17,17]","109","600","250","false","20","20","black","1","false","1","1","1200","660","response","j","no","self",""
"","","","","","html-keyboard-response","58","223965","0.0-5.0-0.0-0.0-2.0-0.0-0.0-1.0-2.16","null","","null","<p style='font-size: 60px; color: green'>正确!</p>","","","","","","","","","","","","","","","","","","","","","","","","","","","","","","","","","","","","","","","","","","","","","","",""
"","","","","","html-keyboard-response","59","225489","0.0-5.0-0.0-0.0-2.0-0.0-0.0-1.0-0.17","null","fixation","null","<p style='font-size: 48px; color: white'>+</p >","","","","","","","","","","","","","","","","","","","","","","","","","","","","","","","","","","","","","","","","","","","","","","",""
"","","","","","rdk","60","227708","0.0-5.0-0.0-0.0-2.0-0.0-0.0-1.0-1.17","1216","match_RDK","f","","true","[""f"",""j""]","[""f""]","3000","true","1","100","1","0","0.6","0","5","1","-1","3","500","500","hsl(225, 50%, 50%)","hsl(0, 50%, 50%)","white","3000","7","circle","black","3","2","2","16.726027397260275","[3,18,17,16,17,17,17,17,17,16,17,17,17,17,17,17,17,17,17,17,17,17,17,17,17,17,17,16,17,17,17,17,17,17,17,17,17,17,17,17,17,17,17,17,17,16,17,17,17,17,16,17,17,17,17,17,17,17,16,17,17,17,17,17,17,17,17,17,17,17,16,17,17]","73","600","250","false","20","20","black","1","false","1","1","1200","660","response","f","yes","other",""
"","","","","","html-keyboard-response","61","228732","0.0-5.0-0.0-0.0-2.0-0.0-0.0-1.0-2.17","null","","null","<p style='font-size: 60px; color: green'>正确!</p>","","","","","","","","","","","","","","","","","","","","","","","","","","","","","","","","","","","","","","","","","","","","","","",""
"","","","","","html-keyboard-response","62","230235","0.0-5.0-0.0-0.0-2.0-0.0-0.0-1.0-0.18","null","fixation","null","<p style='font-size: 48px; color: white'>+</p >","","","","","","","","","","","","","","","","","","","","","","","","","","","","","","","","","","","","","","","","","","","","","","",""
"","","","","","rdk","63","232220","0.0-5.0-0.0-0.0-2.0-0.0-0.0-1.0-1.18","973","match_RDK","f","","true","[""f"",""j""]","[""f""]","3000","true","1","100","1","180","0.6","0","5","1","-1","3","500","500","hsl(225, 50%, 50%)","hsl(0, 50%, 50%)","white","3000","7","circle","black","3","2","2","16.913793103448278","[15,17,17,17,17,17,17,17,17,17,17,17,17,17,17,17,17,17,17,17,17,17,17,17,17,17,16,17,16,17,17,17,17,17,17,17,17,17,17,17,17,16,17,17,17,17,17,17,17,17,17,17,17,17,17,17,17,17]","58","600","250","false","20","20","black","1","false","1","1","1200","660","response","f","yes","self",""
"","","","","","html-keyboard-response","64","233248","0.0-5.0-0.0-0.0-2.0-0.0-0.0-1.0-2.18","null","","null","<p style='font-size: 60px; color: green'>正确!</p>","","","","","","","","","","","","","","","","","","","","","","","","","","","","","","","","","","","","","","","","","","","","","","",""
"","","","","","html-keyboard-response","65","234765","0.0-5.0-0.0-0.0-2.0-0.0-0.0-1.0-0.19","null","fixation","null","<p style='font-size: 48px; color: white'>+</p >","","","","","","","","","","","","","","","","","","","","","","","","","","","","","","","","","","","","","","","","","","","","","","",""
"","","","","","rdk","66","236731","0.0-5.0-0.0-0.0-2.0-0.0-0.0-1.0-1.19","963","match_RDK","j","","true","[""f"",""j""]","[""j""]","3000","true","1","100","1","180","0.6","0","5","1","-1","3","500","500","hsl(225, 50%, 50%)","hsl(0, 50%, 50%)","white","3000","7","circle","black","3","2","2","16.879310344827587","[10,17,17,17,17,17,17,17,17,17,17,17,17,17,17,17,17,17,17,17,17,17,17,17,17,17,17,17,17,17,17,17,17,17,17,17,17,17,17,17,17,17,17,17,17,17,17,17,17,17,17,17,17,17,17,17,17,17]","58","600","250","false","20","20","black","1","false","1","1","1200","660","response","j","no","other",""
"","","","","","html-keyboard-response","67","237748","0.0-5.0-0.0-0.0-2.0-0.0-0.0-1.0-2.19","null","","null","<p style='font-size: 60px; color: green'>正确!</p>","","","","","","","","","","","","","","","","","","","","","","","","","","","","","","","","","","","","","","","","","","","","","","",""
"","","","","","html-keyboard-response","68","239249","0.0-5.0-0.0-0.0-2.0-0.0-0.0-1.0-0.20","null","fixation","null","<p style='font-size: 48px; color: white'>+</p >","","","","","","","","","","","","","","","","","","","","","","","","","","","","","","","","","","","","","","","","","","","","","","",""
"","","","","","rdk","69","241404","0.0-5.0-0.0-0.0-2.0-0.0-0.0-1.0-1.20","1138","match_RDK","j","","true","[""f"",""j""]","[""j""]","3000","true","1","100","1","180","0.6","0","5","1","-1","3","500","500","hsl(225, 50%, 50%)","hsl(0, 50%, 50%)","white","3000","7","circle","black","3","2","2","16.897058823529413","[13,17,16,17,17,17,17,17,16,17,17,17,17,17,17,17,17,17,17,17,17,17,17,17,17,17,17,17,17,16,17,17,17,17,17,17,17,17,17,17,17,17,17,17,17,17,17,17,17,17,17,17,17,17,17,17,17,17,17,17,17,17,17,17,17,17,17,17]","68","600","250","false","20","20","black","1","false","1","1","1200","660","response","j","no","other",""
"","","","","","html-keyboard-response","70","242432","0.0-5.0-0.0-0.0-2.0-0.0-0.0-1.0-2.20","null","","null","<p style='font-size: 60px; color: green'>正确!</p>","","","","","","","","","","","","","","","","","","","","","","","","","","","","","","","","","","","","","","","","","","","","","","",""
"","","","","","html-keyboard-response","71","243948","0.0-5.0-0.0-0.0-2.0-0.0-0.0-1.0-0.21","null","fixation","null","<p style='font-size: 48px; color: white'>+</p >","","","","","","","","","","","","","","","","","","","","","","","","","","","","","","","","","","","","","","","","","","","","","","",""
"","","","","","rdk","72","246107","0.0-5.0-0.0-0.0-2.0-0.0-0.0-1.0-1.21","1157","match_RDK","f","","true","[""f"",""j""]","[""f""]","3000","true","1","100","1","180","0.6","0","5","1","-1","3","500","500","hsl(225, 50%, 50%)","hsl(0, 50%, 50%)","white","3000","7","circle","black","3","2","2","16.797101449275363","[11,17,17,17,17,17,17,17,16,17,17,17,17,17,17,17,17,17,17,17,17,17,16,17,17,17,17,17,17,16,17,17,17,17,17,17,17,17,17,17,17,17,17,17,17,17,17,17,17,17,17,17,17,17,16,17,17,17,17,16,17,17,17,17,16,17,16,17,16]","69","600","250","false","20","20","black","1","false","1","1","1200","660","response","f","yes","self",""
"","","","","","html-keyboard-response","73","247132","0.0-5.0-0.0-0.0-2.0-0.0-0.0-1.0-2.21","null","","null","<p style='font-size: 60px; color: green'>正确!</p>","","","","","","","","","","","","","","","","","","","","","","","","","","","","","","","","","","","","","","","","","","","","","","",""
"","","","","","html-keyboard-response","74","248648","0.0-5.0-0.0-0.0-2.0-0.0-0.0-1.0-0.22","null","fixation","null","<p style='font-size: 48px; color: white'>+</p >","","","","","","","","","","","","","","","","","","","","","","","","","","","","","","","","","","","","","","","","","","","","","","",""
"","","","","","rdk","75","250732","0.0-5.0-0.0-0.0-2.0-0.0-0.0-1.0-1.22","1082","match_RDK","j","","true","[""f"",""j""]","[""j""]","3000","true","1","100","1","0","0.6","0","5","1","-1","3","500","500","hsl(225, 50%, 50%)","hsl(0, 50%, 50%)","white","3000","7","circle","black","3","2","2","16.846153846153847","[12,17,17,17,17,17,17,17,17,17,17,17,17,17,17,17,16,17,17,17,17,17,17,17,17,17,17,17,17,17,17,17,17,17,17,17,17,17,17,17,17,17,17,17,17,16,17,16,17,17,16,17,17,17,17,17,17,17,17,17,17,17,17,16,17]","65","600","250","false","20","20","black","1","false","1","1","1200","660","response","j","no","self",""
"","","","","","html-keyboard-response","76","251749","0.0-5.0-0.0-0.0-2.0-0.0-0.0-1.0-2.22","null","","null","<p style='font-size: 60px; color: green'>正确!</p>","","","","","","","","","","","","","","","","","","","","","","","","","","","","","","","","","","","","","","","","","","","","","","",""
"","","","","","html-keyboard-response","77","253265","0.0-5.0-0.0-0.0-2.0-0.0-0.0-1.0-0.23","null","fixation","null","<p style='font-size: 48px; color: white'>+</p >","","","","","","","","","","","","","","","","","","","","","","","","","","","","","","","","","","","","","","","","","","","","","","",""
"","","","","","rdk","78","255292","0.0-5.0-0.0-0.0-2.0-0.0-0.0-1.0-1.23","1010","match_RDK","f","","true","[""f"",""j""]","[""f""]","3000","true","1","100","1","0","0.6","0","5","1","-1","3","500","500","hsl(225, 50%, 50%)","hsl(0, 50%, 50%)","white","3000","7","circle","black","3","2","2","16.883333333333333","[13,17,17,17,17,17,17,17,16,17,17,17,17,17,16,17,17,17,17,17,17,17,17,17,17,17,17,17,17,17,17,17,17,17,17,17,17,17,17,16,17,17,17,17,17,17,17,17,17,17,17,17,17,17,17,17,17,17,17,17]","60","600","250","false","20","20","black","1","false","1","1","1200","660","response","f","yes","other",""
"","","","","","html-keyboard-response","79","256315","0.0-5.0-0.0-0.0-2.0-0.0-0.0-1.0-2.23","null","","null","<p style='font-size: 60px; color: green'>正确!</p>","","","","","","","","","","","","","","","","","","","","","","","","","","","","","","","","","","","","","","","","","","","","","","",""
"","","","","","html-keyboard-response","80","260636","0.0-5.0-0.0-0.0-2.0-0.0-0.0-3.0-0.0","3319","instruction_practiceEnd"," ","
  <div style=""text-align: center; color: white; padding: 30px; font-size: 30px"">
    <p>恭喜您完成练习，请按空格键进入正式任务</p >
    <p> 正式任务仅在 每组 测试结束后提供反馈</p>
  </div>
  ","","","","","","","","","","","","","","","","","","","","","","","","","","","","","","","","","","","","","","","","","","","","","","",""
"","","","","","html-keyboard-response","81","262587","0.0-5.0-0.0-0.0-3.0-0.0-0.0-0.0","938","instruction_match_formal"," ","
  <div style=""text-align: center; color: white; padding: 35px; font-size: 35px"">
    <p>请按下空格键开始【正式任务】</p >
  </div>
  ","","","","","","","","","","","","","","","","","","","","","","","","","","","","","","","","","","","","","","","","","","","","","","",""
"","","","","","html-keyboard-response","82","264104","0.0-5.0-0.0-0.0-3.0-0.0-0.0-1.0-0.0","null","fixation","null","<p style='font-size: 48px; color: white'>+</p >","","","","","","","","","","","","","","","","","","","","","","","","","","","","","","","","","","","","","","","","","","","","","","",""
"","","","","","rdk","83","266060","0.0-5.0-0.0-0.0-3.0-0.0-0.0-1.0-1.0","954","match_RDK","f","","true","[""f"",""j""]","[""f""]","3000","true","1","100","1","180","0.6","0","5","1","-1","3","500","500","hsl(225, 50%, 50%)","hsl(0, 50%, 50%)","white","3000","7","circle","black","3","2","2","16.771929824561404","[5,17,17,17,17,17,17,17,17,17,17,17,17,17,17,17,17,17,17,17,17,17,17,17,17,17,17,17,17,17,17,17,17,17,17,17,17,17,17,17,17,17,17,17,17,17,17,17,17,17,17,17,17,17,16,17,17]","57","600","250","false","20","20","black","1","false","1","1","1200","660","response","f","yes","self",""
"","","","","","html-keyboard-response","84","267082","0.0-5.0-0.0-0.0-3.0-0.0-0.0-1.0-0.1","null","fixation","null","<p style='font-size: 48px; color: white'>+</p >","","","","","","","","","","","","","","","","","","","","","","","","","","","","","","","","","","","","","","","","","","","","","","",""
"","","","","","rdk","85","268988","0.0-5.0-0.0-0.0-3.0-0.0-0.0-1.0-1.1","893","match_RDK","j","","false","[""f"",""j""]","[""f""]","3000","true","1","100","1","0","0.6","0","5","1","-1","3","500","500","hsl(225, 50%, 50%)","hsl(0, 50%, 50%)","white","3000","7","circle","black","3","2","2","16.90566037735849","[17,16,17,17,17,16,17,17,17,17,17,17,17,17,17,17,17,17,17,17,17,17,17,17,16,17,17,17,17,16,17,17,17,17,16,17,17,17,17,17,17,17,17,17,17,17,17,17,17,17,17,17,17]","53","600","250","false","20","20","black","1","false","1","1","1200","660","response","f","yes","other",""
"","","","","","html-keyboard-response","86","270015","0.0-5.0-0.0-0.0-3.0-0.0-0.0-1.0-0.2","null","fixation","null","<p style='font-size: 48px; color: white'>+</p >","","","","","","","","","","","","","","","","","","","","","","","","","","","","","","","","","","","","","","","","","","","","","","",""
"","","","","","rdk","87","272124","0.0-5.0-0.0-0.0-3.0-0.0-0.0-1.0-1.2","1107","match_RDK","j","","true","[""f"",""j""]","[""j""]","3000","true","1","100","1","0","0.6","0","5","1","-1","3","500","500","hsl(225, 50%, 50%)","hsl(0, 50%, 50%)","white","3000","7","circle","black","3","2","2","16.848484848484848","[11,17,17,17,17,17,17,17,17,17,17,17,17,16,17,17,17,17,17,17,17,16,17,17,17,17,17,17,17,17,17,17,17,17,17,17,17,17,17,17,17,17,17,17,17,17,17,17,17,16,17,17,17,17,17,17,17,17,17,17,17,17,17,17,16,17]","66","600","250","false","20","20","black","1","false","1","1","1200","660","response","j","no","self",""
"","","","","","html-keyboard-response","88","273148","0.0-5.0-0.0-0.0-3.0-0.0-0.0-1.0-0.3","null","fixation","null","<p style='font-size: 48px; color: white'>+</p >","","","","","","","","","","","","","","","","","","","","","","","","","","","","","","","","","","","","","","","","","","","","","","",""
"","","","","","rdk","89","275228","0.0-5.0-0.0-0.0-3.0-0.0-0.0-1.0-1.3","1066","match_RDK","j","","true","[""f"",""j""]","[""j""]","3000","true","1","100","1","180","0.6","0","5","1","-1","3","500","500","hsl(225, 50%, 50%)","hsl(0, 50%, 50%)","white","3000","7","circle","black","3","2","2","16.93548387096774","[16,17,17,17,17,17,17,17,17,16,17,17,17,17,17,17,17,17,17,17,17,17,17,17,17,17,17,17,17,17,17,17,17,17,17,17,17,17,17,17,17,17,17,17,17,17,17,17,17,17,17,17,16,17,17,17,17,17,17,17,16,17]","62","600","250","false","20","20","black","1","false","1","1","1200","660","response","j","no","other",""
"","","","","","html-keyboard-response","90","276249","0.0-5.0-0.0-0.0-3.0-0.0-0.0-1.0-0.4","null","fixation","null","<p style='font-size: 48px; color: white'>+</p >","","","","","","","","","","","","","","","","","","","","","","","","","","","","","","","","","","","","","","","","","","","","","","",""
"","","","","","rdk","91","278028","0.0-5.0-0.0-0.0-3.0-0.0-0.0-1.0-1.4","775","match_RDK","f","","true","[""f"",""j""]","[""f""]","3000","true","1","100","1","180","0.6","0","5","1","-1","3","500","500","hsl(225, 50%, 50%)","hsl(0, 50%, 50%)","white","3000","7","circle","black","3","2","2","16.782608695652176","[9,17,17,17,16,17,17,17,17,17,17,17,17,17,17,17,17,17,17,17,17,17,17,17,17,17,17,17,16,17,17,17,17,17,17,17,17,17,17,17,17,17,17,17,17,17]","46","600","250","false","20","20","black","1","false","1","1","1200","660","response","f","yes","self",""
"","","","","","html-keyboard-response","92","279049","0.0-5.0-0.0-0.0-3.0-0.0-0.0-1.0-0.5","null","fixation","null","<p style='font-size: 48px; color: white'>+</p >","","","","","","","","","","","","","","","","","","","","","","","","","","","","","","","","","","","","","","","","","","","","","","",""
"","","","","","rdk","93","280892","0.0-5.0-0.0-0.0-3.0-0.0-0.0-1.0-1.5","828","match_RDK","j","","true","[""f"",""j""]","[""j""]","3000","true","1","100","1","180","0.6","0","5","1","-1","3","500","500","hsl(225, 50%, 50%)","hsl(0, 50%, 50%)","white","3000","7","circle","black","3","2","2","16.877551020408163","[15,17,17,17,16,17,17,17,17,17,17,17,17,17,17,17,16,17,17,17,17,17,16,17,17,17,16,17,17,17,17,17,17,17,17,17,17,17,17,17,17,17,17,17,17,17,17,17,17]","49","600","250","false","20","20","black","1","false","1","1","1200","660","response","j","no","other",""
"","","","","","html-keyboard-response","94","281916","0.0-5.0-0.0-0.0-3.0-0.0-0.0-1.0-0.6","null","fixation","null","<p style='font-size: 48px; color: white'>+</p >","","","","","","","","","","","","","","","","","","","","","","","","","","","","","","","","","","","","","","","","","","","","","","",""
"","","","","","rdk","95","283836","0.0-5.0-0.0-0.0-3.0-0.0-0.0-1.0-1.6","919","match_RDK","j","","true","[""f"",""j""]","[""j""]","3000","true","1","100","1","0","0.6","0","5","1","-1","3","500","500","hsl(225, 50%, 50%)","hsl(0, 50%, 50%)","white","3000","7","circle","black","3","2","2","16.854545454545455","[11,17,17,17,17,17,17,17,17,17,17,17,17,17,17,17,17,17,17,17,17,17,17,17,17,17,17,17,17,17,17,16,17,17,17,17,17,17,17,17,17,17,17,17,17,17,17,17,17,17,17,17,16,17,17]","55","600","250","false","20","20","black","1","false","1","1","1200","660","response","j","no","self",""
"","","","","","html-keyboard-response","96","284852","0.0-5.0-0.0-0.0-3.0-0.0-0.0-1.0-0.7","null","fixation","null","<p style='font-size: 48px; color: white'>+</p >","","","","","","","","","","","","","","","","","","","","","","","","","","","","","","","","","","","","","","","","","","","","","","",""
"","","","","","rdk","97","286780","0.0-5.0-0.0-0.0-3.0-0.0-0.0-1.0-1.7","919","match_RDK","f","","true","[""f"",""j""]","[""f""]","3000","true","1","100","1","0","0.6","0","5","1","-1","3","500","500","hsl(225, 50%, 50%)","hsl(0, 50%, 50%)","white","3000","7","circle","black","3","2","2","16.89090909090909","[17,16,17,17,17,17,17,17,16,17,17,17,16,17,17,17,17,17,17,17,17,17,17,17,17,17,17,17,17,17,17,17,17,17,17,17,16,17,17,17,17,17,17,16,17,16,17,17,17,17,17,17,17,17,17]","55","600","250","false","20","20","black","1","false","1","1","1200","660","response","f","yes","other",""
"","","","","","html-keyboard-response","98","287799","0.0-5.0-0.0-0.0-3.0-0.0-0.0-1.0-0.8","null","fixation","null","<p style='font-size: 48px; color: white'>+</p >","","","","","","","","","","","","","","","","","","","","","","","","","","","","","","","","","","","","","","","","","","","","","","",""
"","","","","","rdk","99","289772","0.0-5.0-0.0-0.0-3.0-0.0-0.0-1.0-1.8","958","match_RDK","f","","false","[""f"",""j""]","[""j""]","3000","true","1","100","1","0","0.6","0","5","1","-1","3","500","500","hsl(225, 50%, 50%)","hsl(0, 50%, 50%)","white","3000","7","circle","black","3","2","2","16.912280701754387","[15,17,17,17,17,17,17,17,17,17,17,17,17,17,17,17,17,17,17,17,16,17,17,17,17,17,17,17,16,17,17,17,17,17,17,17,17,17,17,17,17,17,16,17,17,17,17,17,17,17,17,17,17,17,17,17,17]","57","600","250","false","20","20","black","1","false","1","1","1200","660","response","j","no","self",""
"","","","","","html-keyboard-response","100","290800","0.0-5.0-0.0-0.0-3.0-0.0-0.0-1.0-0.9","null","fixation","null","<p style='font-size: 48px; color: white'>+</p >","","","","","","","","","","","","","","","","","","","","","","","","","","","","","","","","","","","","","","","","","","","","","","",""
"","","","","","rdk","101","292732","0.0-5.0-0.0-0.0-3.0-0.0-0.0-1.0-1.9","918","match_RDK","f","","true","[""f"",""j""]","[""f""]","3000","true","1","100","1","180","0.6","0","5","1","-1","3","500","500","hsl(225, 50%, 50%)","hsl(0, 50%, 50%)","white","3000","7","circle","black","3","2","2","16.927272727272726","[15,17,17,16,17,17,17,17,17,17,17,17,17,17,17,17,17,17,17,17,17,17,17,17,17,17,17,17,17,17,17,17,17,17,17,17,17,17,17,17,17,17,17,17,17,17,17,16,17,17,17,17,17,17,17]","55","600","250","false","20","20","black","1","false","1","1","1200","660","response","f","yes","self",""
"","","","","","html-keyboard-response","102","293748","0.0-5.0-0.0-0.0-3.0-0.0-0.0-1.0-0.10","null","fixation","null","<p style='font-size: 48px; color: white'>+</p >","","","","","","","","","","","","","","","","","","","","","","","","","","","","","","","","","","","","","","","","","","","","","","",""
"","","","","","rdk","103","295852","0.0-5.0-0.0-0.0-3.0-0.0-0.0-1.0-1.10","1102","match_RDK","f","","true","[""f"",""j""]","[""f""]","3000","true","1","100","1","0","0.6","0","5","1","-1","3","500","500","hsl(225, 50%, 50%)","hsl(0, 50%, 50%)","white","3000","7","circle","black","3","2","2","16.87878787878788","[11,17,17,17,17,17,17,17,17,17,17,17,17,17,17,17,17,17,17,17,17,17,17,17,17,17,17,17,17,16,17,17,17,17,17,17,17,17,17,17,17,17,17,17,17,17,17,17,17,17,17,17,16,17,17,17,17,17,17,17,17,17,17,17,17,17]","66","600","250","false","20","20","black","1","false","1","1","1200","660","response","f","yes","other",""
"","","","","","html-keyboard-response","104","296882","0.0-5.0-0.0-0.0-3.0-0.0-0.0-1.0-0.11","null","fixation","null","<p style='font-size: 48px; color: white'>+</p >","","","","","","","","","","","","","","","","","","","","","","","","","","","","","","","","","","","","","","","","","","","","","","",""
"","","","","","rdk","105","299100","0.0-5.0-0.0-0.0-3.0-0.0-0.0-1.0-1.11","1217","match_RDK","j","","true","[""f"",""j""]","[""j""]","3000","true","1","100","1","180","0.6","0","5","1","-1","3","500","500","hsl(225, 50%, 50%)","hsl(0, 50%, 50%)","white","3000","7","circle","black","3","2","2","16.904109589041095","[12,17,17,17,17,17,17,17,17,17,17,17,17,17,17,17,17,17,17,17,17,17,17,17,17,17,17,17,17,17,17,17,17,17,17,17,17,17,17,16,17,17,17,17,17,17,17,17,17,17,16,17,17,17,17,17,17,17,17,17,17,17,17,17,17,17,17,17,17,17,17,17,17]","73","600","250","false","20","20","black","1","false","1","1","1200","660","response","j","no","other",""
"","","","","","html-keyboard-response","106","300116","0.0-5.0-0.0-0.0-3.0-0.0-0.0-1.0-0.12","null","fixation","null","<p style='font-size: 48px; color: white'>+</p >","","","","","","","","","","","","","","","","","","","","","","","","","","","","","","","","","","","","","","","","","","","","","","",""
"","","","","","rdk","107","302668","0.0-5.0-0.0-0.0-3.0-0.0-0.0-1.0-1.12","1551","match_RDK","j","","true","[""f"",""j""]","[""j""]","3000","true","1","100","1","0","0.6","0","5","1","-1","3","500","500","hsl(225, 50%, 50%)","hsl(0, 50%, 50%)","white","3000","7","circle","black","3","2","2","16.892473118279568","[11,17,17,17,17,17,17,17,17,17,17,17,17,17,17,17,17,17,17,17,17,17,17,17,17,17,17,17,17,17,17,17,17,17,17,17,17,17,17,17,16,17,17,17,17,17,17,17,17,17,17,17,17,17,17,17,17,17,17,17,17,17,17,17,17,17,17,17,17,17,16,17,17,17,17,17,17,17,17,17,17,17,17,16,17,17,17,17,17,17,17,16,17]","93","600","250","false","20","20","black","1","false","1","1","1200","660","response","j","no","self",""
"","","","","","html-keyboard-response","108","303684","0.0-5.0-0.0-0.0-3.0-0.0-0.0-1.0-0.13","null","fixation","null","<p style='font-size: 48px; color: white'>+</p >","","","","","","","","","","","","","","","","","","","","","","","","","","","","","","","","","","","","","","","","","","","","","","",""
"","","","","","rdk","109","305628","0.0-5.0-0.0-0.0-3.0-0.0-0.0-1.0-1.13","943","match_RDK","f","","true","[""f"",""j""]","[""f""]","3000","true","1","100","1","180","0.6","0","5","1","-1","3","500","500","hsl(225, 50%, 50%)","hsl(0, 50%, 50%)","white","3000","7","circle","black","3","2","2","16.857142857142858","[10,17,17,17,17,17,17,17,17,17,17,17,17,17,17,17,17,17,17,17,17,17,17,17,17,17,17,17,17,17,17,17,17,17,17,16,17,17,17,17,17,17,17,17,17,17,17,17,17,17,17,17,17,17,17,17]","56","600","250","false","20","20","black","1","false","1","1","1200","660","response","f","yes","self",""
"","","","","","html-keyboard-response","110","306649","0.0-5.0-0.0-0.0-3.0-0.0-0.0-1.0-0.14","null","fixation","null","<p style='font-size: 48px; color: white'>+</p >","","","","","","","","","","","","","","","","","","","","","","","","","","","","","","","","","","","","","","","","","","","","","","",""
"","","","","","rdk","111","309164","0.0-5.0-0.0-0.0-3.0-0.0-0.0-1.0-1.14","1513","match_RDK","j","","true","[""f"",""j""]","[""j""]","3000","true","1","100","1","180","0.6","0","5","1","-1","3","500","500","hsl(225, 50%, 50%)","hsl(0, 50%, 50%)","white","3000","7","circle","black","3","2","2","16.846153846153847","[11,17,17,17,17,17,17,17,17,17,17,17,17,17,17,17,17,17,16,17,17,17,17,17,17,17,16,17,17,17,17,16,17,17,17,17,17,17,17,17,16,17,17,17,16,17,17,17,17,17,17,17,17,17,17,17,17,17,17,17,17,17,17,17,17,17,17,17,17,17,17,16,16,17,17,17,17,17,17,17,17,17,17,17,16,17,17,17,17,17,17]","91","600","250","false","20","20","black","1","false","1","1","1200","660","response","j","no","other",""
"","","","","","html-keyboard-response","112","310182","0.0-5.0-0.0-0.0-3.0-0.0-0.0-1.0-0.15","null","fixation","null","<p style='font-size: 48px; color: white'>+</p >","","","","","","","","","","","","","","","","","","","","","","","","","","","","","","","","","","","","","","","","","","","","","","",""
"","","","","","rdk","113","312316","0.0-5.0-0.0-0.0-3.0-0.0-0.0-1.0-1.15","1132","match_RDK","f","","true","[""f"",""j""]","[""f""]","3000","true","1","100","1","0","0.6","0","5","1","-1","3","500","500","hsl(225, 50%, 50%)","hsl(0, 50%, 50%)","white","3000","7","circle","black","3","2","2","16.88235294117647","[11,17,17,17,17,17,17,17,17,17,16,17,17,17,17,17,17,17,17,17,17,17,17,17,17,17,17,17,17,17,17,17,17,17,17,17,17,17,17,17,16,17,17,17,17,17,17,17,17,17,17,17,17,17,17,17,17,17,17,17,17,17,17,17,17,17,17,17]","68","600","250","false","20","20","black","1","false","1","1","1200","660","response","f","yes","other",""
"","","","","","html-keyboard-response","114","313332","0.0-5.0-0.0-0.0-3.0-0.0-0.0-1.0-0.16","null","fixation","null","<p style='font-size: 48px; color: white'>+</p >","","","","","","","","","","","","","","","","","","","","","","","","","","","","","","","","","","","","","","","","","","","","","","",""
"","","","","","rdk","115","315180","0.0-5.0-0.0-0.0-3.0-0.0-0.0-1.0-1.16","847","match_RDK","f","","true","[""f"",""j""]","[""f""]","3000","true","1","100","1","180","0.6","0","5","1","-1","3","500","500","hsl(225, 50%, 50%)","hsl(0, 50%, 50%)","white","3000","7","circle","black","3","2","2","16.823529411764707","[12,17,17,17,17,17,16,17,17,16,17,17,17,17,17,17,17,17,17,17,17,17,17,16,17,17,17,17,17,17,16,17,17,17,17,17,17,17,17,17,17,17,17,17,17,17,17,17,17,17,17]","51","600","250","false","20","20","black","1","false","1","1","1200","660","response","f","yes","self",""
"","","","","","html-keyboard-response","116","316199","0.0-5.0-0.0-0.0-3.0-0.0-0.0-1.0-0.17","null","fixation","null","<p style='font-size: 48px; color: white'>+</p >","","","","","","","","","","","","","","","","","","","","","","","","","","","","","","","","","","","","","","","","","","","","","","",""
"","","","","","rdk","117","318460","0.0-5.0-0.0-0.0-3.0-0.0-0.0-1.0-1.17","1260","match_RDK","j","","true","[""f"",""j""]","[""j""]","3000","true","1","100","1","180","0.6","0","5","1","-1","3","500","500","hsl(225, 50%, 50%)","hsl(0, 50%, 50%)","white","3000","7","circle","black","3","2","2","16.88","[12,17,17,17,17,17,17,17,17,17,17,16,17,17,17,17,17,17,17,17,17,17,17,17,16,17,17,17,17,17,17,17,17,17,17,17,17,17,17,17,17,17,17,17,17,17,17,17,17,17,17,17,17,17,17,16,17,17,17,17,16,17,17,17,17,17,17,17,17,17,17,17,17,17,17]","75","600","250","false","20","20","black","1","false","1","1","1200","660","response","j","no","other",""
"","","","","","html-keyboard-response","118","319467","0.0-5.0-0.0-0.0-3.0-0.0-0.0-1.0-0.18","null","fixation","null","<p style='font-size: 48px; color: white'>+</p >","","","","","","","","","","","","","","","","","","","","","","","","","","","","","","","","","","","","","","","","","","","","","","",""
"","","","","","rdk","119","321500","0.0-5.0-0.0-0.0-3.0-0.0-0.0-1.0-1.18","1032","match_RDK","f","","true","[""f"",""j""]","[""f""]","3000","true","1","100","1","0","0.6","0","5","1","-1","3","500","500","hsl(225, 50%, 50%)","hsl(0, 50%, 50%)","white","3000","7","circle","black","3","2","2","16.85483870967742","[10,17,17,17,17,17,17,17,17,17,17,17,16,17,17,17,17,17,17,17,17,17,17,17,17,17,17,17,17,17,17,17,17,17,17,17,17,17,17,17,17,17,17,17,17,17,17,17,17,17,17,17,17,17,16,17,17,17,17,17,17,17]","62","600","250","false","20","20","black","1","false","1","1","1200","660","response","f","yes","other",""
"","","","","","html-keyboard-response","120","322516","0.0-5.0-0.0-0.0-3.0-0.0-0.0-1.0-0.19","null","fixation","null","<p style='font-size: 48px; color: white'>+</p >","","","","","","","","","","","","","","","","","","","","","","","","","","","","","","","","","","","","","","","","","","","","","","",""
"","","","","","rdk","121","324620","0.0-5.0-0.0-0.0-3.0-0.0-0.0-1.0-1.19","1087","match_RDK","j","","true","[""f"",""j""]","[""j""]","3000","true","1","100","1","0","0.6","0","5","1","-1","3","500","500","hsl(225, 50%, 50%)","hsl(0, 50%, 50%)","white","3000","7","circle","black","3","2","2","16.876923076923077","[13,17,17,17,17,17,17,17,17,17,17,17,17,16,17,17,16,17,17,17,17,17,17,17,17,17,17,17,17,17,17,17,17,17,17,17,17,17,17,17,16,17,17,17,17,16,17,17,17,17,17,17,17,17,17,17,17,17,17,17,17,17,17,17,17]","65","600","250","false","20","20","black","1","false","1","1","1200","660","response","j","no","self",""
"","","","","","html-keyboard-response","122","325649","0.0-5.0-0.0-0.0-3.0-0.0-0.0-1.0-0.20","null","fixation","null","<p style='font-size: 48px; color: white'>+</p >","","","","","","","","","","","","","","","","","","","","","","","","","","","","","","","","","","","","","","","","","","","","","","",""
"","","","","","rdk","123","327532","0.0-5.0-0.0-0.0-3.0-0.0-0.0-1.0-1.20","882","match_RDK","j","","true","[""f"",""j""]","[""j""]","3000","true","1","100","1","180","0.6","0","5","1","-1","3","500","500","hsl(225, 50%, 50%)","hsl(0, 50%, 50%)","white","3000","7","circle","black","3","2","2","16.867924528301888","[12,17,16,17,17,17,17,17,17,17,17,17,17,17,17,17,17,17,17,17,17,17,17,16,17,17,17,17,17,17,17,17,17,17,17,17,17,17,17,17,17,17,17,17,17,17,17,17,17,17,17,17,17]","53","600","250","false","20","20","black","1","false","1","1","1200","660","response","j","no","other",""
"","","","","","html-keyboard-response","124","328549","0.0-5.0-0.0-0.0-3.0-0.0-0.0-1.0-0.21","null","fixation","null","<p style='font-size: 48px; color: white'>+</p >","","","","","","","","","","","","","","","","","","","","","","","","","","","","","","","","","","","","","","","","","","","","","","",""
"","","","","","rdk","125","330220","0.0-5.0-0.0-0.0-3.0-0.0-0.0-1.0-1.21","669","match_RDK","f","","true","[""f"",""j""]","[""f""]","3000","true","1","100","1","180","0.6","0","5","1","-1","3","500","500","hsl(225, 50%, 50%)","hsl(0, 50%, 50%)","white","3000","7","circle","black","3","2","2","16.8","[11,17,17,17,17,17,17,17,16,17,17,17,17,17,17,17,17,16,17,17,17,17,17,17,17,17,17,17,17,17,17,17,17,17,17,17,17,17,17,17]","40","600","250","false","20","20","black","1","false","1","1","1200","660","response","f","yes","self",""
"","","","","","html-keyboard-response","126","331233","0.0-5.0-0.0-0.0-3.0-0.0-0.0-1.0-0.22","null","fixation","null","<p style='font-size: 48px; color: white'>+</p >","","","","","","","","","","","","","","","","","","","","","","","","","","","","","","","","","","","","","","","","","","","","","","",""
"","","","","","rdk","127","333164","0.0-5.0-0.0-0.0-3.0-0.0-0.0-1.0-1.22","929","match_RDK","f","","true","[""f"",""j""]","[""f""]","3000","true","1","100","1","0","0.6","0","5","1","-1","3","500","500","hsl(225, 50%, 50%)","hsl(0, 50%, 50%)","white","3000","7","circle","black","3","2","2","16.803571428571427","[10,17,17,17,16,17,17,17,17,17,17,17,16,17,17,17,17,17,16,17,17,17,17,17,17,17,17,17,17,17,17,17,17,17,17,17,17,17,17,17,17,17,17,17,17,17,17,17,17,16,17,17,17,17,17,17]","56","600","250","false","20","20","black","1","false","1","1","1200","660","response","f","yes","other",""
"","","","","","html-keyboard-response","128","334182","0.0-5.0-0.0-0.0-3.0-0.0-0.0-1.0-0.23","null","fixation","null","<p style='font-size: 48px; color: white'>+</p >","","","","","","","","","","","","","","","","","","","","","","","","","","","","","","","","","","","","","","","","","","","","","","",""
"","","","","","rdk","129","336140","0.0-5.0-0.0-0.0-3.0-0.0-0.0-1.0-1.23","957","match_RDK","j","","true","[""f"",""j""]","[""j""]","3000","true","1","100","1","0","0.6","0","5","1","-1","3","500","500","hsl(225, 50%, 50%)","hsl(0, 50%, 50%)","white","3000","7","circle","black","3","2","2","16.894736842105264","[12,17,17,17,17,17,17,17,17,17,17,17,17,17,17,17,17,17,17,17,17,17,17,17,17,17,17,17,17,17,16,17,17,17,17,17,17,17,17,17,17,17,17,17,17,17,17,17,17,17,17,17,17,17,17,17,17]","57","600","250","false","20","20","black","1","false","1","1","1200","660","response","j","no","self",""
"","","","","","html-keyboard-response","130","337151","0.0-5.0-0.0-0.0-3.0-0.0-0.0-1.0-0.24","null","fixation","null","<p style='font-size: 48px; color: white'>+</p >","","","","","","","","","","","","","","","","","","","","","","","","","","","","","","","","","","","","","","","","","","","","","","",""
"","","","","","rdk","131","339532","0.0-5.0-0.0-0.0-3.0-0.0-0.0-1.0-1.24","1379","match_RDK","j","","true","[""f"",""j""]","[""j""]","3000","true","1","100","1","0","0.6","0","5","1","-1","3","500","500","hsl(225, 50%, 50%)","hsl(0, 50%, 50%)","white","3000","7","circle","black","3","2","2","16.843373493975903","[9,17,17,17,17,17,17,17,17,17,17,17,17,17,17,17,16,17,17,17,17,17,17,17,17,17,17,17,17,17,17,17,16,17,17,17,17,17,17,17,17,17,17,17,17,17,17,17,17,17,17,17,17,17,17,17,17,16,17,17,17,17,17,17,16,17,17,17,17,17,17,17,17,17,17,17,17,17,17,17,17,17,16]","83","600","250","false","20","20","black","1","false","1","1","1200","660","response","j","no","self",""
"","","","","","html-keyboard-response","132","340549","0.0-5.0-0.0-0.0-3.0-0.0-0.0-1.0-0.25","null","fixation","null","<p style='font-size: 48px; color: white'>+</p >","","","","","","","","","","","","","","","","","","","","","","","","","","","","","","","","","","","","","","","","","","","","","","",""
"","","","","","rdk","133","342813","0.0-5.0-0.0-0.0-3.0-0.0-0.0-1.0-1.25","1263","match_RDK","f","","true","[""f"",""j""]","[""f""]","3000","true","1","100","1","0","0.6","0","5","1","-1","3","500","500","hsl(225, 50%, 50%)","hsl(0, 50%, 50%)","white","3000","7","circle","black","3","2","2","16.82894736842105","[12,17,17,17,17,17,17,17,17,17,16,17,17,16,17,17,17,17,17,17,17,17,17,17,17,17,17,17,17,17,17,16,17,17,17,17,17,17,17,16,17,17,17,17,16,17,17,16,17,17,17,17,17,17,17,17,17,17,17,16,17,17,17,17,17,17,17,17,16,17,17,17,17,17,17,17]","76","600","250","false","20","20","black","1","false","1","1","1200","660","response","f","yes","other",""
"","","","","","html-keyboard-response","134","343833","0.0-5.0-0.0-0.0-3.0-0.0-0.0-1.0-0.26","null","fixation","null","<p style='font-size: 48px; color: white'>+</p >","","","","","","","","","","","","","","","","","","","","","","","","","","","","","","","","","","","","","","","","","","","","","","",""
"","","","","","rdk","135","345516","0.0-5.0-0.0-0.0-3.0-0.0-0.0-1.0-1.26","679","match_RDK","f","","true","[""f"",""j""]","[""f""]","3000","true","1","100","1","180","0.6","0","5","1","-1","3","500","500","hsl(225, 50%, 50%)","hsl(0, 50%, 50%)","white","3000","7","circle","black","3","2","2","16.70731707317073","[8,17,17,17,17,17,17,16,17,17,17,17,17,17,17,17,17,17,17,17,17,17,16,17,17,17,17,17,17,17,17,17,17,17,16,17,17,17,17,17,17]","41","600","250","false","20","20","black","1","false","1","1","1200","660","response","f","yes","self",""
"","","","","","html-keyboard-response","136","346534","0.0-5.0-0.0-0.0-3.0-0.0-0.0-1.0-0.27","null","fixation","null","<p style='font-size: 48px; color: white'>+</p >","","","","","","","","","","","","","","","","","","","","","","","","","","","","","","","","","","","","","","","","","","","","","","",""
"","","","","","rdk","137","348397","0.0-5.0-0.0-0.0-3.0-0.0-0.0-1.0-1.27","851","match_RDK","j","","true","[""f"",""j""]","[""j""]","3000","true","1","100","1","180","0.6","0","5","1","-1","3","500","500","hsl(225, 50%, 50%)","hsl(0, 50%, 50%)","white","3000","7","circle","black","3","2","2","16.96078431372549","[17,17,17,16,17,17,17,17,17,17,17,17,17,17,17,17,17,17,17,17,17,17,17,17,17,17,17,16,17,17,17,17,16,17,17,17,17,17,17,17,17,17,17,17,17,17,17,17,17,17,18]","51","600","250","false","20","20","black","1","false","1","1","1200","660","response","j","no","other",""
"","","","","","html-keyboard-response","138","349416","0.0-5.0-0.0-0.0-3.0-0.0-0.0-1.0-0.28","null","fixation","null","<p style='font-size: 48px; color: white'>+</p >","","","","","","","","","","","","","","","","","","","","","","","","","","","","","","","","","","","","","","","","","","","","","","",""
"","","","","","rdk","139","351356","0.0-5.0-0.0-0.0-3.0-0.0-0.0-1.0-1.28","929","match_RDK","f","","true","[""f"",""j""]","[""f""]","3000","true","1","100","1","180","0.6","0","5","1","-1","3","500","500","hsl(225, 50%, 50%)","hsl(0, 50%, 50%)","white","3000","7","circle","black","3","2","2","16.89090909090909","[18,16,17,17,17,17,17,17,17,17,17,17,17,17,17,17,17,17,17,17,17,17,16,17,17,16,17,17,16,17,17,17,17,17,17,17,17,17,16,17,17,16,17,17,17,17,17,17,17,17,17,17,17,16,17]","55","600","250","false","20","20","black","1","false","1","1","1200","660","response","f","yes","self",""
"","","","","","html-keyboard-response","140","352382","0.0-5.0-0.0-0.0-3.0-0.0-0.0-1.0-0.29","null","fixation","null","<p style='font-size: 48px; color: white'>+</p >","","","","","","","","","","","","","","","","","","","","","","","","","","","","","","","","","","","","","","","","","","","","","","",""
"","","","","","rdk","141","354604","0.0-5.0-0.0-0.0-3.0-0.0-0.0-1.0-1.29","1209","match_RDK","j","","true","[""f"",""j""]","[""j""]","3000","true","1","100","1","0","0.6","0","5","1","-1","3","500","500","hsl(225, 50%, 50%)","hsl(0, 50%, 50%)","white","3000","7","circle","black","3","2","2","16.84722222222222","[16,17,17,17,16,16,17,17,17,17,16,17,17,17,17,17,17,16,17,17,17,17,17,17,17,16,17,17,17,17,17,17,17,17,17,17,17,16,17,17,17,17,17,17,17,17,17,17,17,17,17,16,17,17,17,17,17,17,17,16,17,16,17,17,17,17,17,17,17,16,17,17]","72","600","250","false","20","20","black","1","false","1","1","1200","660","response","j","no","self",""
"","","","","","html-keyboard-response","142","355632","0.0-5.0-0.0-0.0-3.0-0.0-0.0-1.0-0.30","null","fixation","null","<p style='font-size: 48px; color: white'>+</p >","","","","","","","","","","","","","","","","","","","","","","","","","","","","","","","","","","","","","","","","","","","","","","",""
"","","","","","rdk","143","358013","0.0-5.0-0.0-0.0-3.0-0.0-0.0-1.0-1.30","1371","match_RDK","f","","true","[""f"",""j""]","[""f""]","3000","true","1","100","1","0","0.6","0","5","1","-1","3","500","500","hsl(225, 50%, 50%)","hsl(0, 50%, 50%)","white","3000","7","circle","black","3","2","2","16.63855421686747","[3,18,16,17,16,18,16,16,17,17,17,17,17,17,17,17,16,17,17,16,17,17,17,16,17,18,16,17,17,17,17,17,17,17,16,18,16,17,17,17,17,17,17,16,17,17,17,17,16,17,17,17,17,17,16,17,16,17,16,16,17,17,17,17,17,17,16,17,17,17,17,17,17,17,17,16,17,16,17,16,17,17,17]","83","600","250","false","20","20","black","1","false","1","1","1200","660","response","f","yes","other",""
"","","","","","html-keyboard-response","144","359032","0.0-5.0-0.0-0.0-3.0-0.0-0.0-1.0-0.31","null","fixation","null","<p style='font-size: 48px; color: white'>+</p >","","","","","","","","","","","","","","","","","","","","","","","","","","","","","","","","","","","","","","","","","","","","","","",""
"","","","","","rdk","145","361100","0.0-5.0-0.0-0.0-3.0-0.0-0.0-1.0-1.31","1051","match_RDK","j","","true","[""f"",""j""]","[""j""]","3000","true","1","100","1","180","0.6","0","5","1","-1","3","500","500","hsl(225, 50%, 50%)","hsl(0, 50%, 50%)","white","3000","7","circle","black","3","2","2","16.841269841269842","[13,17,17,17,17,17,17,16,17,17,17,17,17,17,17,17,17,17,17,16,17,17,17,17,16,17,17,17,17,16,17,17,17,17,17,17,17,17,17,17,17,17,17,17,17,17,17,17,17,17,17,17,17,17,17,16,17,17,17,17,17,17,16]","63","600","250","false","20","20","black","1","false","1","1","1200","660","response","j","no","other",""
"","","","","","html-keyboard-response","146","362116","0.0-5.0-0.0-0.0-3.0-0.0-0.0-1.0-0.32","null","fixation","null","<p style='font-size: 48px; color: white'>+</p >","","","","","","","","","","","","","","","","","","","","","","","","","","","","","","","","","","","","","","","","","","","","","","",""
"","","","","","rdk","147","364572","0.0-5.0-0.0-0.0-3.0-0.0-0.0-1.0-1.32","1449","match_RDK","j","","true","[""f"",""j""]","[""j""]","3000","true","1","100","1","0","0.6","0","5","1","-1","3","500","500","hsl(225, 50%, 50%)","hsl(0, 50%, 50%)","white","3000","7","circle","black","3","2","2","16.839080459770116","[5,17,17,17,17,17,17,17,17,17,17,17,16,17,17,17,17,17,17,17,17,17,17,17,17,17,17,17,17,17,17,17,17,17,17,17,17,17,17,17,17,17,17,17,17,17,17,17,17,17,17,17,17,17,17,17,17,17,17,17,17,17,17,17,17,17,17,17,17,17,17,17,17,17,17,17,17,17,17,17,17,17,17,17,17,16,17]","87","600","250","false","20","20","black","1","false","1","1","1200","660","response","j","no","self",""
"","","","","","html-keyboard-response","148","365599","0.0-5.0-0.0-0.0-3.0-0.0-0.0-1.0-0.33","null","fixation","null","<p style='font-size: 48px; color: white'>+</p >","","","","","","","","","","","","","","","","","","","","","","","","","","","","","","","","","","","","","","","","","","","","","","",""
"","","","","","rdk","149","367692","0.0-5.0-0.0-0.0-3.0-0.0-0.0-1.0-1.33","1090","match_RDK","f","","true","[""f"",""j""]","[""f""]","3000","true","1","100","1","180","0.6","0","5","1","-1","3","500","500","hsl(225, 50%, 50%)","hsl(0, 50%, 50%)","white","3000","7","circle","black","3","2","2","16.8","[10,17,17,17,17,17,17,17,16,17,17,17,17,17,17,17,17,17,17,17,17,17,17,17,17,17,17,17,17,17,16,17,17,17,17,16,17,17,17,17,17,16,17,17,17,17,17,17,17,17,16,17,17,17,17,17,17,17,17,17,17,17,16,17,17]","65","600","250","false","20","20","black","1","false","1","1","1200","660","response","f","yes","self",""
"","","","","","html-keyboard-response","150","368715","0.0-5.0-0.0-0.0-3.0-0.0-0.0-1.0-0.34","null","fixation","null","<p style='font-size: 48px; color: white'>+</p >","","","","","","","","","","","","","","","","","","","","","","","","","","","","","","","","","","","","","","","","","","","","","","",""
"","","","","","rdk","151","370588","0.0-5.0-0.0-0.0-3.0-0.0-0.0-1.0-1.34","871","match_RDK","j","","true","[""f"",""j""]","[""j""]","3000","true","1","100","1","180","0.6","0","5","1","-1","3","500","500","hsl(225, 50%, 50%)","hsl(0, 50%, 50%)","white","3000","7","circle","black","3","2","2","16.846153846153847","[11,17,17,17,17,17,17,17,17,17,17,17,17,17,17,17,17,17,17,17,17,17,17,17,17,17,17,17,17,17,17,17,17,17,17,17,17,17,17,16,16,17,17,17,17,17,17,17,17,17,17,17]","52","600","250","false","20","20","black","1","false","1","1","1200","660","response","j","no","other",""
"","","","","","html-keyboard-response","152","371599","0.0-5.0-0.0-0.0-3.0-0.0-0.0-1.0-0.35","null","fixation","null","<p style='font-size: 48px; color: white'>+</p >","","","","","","","","","","","","","","","","","","","","","","","","","","","","","","","","","","","","","","","","","","","","","","",""
"","","","","","rdk","153","373708","0.0-5.0-0.0-0.0-3.0-0.0-0.0-1.0-1.35","1097","match_RDK","f","","true","[""f"",""j""]","[""f""]","3000","true","1","100","1","0","0.6","0","5","1","-1","3","500","500","hsl(225, 50%, 50%)","hsl(0, 50%, 50%)","white","3000","7","circle","black","3","2","2","16.606060606060606","[1,17,17,17,16,17,16,17,17,17,16,17,17,17,17,16,17,17,17,16,17,16,17,16,17,17,17,17,17,17,17,16,17,17,17,17,16,17,17,17,17,17,17,17,17,17,17,17,17,17,17,17,17,17,17,17,17,17,16,17,17,17,17,17,17,17]","66","600","250","false","20","20","black","1","false","1","1","1200","660","response","f","yes","other",""
"","","","","","html-keyboard-response","154","374732","0.0-5.0-0.0-0.0-3.0-0.0-0.0-1.0-0.36","null","fixation","null","<p style='font-size: 48px; color: white'>+</p >","","","","","","","","","","","","","","","","","","","","","","","","","","","","","","","","","","","","","","","","","","","","","","",""
"","","","","","rdk","155","376492","0.0-5.0-0.0-0.0-3.0-0.0-0.0-1.0-1.36","759","match_RDK","f","","true","[""f"",""j""]","[""f""]","3000","true","1","100","1","180","0.6","0","5","1","-1","3","500","500","hsl(225, 50%, 50%)","hsl(0, 50%, 50%)","white","3000","7","circle","black","3","2","2","16.8","[12,17,17,17,17,17,17,17,17,17,17,17,17,17,17,17,17,17,17,17,17,17,17,17,16,17,17,17,17,17,17,17,17,17,17,16,17,17,16,17,17,17,16,17,17]","45","600","250","false","20","20","black","1","false","1","1","1200","660","response","f","yes","self",""
"","","","","","html-keyboard-response","156","377501","0.0-5.0-0.0-0.0-3.0-0.0-0.0-1.0-0.37","null","fixation","null","<p style='font-size: 48px; color: white'>+</p >","","","","","","","","","","","","","","","","","","","","","","","","","","","","","","","","","","","","","","","","","","","","","","",""
"","","","","","rdk","157","379597","0.0-5.0-0.0-0.0-3.0-0.0-0.0-1.0-1.37","1095","match_RDK","j","","true","[""f"",""j""]","[""j""]","3000","true","1","100","1","0","0.6","0","5","1","-1","3","500","500","hsl(225, 50%, 50%)","hsl(0, 50%, 50%)","white","3000","7","circle","black","3","2","2","16.833333333333332","[9,17,17,17,17,17,17,17,16,17,17,17,17,17,17,17,17,16,17,17,17,17,17,17,17,17,17,17,16,17,17,17,17,17,17,17,17,17,17,17,17,17,17,17,17,17,17,17,17,17,17,17,17,17,17,17,17,17,17,17,17,17,17,17,17,17]","66","600","250","false","20","20","black","1","false","1","1","1200","660","response","j","no","self",""
"","","","","","html-keyboard-response","158","380615","0.0-5.0-0.0-0.0-3.0-0.0-0.0-1.0-0.38","null","fixation","null","<p style='font-size: 48px; color: white'>+</p >","","","","","","","","","","","","","","","","","","","","","","","","","","","","","","","","","","","","","","","","","","","","","","",""
"","","","","","rdk","159","382652","0.0-5.0-0.0-0.0-3.0-0.0-0.0-1.0-1.38","1036","match_RDK","f","","true","[""f"",""j""]","[""f""]","3000","true","1","100","1","0","0.6","0","5","1","-1","3","500","500","hsl(225, 50%, 50%)","hsl(0, 50%, 50%)","white","3000","7","circle","black","3","2","2","16.85483870967742","[12,17,17,17,17,17,17,17,17,17,16,17,17,17,17,17,17,17,17,17,17,17,17,16,17,17,17,17,17,17,17,17,16,17,17,17,17,17,17,17,17,16,17,17,17,17,17,17,17,17,17,17,17,17,17,17,17,17,17,17,17,17]","62","600","250","false","20","20","black","1","false","1","1","1200","660","response","f","yes","other",""
"","","","","","html-keyboard-response","160","383682","0.0-5.0-0.0-0.0-3.0-0.0-0.0-1.0-0.39","null","fixation","null","<p style='font-size: 48px; color: white'>+</p >","","","","","","","","","","","","","","","","","","","","","","","","","","","","","","","","","","","","","","","","","","","","","","",""
"","","","","","rdk","161","385500","0.0-5.0-0.0-0.0-3.0-0.0-0.0-1.0-1.39","816","match_RDK","j","","true","[""f"",""j""]","[""j""]","3000","true","1","100","1","180","0.6","0","5","1","-1","3","500","500","hsl(225, 50%, 50%)","hsl(0, 50%, 50%)","white","3000","7","circle","black","3","2","2","16.836734693877553","[11,17,17,17,17,17,17,17,17,16,17,17,17,17,17,16,17,17,17,17,17,17,17,17,17,17,17,17,17,17,17,17,17,17,17,17,17,17,17,17,17,17,17,17,17,17,17,17,17]","49","600","250","false","20","20","black","1","false","1","1","1200","660","response","j","no","other",""
"","","","","","html-keyboard-response","162","389023","0.0-5.0-0.0-0.0-3.0-0.0-0.0-2.0","null","","null","<p style='font-size: 35px; color: white'>这组测试中，您正确回答了： 95% 的试次。平均反应时为：1035毫秒。</p>","","","","","","","","","","","","","","","","","","","","","","","","","","","","","","","","","","","","","","","","","","","","","","",""
"","","","","","html-keyboard-response","163","394444","0.0-5.0-0.0-0.0-3.0-0.0-0.0-3.0","4420","instruction_rest"," ","
  <div style=""text-align: center; color: white; padding: 35px; font-size: 35px"">
    <p>请休息一下，若准备好可按空格键继续</p >
  </div>
  ","","","","","","","","","","","","","","","","","","","","","","","","","","","","","","","","","","","","","","","","","","","","","","",""
"","","","","","html-keyboard-response","164","395974","0.0-5.0-0.0-0.0-3.0-0.0-0.0-4.0-0.0","null","fixation","null","<p style='font-size: 48px; color: white'>+</p >","","","","","","","","","","","","","","","","","","","","","","","","","","","","","","","","","","","","","","","","","","","","","","",""
"","","","","","rdk","165","398284","0.0-5.0-0.0-0.0-3.0-0.0-0.0-4.0-1.0","1295","match_RDK","f","","true","[""f"",""j""]","[""f""]","3000","true","1","100","1","0","0.6","0","5","1","-1","3","500","500","hsl(225, 50%, 50%)","hsl(0, 50%, 50%)","white","3000","7","circle","black","3","2","2","16.807692307692307","[6,17,17,17,17,17,17,17,16,17,17,17,17,16,17,17,17,17,17,17,17,17,17,17,17,17,17,17,17,17,17,16,17,17,17,17,17,17,17,17,17,17,17,17,17,17,17,17,17,17,17,17,17,17,17,17,17,17,17,17,17,17,17,17,17,16,17,17,17,17,17,17,17,17,17,17,17,17]","78","600","250","false","20","20","black","1","false","1","1","1200","660","response","f","yes","other",""
"","","","","","html-keyboard-response","166","399298","0.0-5.0-0.0-0.0-3.0-0.0-0.0-4.0-0.1","null","fixation","null","<p style='font-size: 48px; color: white'>+</p >","","","","","","","","","","","","","","","","","","","","","","","","","","","","","","","","","","","","","","","","","","","","","","",""
"","","","","","rdk","167","401068","0.0-5.0-0.0-0.0-3.0-0.0-0.0-4.0-1.1","768","match_RDK","f","","true","[""f"",""j""]","[""f""]","3000","true","1","100","1","180","0.6","0","5","1","-1","3","500","500","hsl(225, 50%, 50%)","hsl(0, 50%, 50%)","white","3000","7","circle","black","3","2","2","16.82608695652174","[12,17,17,17,17,17,16,17,16,17,17,16,17,17,17,17,17,17,17,17,17,17,17,17,17,17,17,17,17,17,17,17,17,17,17,17,17,17,17,17,17,17,17,17,17,17]","46","600","250","false","20","20","black","1","false","1","1","1200","660","response","f","yes","self",""
"","","","","","html-keyboard-response","168","402082","0.0-5.0-0.0-0.0-3.0-0.0-0.0-4.0-0.2","null","fixation","null","<p style='font-size: 48px; color: white'>+</p >","","","","","","","","","","","","","","","","","","","","","","","","","","","","","","","","","","","","","","","","","","","","","","",""
"","","","","","rdk","169","403884","0.0-5.0-0.0-0.0-3.0-0.0-0.0-4.0-1.2","786","match_RDK","j","","true","[""f"",""j""]","[""j""]","3000","true","1","100","1","0","0.6","0","5","1","-1","3","500","500","hsl(225, 50%, 50%)","hsl(0, 50%, 50%)","white","3000","7","circle","black","3","2","2","16.93617021276596","[14,17,17,17,17,17,17,17,17,17,17,17,17,17,17,17,17,17,17,17,17,17,17,17,17,17,17,17,17,17,17,17,17,17,17,17,17,17,17,17,17,17,17,17,17,17,17]","47","600","250","false","20","20","black","1","false","1","1","1200","660","response","j","no","self",""
"","","","","","html-keyboard-response","170","404899","0.0-5.0-0.0-0.0-3.0-0.0-0.0-4.0-0.3","null","fixation","null","<p style='font-size: 48px; color: white'>+</p >","","","","","","","","","","","","","","","","","","","","","","","","","","","","","","","","","","","","","","","","","","","","","","",""
"","","","","","rdk","171","406876","0.0-5.0-0.0-0.0-3.0-0.0-0.0-4.0-1.3","976","match_RDK","j","","true","[""f"",""j""]","[""j""]","3000","true","1","100","1","180","0.6","0","5","1","-1","3","500","500","hsl(225, 50%, 50%)","hsl(0, 50%, 50%)","white","3000","7","circle","black","3","2","2","16.844827586206897","[12,17,17,17,17,17,17,17,17,17,17,16,17,16,17,17,17,17,16,17,17,17,17,17,17,17,16,17,17,17,17,17,17,17,17,17,17,17,17,17,17,17,17,17,17,17,17,17,17,17,17,17,17,17,17,17,17,17]","58","600","250","false","20","20","black","1","false","1","1","1200","660","response","j","no","other",""
"","","","","","html-keyboard-response","172","407899","0.0-5.0-0.0-0.0-3.0-0.0-0.0-4.0-0.4","null","fixation","null","<p style='font-size: 48px; color: white'>+</p >","","","","","","","","","","","","","","","","","","","","","","","","","","","","","","","","","","","","","","","","","","","","","","",""
"","","","","","rdk","173","409613","0.0-5.0-0.0-0.0-3.0-0.0-0.0-4.0-1.4","712","match_RDK","f","","true","[""f"",""j""]","[""f""]","3000","true","1","100","1","180","0.6","0","5","1","-1","3","500","500","hsl(225, 50%, 50%)","hsl(0, 50%, 50%)","white","3000","7","circle","black","3","2","2","16.837209302325583","[11,17,17,17,17,17,17,17,17,17,17,17,17,17,17,17,17,16,17,17,17,17,17,17,17,17,17,17,17,17,17,17,17,17,17,17,17,17,17,17,17,17,17]","43","600","250","false","20","20","black","1","false","1","1","1200","660","response","f","yes","self",""
"","","","","","html-keyboard-response","174","410636","0.0-5.0-0.0-0.0-3.0-0.0-0.0-4.0-0.5","null","fixation","null","<p style='font-size: 48px; color: white'>+</p >","","","","","","","","","","","","","","","","","","","","","","","","","","","","","","","","","","","","","","","","","","","","","","",""
"","","","","","rdk","175","412300","0.0-5.0-0.0-0.0-3.0-0.0-0.0-4.0-1.5","650","match_RDK","j","","true","[""f"",""j""]","[""j""]","3000","true","1","100","1","0","0.6","0","5","1","-1","3","500","500","hsl(225, 50%, 50%)","hsl(0, 50%, 50%)","white","3000","7","circle","black","3","2","2","16.82051282051282","[12,17,17,17,17,17,17,17,17,17,17,17,17,17,17,17,17,17,17,17,17,17,17,17,17,17,17,17,17,16,17,17,17,17,16,17,17,17,17]","39","600","250","false","20","20","black","1","false","1","1","1200","660","response","j","no","self",""
"","","","","","html-keyboard-response","176","413315","0.0-5.0-0.0-0.0-3.0-0.0-0.0-4.0-0.6","null","fixation","null","<p style='font-size: 48px; color: white'>+</p >","","","","","","","","","","","","","","","","","","","","","","","","","","","","","","","","","","","","","","","","","","","","","","",""
"","","","","","rdk","177","415228","0.0-5.0-0.0-0.0-3.0-0.0-0.0-4.0-1.6","911","match_RDK","f","","true","[""f"",""j""]","[""f""]","3000","true","1","100","1","0","0.6","0","5","1","-1","3","500","500","hsl(225, 50%, 50%)","hsl(0, 50%, 50%)","white","3000","7","circle","black","3","2","2","16.85185185185185","[11,17,17,16,17,17,17,17,17,16,17,17,17,17,17,17,17,17,17,17,17,17,17,17,17,17,17,17,17,17,17,17,17,17,17,17,17,17,17,17,17,17,17,17,17,17,17,17,17,17,17,17,17,17]","54","600","250","false","20","20","black","1","false","1","1","1200","660","response","f","yes","other",""
"","","","","","html-keyboard-response","178","416249","0.0-5.0-0.0-0.0-3.0-0.0-0.0-4.0-0.7","null","fixation","null","<p style='font-size: 48px; color: white'>+</p >","","","","","","","","","","","","","","","","","","","","","","","","","","","","","","","","","","","","","","","","","","","","","","",""
"","","","","","rdk","179","418013","0.0-5.0-0.0-0.0-3.0-0.0-0.0-4.0-1.7","759","match_RDK","j","","true","[""f"",""j""]","[""j""]","3000","true","1","100","1","180","0.6","0","5","1","-1","3","500","500","hsl(225, 50%, 50%)","hsl(0, 50%, 50%)","white","3000","7","circle","black","3","2","2","16.695652173913043","[7,17,16,17,17,17,17,17,17,17,17,17,16,17,17,17,17,17,17,17,17,17,16,17,17,17,17,17,17,17,17,16,17,17,17,17,17,17,17,17,17,17,17,17,17,17]","46","600","250","false","20","20","black","1","false","1","1","1200","660","response","j","no","other",""
"","","","","","html-keyboard-response","180","419032","0.0-5.0-0.0-0.0-3.0-0.0-0.0-4.0-0.8","null","fixation","null","<p style='font-size: 48px; color: white'>+</p >","","","","","","","","","","","","","","","","","","","","","","","","","","","","","","","","","","","","","","","","","","","","","","",""
"","","","","","rdk","181","420908","0.0-5.0-0.0-0.0-3.0-0.0-0.0-4.0-1.8","859","match_RDK","f","","true","[""f"",""j""]","[""f""]","3000","true","1","100","1","180","0.6","0","5","1","-1","3","500","500","hsl(225, 50%, 50%)","hsl(0, 50%, 50%)","white","3000","7","circle","black","3","2","2","16.84313725490196","[13,17,17,17,17,17,17,17,17,17,17,17,17,17,17,17,16,17,17,17,17,17,16,17,16,17,17,17,17,17,17,17,17,17,17,17,17,17,17,17,17,17,17,17,17,17,17,16,17,17,17]","51","600","250","false","20","20","black","1","false","1","1","1200","660","response","f","yes","self",""
"","","","","","html-keyboard-response","182","421932","0.0-5.0-0.0-0.0-3.0-0.0-0.0-4.0-0.9","null","fixation","null","<p style='font-size: 48px; color: white'>+</p >","","","","","","","","","","","","","","","","","","","","","","","","","","","","","","","","","","","","","","","","","","","","","","",""
"","","","","","rdk","183","423597","0.0-5.0-0.0-0.0-3.0-0.0-0.0-4.0-1.9","663","match_RDK","j","","true","[""f"",""j""]","[""j""]","3000","true","1","100","1","180","0.6","0","5","1","-1","3","500","500","hsl(225, 50%, 50%)","hsl(0, 50%, 50%)","white","3000","7","circle","black","3","2","2","16.775","[11,17,17,17,17,17,17,17,17,16,17,17,17,17,17,17,16,17,17,17,17,17,17,17,16,17,17,17,17,17,17,17,17,17,17,17,17,17,17,17]","40","600","250","false","20","20","black","1","false","1","1","1200","660","response","j","no","other",""
"","","","","","html-keyboard-response","184","424615","0.0-5.0-0.0-0.0-3.0-0.0-0.0-4.0-0.10","null","fixation","null","<p style='font-size: 48px; color: white'>+</p >","","","","","","","","","","","","","","","","","","","","","","","","","","","","","","","","","","","","","","","","","","","","","","",""
"","","","","","rdk","185","426413","0.0-5.0-0.0-0.0-3.0-0.0-0.0-4.0-1.10","796","match_RDK","j","","true","[""f"",""j""]","[""j""]","3000","true","1","100","1","0","0.6","0","5","1","-1","3","500","500","hsl(225, 50%, 50%)","hsl(0, 50%, 50%)","white","3000","7","circle","black","3","2","2","16.8125","[11,17,17,17,17,17,17,17,17,16,17,17,17,17,17,17,17,16,17,17,17,17,17,17,17,17,17,17,17,17,17,17,17,17,17,17,17,17,17,17,16,17,17,17,17,17,17,17]","48","600","250","false","20","20","black","1","false","1","1","1200","660","response","j","no","self",""
"","","","","","html-keyboard-response","186","427432","0.0-5.0-0.0-0.0-3.0-0.0-0.0-4.0-0.11","null","fixation","null","<p style='font-size: 48px; color: white'>+</p >","","","","","","","","","","","","","","","","","","","","","","","","","","","","","","","","","","","","","","","","","","","","","","",""
"","","","","","rdk","187","429292","0.0-5.0-0.0-0.0-3.0-0.0-0.0-4.0-1.11","858","match_RDK","f","","true","[""f"",""j""]","[""f""]","3000","true","1","100","1","0","0.6","0","5","1","-1","3","500","500","hsl(225, 50%, 50%)","hsl(0, 50%, 50%)","white","3000","7","circle","black","3","2","2","16.84313725490196","[11,17,17,17,17,17,17,17,17,17,17,17,17,17,17,17,17,17,17,17,17,17,17,17,17,17,17,17,16,17,17,17,17,17,17,17,17,17,17,16,17,17,17,17,17,17,17,17,17,17,17]","51","600","250","false","20","20","black","1","false","1","1","1200","660","response","f","yes","other",""
"","","","","","html-keyboard-response","188","430315","0.0-5.0-0.0-0.0-3.0-0.0-0.0-4.0-0.12","null","fixation","null","<p style='font-size: 48px; color: white'>+</p >","","","","","","","","","","","","","","","","","","","","","","","","","","","","","","","","","","","","","","","","","","","","","","",""
"","","","","","rdk","189","432620","0.0-5.0-0.0-0.0-3.0-0.0-0.0-4.0-1.12","1303","match_RDK","j","","true","[""f"",""j""]","[""j""]","3000","true","1","100","1","0","0.6","0","5","1","-1","3","500","500","hsl(225, 50%, 50%)","hsl(0, 50%, 50%)","white","3000","7","circle","black","3","2","2","16.846153846153847","[12,17,17,17,17,17,17,17,17,17,17,16,17,17,17,17,16,17,17,16,17,17,17,17,17,17,17,17,16,17,17,17,17,17,17,17,17,17,17,17,17,17,17,16,17,17,17,17,17,17,17,17,17,17,17,17,17,17,17,17,17,17,16,17,17,17,17,17,17,17,17,17,16,17,17,17,17,17]","78","600","250","false","20","20","black","1","false","1","1","1200","660","response","j","no","self",""
"","","","","","html-keyboard-response","190","433634","0.0-5.0-0.0-0.0-3.0-0.0-0.0-4.0-0.13","null","fixation","null","<p style='font-size: 48px; color: white'>+</p >","","","","","","","","","","","","","","","","","","","","","","","","","","","","","","","","","","","","","","","","","","","","","","",""
"","","","","","rdk","191","435260","0.0-5.0-0.0-0.0-3.0-0.0-0.0-4.0-1.13","624","match_RDK","f","","true","[""f"",""j""]","[""f""]","3000","true","1","100","1","180","0.6","0","5","1","-1","3","500","500","hsl(225, 50%, 50%)","hsl(0, 50%, 50%)","white","3000","7","circle","black","3","2","2","16.7027027027027","[9,17,17,17,17,17,17,17,17,17,17,17,17,17,16,17,17,17,17,16,17,17,17,17,17,17,17,17,17,17,17,17,17,17,16,17,17]","37","600","250","false","20","20","black","1","false","1","1","1200","660","response","f","yes","self",""
"","","","","","html-keyboard-response","192","436266","0.0-5.0-0.0-0.0-3.0-0.0-0.0-4.0-0.14","null","fixation","null","<p style='font-size: 48px; color: white'>+</p >","","","","","","","","","","","","","","","","","","","","","","","","","","","","","","","","","","","","","","","","","","","","","","",""
"","","","","","rdk","193","438172","0.0-5.0-0.0-0.0-3.0-0.0-0.0-4.0-1.14","904","match_RDK","f","","true","[""f"",""j""]","[""f""]","3000","true","1","100","1","0","0.6","0","5","1","-1","3","500","500","hsl(225, 50%, 50%)","hsl(0, 50%, 50%)","white","3000","7","circle","black","3","2","2","16.833333333333332","[11,16,17,17,17,17,17,17,17,17,17,17,17,17,17,17,17,17,17,17,17,17,17,17,17,17,17,17,17,17,16,17,17,17,17,17,17,17,17,17,17,17,17,17,17,17,17,17,17,17,17,17,16,17]","54","600","250","false","20","20","black","1","false","1","1","1200","660","response","f","yes","other",""
"","","","","","html-keyboard-response","194","439184","0.0-5.0-0.0-0.0-3.0-0.0-0.0-4.0-0.15","null","fixation","null","<p style='font-size: 48px; color: white'>+</p >","","","","","","","","","","","","","","","","","","","","","","","","","","","","","","","","","","","","","","","","","","","","","","",""
"","","","","","rdk","195","441197","0.0-5.0-0.0-0.0-3.0-0.0-0.0-4.0-1.15","1011","match_RDK","j","","true","[""f"",""j""]","[""j""]","3000","true","1","100","1","180","0.6","0","5","1","-1","3","500","500","hsl(225, 50%, 50%)","hsl(0, 50%, 50%)","white","3000","7","circle","black","3","2","2","16.81967213114754","[9,17,17,17,17,17,17,17,17,16,17,17,17,17,17,16,17,16,17,17,17,17,17,17,17,17,17,17,17,17,17,17,17,17,17,17,17,17,17,17,17,17,17,17,17,17,17,17,17,17,17,17,17,17,17,17,17,17,17,17,17]","61","600","250","false","20","20","black","1","false","1","1","1200","660","response","j","no","other",""
"","","","","","html-keyboard-response","196","442216","0.0-5.0-0.0-0.0-3.0-0.0-0.0-4.0-0.16","null","fixation","null","<p style='font-size: 48px; color: white'>+</p >","","","","","","","","","","","","","","","","","","","","","","","","","","","","","","","","","","","","","","","","","","","","","","",""
"","","","","","rdk","197","444428","0.0-5.0-0.0-0.0-3.0-0.0-0.0-4.0-1.16","1209","match_RDK","j","","true","[""f"",""j""]","[""j""]","3000","true","1","100","1","180","0.6","0","5","1","-1","3","500","500","hsl(225, 50%, 50%)","hsl(0, 50%, 50%)","white","3000","7","circle","black","3","2","2","16.90277777777778","[10,17,17,17,17,17,17,17,17,17,17,17,17,17,17,17,17,17,17,17,17,17,17,17,17,17,17,17,17,17,17,17,17,17,17,17,17,17,17,17,17,17,17,17,17,17,17,17,17,17,17,17,17,17,17,17,17,17,17,17,17,17,17,17,17,17,17,17,17,17,17,17]","72","600","250","false","20","20","black","1","false","1","1","1200","660","response","j","no","other",""
"","","","","","html-keyboard-response","198","445449","0.0-5.0-0.0-0.0-3.0-0.0-0.0-4.0-0.17","null","fixation","null","<p style='font-size: 48px; color: white'>+</p >","","","","","","","","","","","","","","","","","","","","","","","","","","","","","","","","","","","","","","","","","","","","","","",""
"","","","","","rdk","199","447228","0.0-5.0-0.0-0.0-3.0-0.0-0.0-4.0-1.17","778","match_RDK","f","","true","[""f"",""j""]","[""f""]","3000","true","1","100","1","180","0.6","0","5","1","-1","3","500","500","hsl(225, 50%, 50%)","hsl(0, 50%, 50%)","white","3000","7","circle","black","3","2","2","16.847826086956523","[12,17,17,17,17,17,17,17,17,17,17,17,17,17,17,17,17,17,17,16,17,17,17,17,17,17,17,17,16,17,17,17,17,17,17,17,17,17,17,17,17,17,17,17,17,17]","46","600","250","false","20","20","black","1","false","1","1","1200","660","response","f","yes","self",""
"","","","","","html-keyboard-response","200","448249","0.0-5.0-0.0-0.0-3.0-0.0-0.0-4.0-0.18","null","fixation","null","<p style='font-size: 48px; color: white'>+</p >","","","","","","","","","","","","","","","","","","","","","","","","","","","","","","","","","","","","","","","","","","","","","","",""
"","","","","","rdk","201","450060","0.0-5.0-0.0-0.0-3.0-0.0-0.0-4.0-1.18","800","match_RDK","j","","true","[""f"",""j""]","[""j""]","3000","true","1","100","1","0","0.6","0","5","1","-1","3","500","500","hsl(225, 50%, 50%)","hsl(0, 50%, 50%)","white","3000","7","circle","black","3","2","2","16.625","[2,17,17,17,16,17,17,17,17,17,17,17,17,17,16,17,17,17,16,17,17,17,17,17,17,17,17,17,17,17,17,17,17,17,17,17,17,17,17,17,17,17,17,17,17,17,17,17]","48","600","250","false","20","20","black","1","false","1","1","1200","660","response","j","no","self",""
"","","","","","html-keyboard-response","202","451084","0.0-5.0-0.0-0.0-3.0-0.0-0.0-4.0-0.19","null","fixation","null","<p style='font-size: 48px; color: white'>+</p >","","","","","","","","","","","","","","","","","","","","","","","","","","","","","","","","","","","","","","","","","","","","","","",""
"","","","","","rdk","203","453548","0.0-5.0-0.0-0.0-3.0-0.0-0.0-4.0-1.19","1456","match_RDK","f","","true","[""f"",""j""]","[""f""]","3000","true","1","100","1","0","0.6","0","5","1","-1","3","500","500","hsl(225, 50%, 50%)","hsl(0, 50%, 50%)","white","3000","7","circle","black","3","2","2","16.71590909090909","[3,17,16,17,17,17,17,17,17,17,17,17,17,17,16,17,16,17,17,17,17,17,17,17,17,17,17,17,17,17,17,17,17,17,17,17,17,17,17,17,17,17,16,17,17,16,17,17,17,17,17,16,17,17,17,17,17,16,17,17,17,17,17,17,16,17,17,17,17,17,17,17,17,16,17,17,17,17,17,16,17,17,16,17,17,17,17,17]","88","600","250","false","20","20","black","1","false","1","1","1200","660","response","f","yes","other",""
"","","","","","html-keyboard-response","204","454567","0.0-5.0-0.0-0.0-3.0-0.0-0.0-4.0-0.20","null","fixation","null","<p style='font-size: 48px; color: white'>+</p >","","","","","","","","","","","","","","","","","","","","","","","","","","","","","","","","","","","","","","","","","","","","","","",""
"","","","","","rdk","205","456588","0.0-5.0-0.0-0.0-3.0-0.0-0.0-4.0-1.20","1019","match_RDK","j","","true","[""f"",""j""]","[""j""]","3000","true","1","100","1","180","0.6","0","5","1","-1","3","500","500","hsl(225, 50%, 50%)","hsl(0, 50%, 50%)","white","3000","7","circle","black","3","2","2","16.78688524590164","[9,17,17,17,17,17,17,17,16,17,17,17,17,17,17,17,17,17,17,17,17,17,17,17,17,17,17,17,17,17,17,17,17,17,17,17,17,17,17,17,17,17,17,17,16,17,17,16,17,17,17,16,17,17,17,17,17,17,17,16,17]","61","600","250","false","20","20","black","1","false","1","1","1200","660","response","j","no","other",""
"","","","","","html-keyboard-response","206","457601","0.0-5.0-0.0-0.0-3.0-0.0-0.0-4.0-0.21","null","fixation","null","<p style='font-size: 48px; color: white'>+</p >","","","","","","","","","","","","","","","","","","","","","","","","","","","","","","","","","","","","","","","","","","","","","","",""
"","","","","","rdk","207","459340","0.0-5.0-0.0-0.0-3.0-0.0-0.0-4.0-1.21","735","match_RDK","f","","true","[""f"",""j""]","[""f""]","3000","true","1","100","1","180","0.6","0","5","1","-1","3","500","500","hsl(225, 50%, 50%)","hsl(0, 50%, 50%)","white","3000","7","circle","black","3","2","2","16.681818181818183","[7,17,17,17,17,17,17,17,17,17,17,17,17,16,17,17,17,17,16,17,17,17,17,17,17,17,17,17,16,17,16,17,17,17,17,17,17,17,17,17,17,17,17,17]","44","600","250","false","20","20","black","1","false","1","1","1200","660","response","f","yes","self",""
"","","","","","html-keyboard-response","208","460351","0.0-5.0-0.0-0.0-3.0-0.0-0.0-4.0-0.22","null","fixation","null","<p style='font-size: 48px; color: white'>+</p >","","","","","","","","","","","","","","","","","","","","","","","","","","","","","","","","","","","","","","","","","","","","","","",""
"","","","","","rdk","209","462236","0.0-5.0-0.0-0.0-3.0-0.0-0.0-4.0-1.22","883","match_RDK","j","","true","[""f"",""j""]","[""j""]","3000","true","1","100","1","0","0.6","0","5","1","-1","3","500","500","hsl(225, 50%, 50%)","hsl(0, 50%, 50%)","white","3000","7","circle","black","3","2","2","16.79245283018868","[9,17,17,17,17,17,17,17,17,17,17,16,17,17,17,17,17,17,17,17,17,17,17,17,17,17,17,17,17,17,17,17,16,17,16,17,17,17,17,17,17,17,17,17,17,17,17,17,17,17,17,17,17]","53","600","250","false","20","20","black","1","false","1","1","1200","660","response","j","no","self",""
"","","","","","html-keyboard-response","210","463249","0.0-5.0-0.0-0.0-3.0-0.0-0.0-4.0-0.23","null","fixation","null","<p style='font-size: 48px; color: white'>+</p >","","","","","","","","","","","","","","","","","","","","","","","","","","","","","","","","","","","","","","","","","","","","","","",""
"","","","","","rdk","211","465068","0.0-5.0-0.0-0.0-3.0-0.0-0.0-4.0-1.23","818","match_RDK","f","","true","[""f"",""j""]","[""f""]","3000","true","1","100","1","0","0.6","0","5","1","-1","3","500","500","hsl(225, 50%, 50%)","hsl(0, 50%, 50%)","white","3000","7","circle","black","3","2","2","16.836734693877553","[12,17,17,17,17,17,17,16,17,17,17,16,17,17,17,17,17,17,17,17,16,17,17,17,17,17,17,17,17,17,17,17,17,17,17,17,17,17,17,17,17,17,17,17,17,17,17,17,17]","49","600","250","false","20","20","black","1","false","1","1","1200","660","response","f","yes","other",""
"","","","","","html-keyboard-response","212","466084","0.0-5.0-0.0-0.0-3.0-0.0-0.0-4.0-0.24","null","fixation","null","<p style='font-size: 48px; color: white'>+</p >","","","","","","","","","","","","","","","","","","","","","","","","","","","","","","","","","","","","","","","","","","","","","","",""
"","","","","","rdk","213","467997","0.0-5.0-0.0-0.0-3.0-0.0-0.0-4.0-1.24","912","match_RDK","f","","true","[""f"",""j""]","[""f""]","3000","true","1","100","1","0","0.6","0","5","1","-1","3","500","500","hsl(225, 50%, 50%)","hsl(0, 50%, 50%)","white","3000","7","circle","black","3","2","2","16.854545454545455","[10,17,17,17,17,17,17,17,17,17,17,17,17,17,17,17,17,17,16,17,17,17,17,17,17,17,17,17,17,17,17,17,17,17,17,17,17,17,17,17,17,17,17,17,16,17,17,17,17,17,17,17,17,17,18]","55","600","250","false","20","20","black","1","false","1","1","1200","660","response","f","yes","other",""
"","","","","","html-keyboard-response","214","469015","0.0-5.0-0.0-0.0-3.0-0.0-0.0-4.0-0.25","null","fixation","null","<p style='font-size: 48px; color: white'>+</p >","","","","","","","","","","","","","","","","","","","","","","","","","","","","","","","","","","","","","","","","","","","","","","",""
"","","","","","rdk","215","470699","0.0-5.0-0.0-0.0-3.0-0.0-0.0-4.0-1.25","683","match_RDK","j","","true","[""f"",""j""]","[""j""]","3000","true","1","100","1","180","0.6","0","5","1","-1","3","500","500","hsl(225, 50%, 50%)","hsl(0, 50%, 50%)","white","3000","7","circle","black","3","2","2","16.78048780487805","[12,17,17,17,17,17,17,17,17,16,17,17,17,17,17,17,17,17,17,17,17,17,17,17,17,17,17,16,17,17,16,17,17,17,17,17,17,17,17,16,17]","41","600","250","false","20","20","black","1","false","1","1","1200","660","response","j","no","other",""
"","","","","","html-keyboard-response","216","471715","0.0-5.0-0.0-0.0-3.0-0.0-0.0-4.0-0.26","null","fixation","null","<p style='font-size: 48px; color: white'>+</p >","","","","","","","","","","","","","","","","","","","","","","","","","","","","","","","","","","","","","","","","","","","","","","",""
