"success","timeout","failed_images","failed_audio","failed_video","trial_type","trial_index","time_elapsed","internal_node_id","rt","part","response","stimulus","correct","choices","correct_choice","trial_duration","response_ends_trial","number_of_apertures","number_of_dots","number_of_sets","coherent_direction","coherence","opposite_coherence","dot_radius","dot_side_length","dot_life","move_distance","aperture_width","aperture_height","dot_color_beforeOne","dot_color_beforeTwo","dot_color_after","dot_color_delay","move_delay","dot_shape","background_color","RDK_type","aperture_type","reinsert_type","frame_rate","frame_rate_array","number_of_frames","aperture_center_x","aperture_center_y","fixation_cross","fixation_cross_width","fixation_cross_height","fixation_cross_color","fixation_cross_thickness","border","border_thickness","border_color","canvas_width","canvas_height","task","correct_responce","match","association","difficulty"
"true","false","[]","[]","[]","preload","0","17","0.0-0.0","","","","","","","","","","","","","","","","","","","","","","","","","","","","","","","","","","","","","","","","","","","","","","","","","","",""
"true","","","","","fullscreen","1","1744110","0.0-1.0","1742069","fullScreen","","","","","","","","","","","","","","","","","","","","","","","","","","","","","","","","","","","","","","","","","","","","","","","","",""
"","","","","","survey","2","1754771","0.0-2.0","9603","survey","{""sex"":""男"",""age"":23,""hands"":""右"",""color_blindness"":""都不是""}","","","","","","","","","","","","","","","","","","","","","","","","","","","","","","","","","","","","","","","","","","","","","","","",""
"","","","","","survey-text","3","1765854","0.0-3.0","10066","color_test","{""Q0"":""be\n""}","","","","","","","","","","","","","","","","","","","","","","","","","","","","","","","","","","","","","","","","","","","","","","","",""
"","","","","","html-keyboard-response","4","1771968","0.0-4.0","5110","instruction_beginning"," ","
      <div style=""text-align: left; color: white"">
        <h3 style=""text-align: center; font-size: 30px; margin: 0;"">欢迎参与本实验</h3>
          <p>为充分保障您的权利，请确保您已经知晓并同意《参与实验同意书》以及《数据公开知情同意书》，</p>
          <p>如果您未见过上述内容，请咨询实验员 ，</p>
          <p>如果您选择继续实验，则表示您已经清楚两份知情同意书的内容并同意 。</p>
          <p>在整个实验中，您需要完成两项任务，具体的任务要求会在后面说明 ，</p>
          <p>请按空格键进入实验</p >
      </div>","","","","","","","","","","","","","","","","","","","","","","","","","","","","","","","","","","","","","","","","","","","","","","",""
"","","","","","html-keyboard-response","5","1791806","0.0-5.0-0.0-0.0-0.0","18823","instruction_match"," ","
      <div style=""text-align: left; color: white; padding: 10px""> 
        <h3 style=""text-align: center; font-size: 30px; margin: 10px;"">任务一：匹配判断</h3>
        <p>接下来，屏幕上会呈现一些运动的彩色圆点，</p>
        <p>如果图中大部分点向 <span style=""font-weight: bold"">左</span> 运动代表 <span style=""font-weight: bold"">你自己</span> ，向 <span style=""font-weight: bold"">右</span> 运动代表 <span style=""font-weight: bold"">生人（即陌生人）</span>，</p >
        <p>同时散点图的下方会出现 ""自己"" 或 ""生人"" 的文字标签。</p >
        <p>您需要判断 <span style=""font-weight: bold"">散点图的运动方向与文字是否匹配</span> ：</p >
        <ul>
          <li><span style=""color: hsl(135, 50%, 50%)"">匹配</span>，请按键盘 <span style=""color: hsl(135, 50%, 50%)"">""F"" 键</span></li>
          <li><span style=""color: red"">不匹配</span>，请按键盘 <span style=""color: red"">""J"" 键</span> </li>
        </ul>
        <p>按下空格键后将呈现示例</p>
      </div>","","","","","","","","","","","","","","","","","","","","","","","","","","","","","","","","","","","","","","","","","","","","","","",""
"","","","","","rdk","6","1809422","0.0-5.0-0.0-0.0-1.0","16601","example"," ","","true","["" ""]","["" ""]","3000000","true","2","100","1","[180,0]","0.6","0","5","1","-1","3","400","400","hsl(225, 50%, 50%)","hsl(0, 50%, 50%)","white","3000000","6","circle","black","3","1","2","16.800200803212853","[12,13,16,17,16,17,17,17,17,16,17,17,16,17,17,17,16,17,17,17,17,16,15,17,17,17,17,17,17,17,16,17,17,16,17,17,17,17,17,17,17,16,17,17,17,17,17,17,16,16,17,17,17,17,17,17,17,17,17,17,17,17,17,16,17,16,17,17,16,17,17,17,17,16,17,17,17,17,17,17,17,17,17,17,17,17,17,17,17,17,17,16,17,17,17,16,17,17,17,17,17,17,17,17,17,16,17,17,16,16,17,17,17,17,17,17,16,17,17,17,17,16,17,17,16,17,17,16,17,16,17,16,17,17,16,16,16,17,18,17,17,17,16,16,17,17,17,17,17,17,17,17,17,17,17,17,17,17,17,17,17,17,17,16,17,17,17,17,16,17,17,17,17,17,16,16,17,17,17,17,17,17,17,17,17,17,17,17,17,17,16,16,17,17,17,16,17,16,17,17,18,16,17,17,17,16,17,17,16,17,17,16,17,17,16,17,17,17,17,17,17,17,16,17,17,17,17,17,16,16,17,17,17,17,17,17,17,17,17,16,17,17,17,17,17,17,17,17,17,16,17,16,17,17,17,17,17,16,17,17,17,17,15,17,17,17,17,17,17,16,16,17,17,17,17,17,17,17,16,17,16,17,17,18,17,17,16,17,17,15,17,17,17,17,17,18,16,17,15,17,17,17,17,17,17,17,17,17,16,17,17,17,17,17,17,17,17,17,17,17,16,16,17,17,17,17,17,17,17,16,17,17,17,17,17,17,16,17,16,16,17,17,17,18,17,16,17,16,17,17,17,17,17,17,17,17,16,17,17,17,17,16,17,17,16,17,16,16,16,17,16,18,17,17,17,17,17,16,17,17,17,17,17,17,17,16,17,17,18,16,17,17,17,16,17,17,17,17,17,17,17,16,17,16,17,17,17,17,16,16,17,17,17,18,16,17,17,16,17,17,17,17,17,17,17,17,17,17,17,16,17,17,17,16,17,17,17,17,17,17,17,17,16,16,17,17,17,17,17,17,17,17,17,16,17,17,17,17,17,17,17,17,17,17,17,16,17,17,17,17,17,16,17,17,16,17,16,17,17,17,17,17,15,17,17,17,18,17,17,17,17,17,17,17,17,16,17,17,18,17,17,16,17,17,17,16,17,17,17,17,16,17,16,16,16,17,17,17,17,17,18,16,17,17,17,17,16,16,17,17,16,17,17,17,17,17,18,16,16,17,17,17,16,17,17,16,17,17,17,16,16,17,17,17,17,17,17,17,17,16,17,17,17,16,17,17,17,17,18,17,16,17,15,17,17,17,17,17,17,16,17,17,17,17,17,16,17,17,17,16,17,17,17,17,17,17,16,17,17,17,17,16,17,17,16,17,17,16,17,16,17,17,17,17,17,17,15,17,17,17,18,16,17,17,17,17,17,17,17,17,17,16,17,17,16,17,18,17,16,17,17,16,17,17,17,17,17,17,16,16,17,17,17,17,17,16,18,16,17,17,17,17,16,17,17,17,16,17,17,17,17,17,17,15,17,17,17,17,17,17,17,17,17,16,17,17,17,16,17,17,17,17,16,17,17,15,17,17,17,18,16,17,16,17,16,17,17,17,17,17,17,17,17,16,16,17,16,17,18,17,17,17,17,17,17,17,17,17,15,17,17,17,17,17,17,17,17,17,16,16,17,17,17,17,17,16,17,17,16,17,15,16,17,17,17,17,17,16,17,17,17,17,17,18,17,17,18,16,17,17,17,17,17,17,17,18,16,17,16,17,17,17,16,17,17,17,17,18,16,17,17,17,16,17,17,17,17,16,17,17,18,16,17,16,17,17,17,17,17,16,17,17,16,16,17,16,17,17,17,17,17,17,18,16,17,16,17,17,17,16,17,17,17,17,17,16,17,17,16,17,17,16,17,16,17,16,17,17,17,16,17,17,17,17,17,17,17,17,17,17,17,17,17,16,17,16,17,16,16,16,17,17,17,17,17,17,17,17,17,17,17,17,17,17,17,17,17,17,17,17,17,17,17,17,17,17,17,17,17,17,17,17,17,17,17,17,16,17,17,17,17,17,17,16,17,17,16,17,16,17,16,16,16,17,17,17,17,17,18,16,16,17,17,17,16,17,17,17,17,17,17,17,17,17,17,17,17,17,16,17,16,17,18,16,17,17,17,17,17,17,17,17,16,17,17,16,17,16,17,17,17,17,17,17,17,17,17,17,16,17,17,17,16,17,17,17,17,17,17,16,17,17,17,17,16,16]","996","[300,900]","[280,280]","false","20","20","black","1","false","1","1","1200","660","","","","",""
"","","","","","html-keyboard-response","7","1814350","0.0-5.0-0.0-0.0-2.0-0.0-0.0-0.0","4415","instruction_match_practice"," ","
      <div style=""text-align: left; color: white; padding: 10px"">  
        <h3 style=""text-align: center; font-size: 30px; margin: 10px;"">练习阶段</h3>
        <p>大部分点向 <span style=""font-weight: bold"">左</span> 运动代表 <span style=""font-weight: bold"">你自己</span> ，向 <span style=""font-weight: bold"">右</span> 运动代表 <span style=""font-weight: bold"">生人（即陌生人）</span>，</p >
        <p>您需要在3秒内判断 <span style=""font-weight: bold"">散点图的运动方向与文字是否匹配</span>，<span style=""color: hsl(135, 50%, 50%);"">匹配</span> 按 <span style=""color: hsl(135, 50%, 50%);"">""F"" 键</span>；<span style=""color: red;"">不匹配</span> 按 <span style=""color: red;"">""J"" 键</span></p >
        <p>正确率达到 70% 及以上才能进入下一个阶段 </p >
        <p>请把左手食指放在 ""F"" 键上，右手食指放在 ""J"" 键上</p >
        <p>请按下空格键开始练习</p >
      </div>","","","","","","","","","","","","","","","","","","","","","","","","","","","","","","","","","","","","","","","","","","","","","","",""
"","","","","","html-keyboard-response","8","1815865","0.0-5.0-0.0-0.0-2.0-0.0-0.0-1.0-0.0","null","fixation","null","<p style='font-size: 48px; color: white'>+</p >","","","","","","","","","","","","","","","","","","","","","","","","","","","","","","","","","","","","","","","","","","","","","","",""
"","","","","","rdk","9","1818477","0.0-5.0-0.0-0.0-2.0-0.0-0.0-1.0-1.0","1599","match_RDK","f","","true","[""f"",""j""]","[""f""]","3000","true","1","100","1","180","0.6","0","5","1","-1","3","500","500","hsl(225, 50%, 50%)","hsl(0, 50%, 50%)","white","3000","10","circle","black","3","2","2","16.65625","[1,15,16,17,18,16,17,17,17,17,17,17,17,17,17,17,17,17,17,17,17,17,17,17,17,17,16,17,17,17,17,17,17,17,17,17,16,17,16,17,17,17,17,16,17,17,17,17,17,16,17,17,17,18,17,16,17,17,17,17,16,17,16,17,17,16,16,17,17,17,17,16,16,17,17,17,17,16,17,17,17,17,17,17,16,17,17,16,17,17,17,18,17,17,17,16]","96","600","250","false","20","20","black","1","false","1","1","1200","660","response","f","yes","self",""
"","","","","","html-keyboard-response","10","1819499","0.0-5.0-0.0-0.0-2.0-0.0-0.0-1.0-2.0","null","","null","<p style='font-size: 60px; color: green'>正确!</p>","","","","","","","","","","","","","","","","","","","","","","","","","","","","","","","","","","","","","","","","","","","","","","",""
"","","","","","html-keyboard-response","11","1821032","0.0-5.0-0.0-0.0-2.0-0.0-0.0-1.0-0.1","null","fixation","null","<p style='font-size: 48px; color: white'>+</p >","","","","","","","","","","","","","","","","","","","","","","","","","","","","","","","","","","","","","","","","","","","","","","",""
"","","","","","rdk","12","1823102","0.0-5.0-0.0-0.0-2.0-0.0-0.0-1.0-1.1","1063","match_RDK","j","","false","[""f"",""j""]","[""f""]","3000","true","1","100","1","0","0.6","0","5","1","-1","3","500","500","hsl(225, 50%, 50%)","hsl(0, 50%, 50%)","white","3000","10","circle","black","3","2","2","16.546875","[6,16,17,17,17,18,17,17,17,16,17,17,17,16,17,17,16,17,17,16,16,17,16,17,17,17,17,17,16,17,17,16,17,17,17,16,17,17,17,16,17,17,17,17,16,17,17,16,17,17,16,17,16,17,17,16,17,16,17,17,17,16,16,17]","64","600","250","false","20","20","black","1","false","1","1","1200","660","response","f","yes","other",""
"","","","","","html-keyboard-response","13","1824132","0.0-5.0-0.0-0.0-2.0-0.0-0.0-1.0-2.1","null","","null","<p style='font-size: 60px; color: red'>错误!</p>","","","","","","","","","","","","","","","","","","","","","","","","","","","","","","","","","","","","","","","","","","","","","","",""
"","","","","","html-keyboard-response","14","1825648","0.0-5.0-0.0-0.0-2.0-0.0-0.0-1.0-0.2","null","fixation","null","<p style='font-size: 48px; color: white'>+</p >","","","","","","","","","","","","","","","","","","","","","","","","","","","","","","","","","","","","","","","","","","","","","","",""
"","","","","","rdk","15","1827951","0.0-5.0-0.0-0.0-2.0-0.0-0.0-1.0-1.2","1292","match_RDK","j","","true","[""f"",""j""]","[""j""]","3000","true","1","100","1","0","0.6","0","5","1","-1","3","500","500","hsl(225, 50%, 50%)","hsl(0, 50%, 50%)","white","3000","10","circle","black","3","2","2","16.705128205128204","[3,16,17,17,17,16,17,17,17,17,16,17,16,17,17,17,17,17,17,17,17,17,17,17,17,17,17,17,17,17,17,17,17,17,17,17,17,17,17,16,16,17,17,18,16,17,17,16,17,17,17,17,17,17,17,17,17,16,17,17,17,17,17,17,17,17,17,17,17,17,16,17,17,17,17,17,17,17]","78","600","250","false","20","20","black","1","false","1","1","1200","660","response","j","no","self",""
"","","","","","html-keyboard-response","16","1828966","0.0-5.0-0.0-0.0-2.0-0.0-0.0-1.0-2.2","null","","null","<p style='font-size: 60px; color: green'>正确!</p>","","","","","","","","","","","","","","","","","","","","","","","","","","","","","","","","","","","","","","","","","","","","","","",""
"","","","","","html-keyboard-response","17","1830482","0.0-5.0-0.0-0.0-2.0-0.0-0.0-1.0-0.3","null","fixation","null","<p style='font-size: 48px; color: white'>+</p >","","","","","","","","","","","","","","","","","","","","","","","","","","","","","","","","","","","","","","","","","","","","","","",""
"","","","","","rdk","18","1832878","0.0-5.0-0.0-0.0-2.0-0.0-0.0-1.0-1.3","1387","match_RDK","j","","true","[""f"",""j""]","[""j""]","3000","true","1","100","1","180","0.6","0","5","1","-1","3","500","500","hsl(225, 50%, 50%)","hsl(0, 50%, 50%)","white","3000","10","circle","black","3","2","2","16.59036144578313","[4,16,17,17,16,18,17,17,16,17,17,16,17,16,17,16,17,17,17,16,17,17,17,17,16,17,17,16,17,17,16,17,16,17,17,16,17,17,17,17,17,16,17,17,17,16,16,16,17,17,17,17,17,16,17,17,17,16,17,17,17,16,17,17,17,17,17,17,17,16,17,17,17,17,17,17,17,17,16,17,17,16,17]","83","600","250","false","20","20","black","1","false","1","1","1200","660","response","j","no","other",""
"","","","","","html-keyboard-response","19","1833899","0.0-5.0-0.0-0.0-2.0-0.0-0.0-1.0-2.3","null","","null","<p style='font-size: 60px; color: green'>正确!</p>","","","","","","","","","","","","","","","","","","","","","","","","","","","","","","","","","","","","","","","","","","","","","","",""
"","","","","","html-keyboard-response","20","1835405","0.0-5.0-0.0-0.0-2.0-0.0-0.0-1.0-0.4","null","fixation","null","<p style='font-size: 48px; color: white'>+</p >","","","","","","","","","","","","","","","","","","","","","","","","","","","","","","","","","","","","","","","","","","","","","","",""
"","","","","","rdk","21","1837822","0.0-5.0-0.0-0.0-2.0-0.0-0.0-1.0-1.4","1400","match_RDK","j","","true","[""f"",""j""]","[""j""]","3000","true","1","100","1","180","0.6","0","5","1","-1","3","500","500","hsl(225, 50%, 50%)","hsl(0, 50%, 50%)","white","3000","10","circle","black","3","2","2","16.678571428571427","[6,17,17,17,17,17,17,17,17,17,16,17,17,17,17,17,17,17,16,18,16,17,16,17,16,17,17,17,17,15,17,17,17,18,16,16,17,17,16,16,17,17,17,17,17,17,17,17,17,17,17,16,17,16,16,17,16,17,17,18,17,17,17,17,17,17,16,17,17,17,17,17,16,17,17,17,17,16,16,18,16,17,17,17]","84","600","250","false","20","20","black","1","false","1","1","1200","660","response","j","no","other",""
"","","","","","html-keyboard-response","22","1838849","0.0-5.0-0.0-0.0-2.0-0.0-0.0-1.0-2.4","null","","null","<p style='font-size: 60px; color: green'>正确!</p>","","","","","","","","","","","","","","","","","","","","","","","","","","","","","","","","","","","","","","","","","","","","","","",""
"","","","","","html-keyboard-response","23","1840365","0.0-5.0-0.0-0.0-2.0-0.0-0.0-1.0-0.5","null","fixation","null","<p style='font-size: 48px; color: white'>+</p >","","","","","","","","","","","","","","","","","","","","","","","","","","","","","","","","","","","","","","","","","","","","","","",""
"","","","","","rdk","24","1842670","0.0-5.0-0.0-0.0-2.0-0.0-0.0-1.0-1.5","1301","match_RDK","j","","true","[""f"",""j""]","[""j""]","3000","true","1","100","1","0","0.6","0","5","1","-1","3","500","500","hsl(225, 50%, 50%)","hsl(0, 50%, 50%)","white","3000","10","circle","black","3","2","2","16.641025641025642","[10,16,17,17,17,17,17,17,17,16,17,17,17,16,17,16,17,17,16,17,17,17,16,17,17,16,17,17,17,17,16,17,17,17,16,17,17,17,17,17,16,17,16,17,16,17,17,16,17,17,16,17,17,17,16,17,17,17,16,17,16,17,17,17,17,17,17,16,17,16,17,17,17,16,17,16,17,17]","78","600","250","false","20","20","black","1","false","1","1","1200","660","response","j","no","self",""
"","","","","","html-keyboard-response","25","1843699","0.0-5.0-0.0-0.0-2.0-0.0-0.0-1.0-2.5","null","","null","<p style='font-size: 60px; color: green'>正确!</p>","","","","","","","","","","","","","","","","","","","","","","","","","","","","","","","","","","","","","","","","","","","","","","",""
"","","","","","html-keyboard-response","26","1845216","0.0-5.0-0.0-0.0-2.0-0.0-0.0-1.0-0.6","null","fixation","null","<p style='font-size: 48px; color: white'>+</p >","","","","","","","","","","","","","","","","","","","","","","","","","","","","","","","","","","","","","","","","","","","","","","",""
"","","","","","rdk","27","1847662","0.0-5.0-0.0-0.0-2.0-0.0-0.0-1.0-1.6","1442","match_RDK","f","","true","[""f"",""j""]","[""f""]","3000","true","1","100","1","0","0.6","0","5","1","-1","3","500","500","hsl(225, 50%, 50%)","hsl(0, 50%, 50%)","white","3000","10","circle","black","3","2","2","16.72093023255814","[8,17,17,17,17,18,17,17,17,17,16,17,17,17,16,17,17,17,17,16,17,17,17,17,17,16,17,16,17,17,17,17,17,17,17,16,17,17,17,17,16,17,17,16,16,17,17,17,17,17,16,18,16,17,17,17,17,17,17,17,17,17,17,17,16,15,18,16,17,16,17,17,17,17,17,16,17,17,17,17,17,17,17,16,17,17]","86","600","250","false","20","20","black","1","false","1","1","1200","660","response","f","yes","other",""
"","","","","","html-keyboard-response","28","1848683","0.0-5.0-0.0-0.0-2.0-0.0-0.0-1.0-2.6","null","","null","<p style='font-size: 60px; color: green'>正确!</p>","","","","","","","","","","","","","","","","","","","","","","","","","","","","","","","","","","","","","","","","","","","","","","",""
"","","","","","html-keyboard-response","29","1850200","0.0-5.0-0.0-0.0-2.0-0.0-0.0-1.0-0.7","null","fixation","null","<p style='font-size: 48px; color: white'>+</p >","","","","","","","","","","","","","","","","","","","","","","","","","","","","","","","","","","","","","","","","","","","","","","",""
"","","","","","rdk","30","1852366","0.0-5.0-0.0-0.0-2.0-0.0-0.0-1.0-1.7","1149","match_RDK","f","","true","[""f"",""j""]","[""f""]","3000","true","1","100","1","180","0.6","0","5","1","-1","3","500","500","hsl(225, 50%, 50%)","hsl(0, 50%, 50%)","white","3000","10","circle","black","3","2","2","16.840579710144926","[11,17,17,17,17,17,17,16,17,17,17,17,17,17,17,17,17,17,17,17,17,17,17,17,17,17,17,17,17,17,17,17,17,16,17,17,17,17,17,17,17,17,17,16,17,17,17,17,17,17,17,17,17,17,17,17,17,17,17,17,17,16,17,17,17,17,17,16,17]","69","600","250","false","20","20","black","1","false","1","1","1200","660","response","f","yes","self",""
"","","","","","html-keyboard-response","31","1853382","0.0-5.0-0.0-0.0-2.0-0.0-0.0-1.0-2.7","null","","null","<p style='font-size: 60px; color: green'>正确!</p>","","","","","","","","","","","","","","","","","","","","","","","","","","","","","","","","","","","","","","","","","","","","","","",""
"","","","","","html-keyboard-response","32","1854885","0.0-5.0-0.0-0.0-2.0-0.0-0.0-1.0-0.8","null","fixation","null","<p style='font-size: 48px; color: white'>+</p >","","","","","","","","","","","","","","","","","","","","","","","","","","","","","","","","","","","","","","","","","","","","","","",""
"","","","","","rdk","33","1857217","0.0-5.0-0.0-0.0-2.0-0.0-0.0-1.0-1.8","1324","match_RDK","f","","true","[""f"",""j""]","[""f""]","3000","true","1","100","1","0","0.6","0","5","1","-1","3","500","500","hsl(225, 50%, 50%)","hsl(0, 50%, 50%)","white","3000","10","circle","black","3","2","2","16.7875","[9,10,17,17,17,17,17,18,16,17,17,17,17,17,17,17,17,17,17,17,17,17,17,17,17,17,17,17,17,17,17,17,17,17,16,17,17,17,17,17,17,17,17,17,17,17,16,17,17,17,17,17,16,17,17,17,17,17,17,17,17,17,17,17,17,17,17,17,17,16,17,17,17,18,17,17,17,17,17,18]","80","600","250","false","20","20","black","1","false","1","1","1200","660","response","f","yes","other",""
"","","","","","html-keyboard-response","34","1858232","0.0-5.0-0.0-0.0-2.0-0.0-0.0-1.0-2.8","null","","null","<p style='font-size: 60px; color: green'>正确!</p>","","","","","","","","","","","","","","","","","","","","","","","","","","","","","","","","","","","","","","","","","","","","","","",""
"","","","","","html-keyboard-response","35","1859749","0.0-5.0-0.0-0.0-2.0-0.0-0.0-1.0-0.9","null","fixation","null","<p style='font-size: 48px; color: white'>+</p >","","","","","","","","","","","","","","","","","","","","","","","","","","","","","","","","","","","","","","","","","","","","","","",""
"","","","","","rdk","36","1861822","0.0-5.0-0.0-0.0-2.0-0.0-0.0-1.0-1.9","1070","match_RDK","j","","true","[""f"",""j""]","[""j""]","3000","true","1","100","1","0","0.6","0","5","1","-1","3","500","500","hsl(225, 50%, 50%)","hsl(0, 50%, 50%)","white","3000","10","circle","black","3","2","2","16.875","[10,17,17,17,17,17,16,17,17,17,17,18,17,17,17,17,17,17,16,17,17,17,17,17,17,17,17,17,17,17,17,17,17,17,17,17,17,17,17,17,17,17,17,17,17,17,17,17,17,17,17,17,17,17,17,17,17,17,17,17,17,17,17,17]","64","600","250","false","20","20","black","1","false","1","1","1200","660","response","j","no","self",""
"","","","","","html-keyboard-response","37","1862850","0.0-5.0-0.0-0.0-2.0-0.0-0.0-1.0-2.9","null","","null","<p style='font-size: 60px; color: green'>正确!</p>","","","","","","","","","","","","","","","","","","","","","","","","","","","","","","","","","","","","","","","","","","","","","","",""
"","","","","","html-keyboard-response","38","1864366","0.0-5.0-0.0-0.0-2.0-0.0-0.0-1.0-0.10","null","fixation","null","<p style='font-size: 48px; color: white'>+</p >","","","","","","","","","","","","","","","","","","","","","","","","","","","","","","","","","","","","","","","","","","","","","","",""
"","","","","","rdk","39","1867406","0.0-5.0-0.0-0.0-2.0-0.0-0.0-1.0-1.10","2037","match_RDK","f","","true","[""f"",""j""]","[""f""]","3000","true","1","100","1","180","0.6","0","5","1","-1","3","500","500","hsl(225, 50%, 50%)","hsl(0, 50%, 50%)","white","3000","10","circle","black","3","2","2","16.688524590163933","[9,17,17,17,16,17,17,17,17,17,17,17,17,16,17,17,16,17,17,17,17,16,17,17,17,17,17,17,17,16,17,16,17,16,17,17,17,17,17,17,17,16,17,17,17,16,17,17,17,17,17,16,17,16,17,17,17,17,16,17,16,17,17,17,17,17,16,17,17,17,16,17,17,17,17,17,16,16,17,17,17,17,16,17,17,16,17,17,16,17,17,17,17,16,17,17,16,16,17,16,17,17,17,17,16,17,17,17,17,16,17,17,17,17,16,17,16,16,16,17,17,17]","122","600","250","false","20","20","black","1","false","1","1","1200","660","response","f","yes","self",""
"","","","","","html-keyboard-response","40","1868433","0.0-5.0-0.0-0.0-2.0-0.0-0.0-1.0-2.10","null","","null","<p style='font-size: 60px; color: green'>正确!</p>","","","","","","","","","","","","","","","","","","","","","","","","","","","","","","","","","","","","","","","","","","","","","","",""
"","","","","","html-keyboard-response","41","1869950","0.0-5.0-0.0-0.0-2.0-0.0-0.0-1.0-0.11","null","fixation","null","<p style='font-size: 48px; color: white'>+</p >","","","","","","","","","","","","","","","","","","","","","","","","","","","","","","","","","","","","","","","","","","","","","","",""
"","","","","","rdk","42","1873022","0.0-5.0-0.0-0.0-2.0-0.0-0.0-1.0-1.11","2056","match_RDK","j","","true","[""f"",""j""]","[""j""]","3000","true","1","100","1","180","0.6","0","5","1","-1","3","500","500","hsl(225, 50%, 50%)","hsl(0, 50%, 50%)","white","3000","10","circle","black","3","2","2","16.934959349593495","[14,17,17,17,17,17,17,17,17,17,17,17,17,17,17,16,17,17,17,17,17,17,17,17,17,17,16,17,17,17,17,17,17,17,17,17,17,16,17,17,17,17,17,17,17,17,17,17,17,17,17,17,17,16,17,17,17,17,17,17,17,17,17,17,17,17,17,17,17,17,17,17,17,17,17,17,17,17,17,17,17,16,17,17,17,17,17,17,17,17,17,17,17,17,17,17,17,17,17,17,17,17,17,17,17,17,17,17,17,17,17,17,17,17,17,17,17,17,17,17,17,17,17]","123","600","250","false","20","20","black","1","false","1","1","1200","660","response","j","no","other",""
"","","","","","html-keyboard-response","43","1874050","0.0-5.0-0.0-0.0-2.0-0.0-0.0-1.0-2.11","null","","null","<p style='font-size: 60px; color: green'>正确!</p>","","","","","","","","","","","","","","","","","","","","","","","","","","","","","","","","","","","","","","","","","","","","","","",""
"","","","","","html-keyboard-response","44","1875567","0.0-5.0-0.0-0.0-2.0-0.0-0.0-1.0-0.12","null","fixation","null","<p style='font-size: 48px; color: white'>+</p >","","","","","","","","","","","","","","","","","","","","","","","","","","","","","","","","","","","","","","","","","","","","","","",""
"","","","","","rdk","45","1877678","0.0-5.0-0.0-0.0-2.0-0.0-0.0-1.0-1.12","1094","match_RDK","j","","true","[""f"",""j""]","[""j""]","3000","true","1","100","1","180","0.6","0","5","1","-1","3","500","500","hsl(225, 50%, 50%)","hsl(0, 50%, 50%)","white","3000","10","circle","black","3","2","2","16.8","[11,17,17,17,17,17,16,17,17,17,17,17,17,17,17,17,17,17,17,17,17,17,17,17,17,17,17,17,17,17,17,16,17,17,17,17,17,17,16,17,17,17,17,16,16,17,17,17,17,17,17,17,16,17,17,17,17,17,17,17,17,17,16,17,17]","65","600","250","false","20","20","black","1","false","1","1","1200","660","response","j","no","other",""
"","","","","","html-keyboard-response","46","1878684","0.0-5.0-0.0-0.0-2.0-0.0-0.0-1.0-2.12","null","","null","<p style='font-size: 60px; color: green'>正确!</p>","","","","","","","","","","","","","","","","","","","","","","","","","","","","","","","","","","","","","","","","","","","","","","",""
"","","","","","html-keyboard-response","47","1880200","0.0-5.0-0.0-0.0-2.0-0.0-0.0-1.0-0.13","null","fixation","null","<p style='font-size: 48px; color: white'>+</p >","","","","","","","","","","","","","","","","","","","","","","","","","","","","","","","","","","","","","","","","","","","","","","",""
"","","","","","rdk","48","1882510","0.0-5.0-0.0-0.0-2.0-0.0-0.0-1.0-1.13","1305","match_RDK","j","","false","[""f"",""j""]","[""f""]","3000","true","1","100","1","0","0.6","0","5","1","-1","3","500","500","hsl(225, 50%, 50%)","hsl(0, 50%, 50%)","white","3000","10","circle","black","3","2","2","16.82051282051282","[8,17,17,17,16,17,17,17,17,17,17,17,17,17,17,17,17,16,17,17,17,17,17,17,17,17,17,17,17,17,17,17,17,17,16,17,17,17,17,17,17,17,17,17,17,17,17,16,17,17,17,17,17,17,17,17,17,17,16,17,17,17,17,17,17,17,17,17,17,17,17,17,17,17,17,17,17,17]","78","600","250","false","20","20","black","1","false","1","1","1200","660","response","f","yes","other",""
"","","","","","html-keyboard-response","49","1883533","0.0-5.0-0.0-0.0-2.0-0.0-0.0-1.0-2.13","null","","null","<p style='font-size: 60px; color: red'>错误!</p>","","","","","","","","","","","","","","","","","","","","","","","","","","","","","","","","","","","","","","","","","","","","","","",""
"","","","","","html-keyboard-response","50","1885054","0.0-5.0-0.0-0.0-2.0-0.0-0.0-1.0-0.14","null","fixation","null","<p style='font-size: 48px; color: white'>+</p >","","","","","","","","","","","","","","","","","","","","","","","","","","","","","","","","","","","","","","","","","","","","","","",""
"","","","","","rdk","51","1887710","0.0-5.0-0.0-0.0-2.0-0.0-0.0-1.0-1.14","1643","match_RDK","j","","true","[""f"",""j""]","[""j""]","3000","true","1","100","1","0","0.6","0","5","1","-1","3","500","500","hsl(225, 50%, 50%)","hsl(0, 50%, 50%)","white","3000","10","circle","black","3","2","2","16.785714285714285","[11,17,17,17,17,17,17,17,17,17,17,17,17,17,17,17,17,17,16,17,16,17,16,17,16,17,17,17,17,17,16,17,16,17,17,17,16,17,17,17,17,17,17,17,17,17,17,17,17,17,17,17,17,17,17,17,16,17,16,17,16,17,17,17,16,17,17,16,17,16,17,17,17,17,17,17,17,17,17,17,17,17,17,17,17,17,17,16,17,17,17,17,17,16,17,17,17,17]","98","600","250","false","20","20","black","1","false","1","1","1200","660","response","j","no","self",""
"","","","","","html-keyboard-response","52","1888733","0.0-5.0-0.0-0.0-2.0-0.0-0.0-1.0-2.14","null","","null","<p style='font-size: 60px; color: green'>正确!</p>","","","","","","","","","","","","","","","","","","","","","","","","","","","","","","","","","","","","","","","","","","","","","","",""
"","","","","","html-keyboard-response","53","1890250","0.0-5.0-0.0-0.0-2.0-0.0-0.0-1.0-0.15","null","fixation","null","<p style='font-size: 48px; color: white'>+</p >","","","","","","","","","","","","","","","","","","","","","","","","","","","","","","","","","","","","","","","","","","","","","","",""
"","","","","","rdk","54","1892174","0.0-5.0-0.0-0.0-2.0-0.0-0.0-1.0-1.15","907","match_RDK","f","","true","[""f"",""j""]","[""f""]","3000","true","1","100","1","180","0.6","0","5","1","-1","3","500","500","hsl(225, 50%, 50%)","hsl(0, 50%, 50%)","white","3000","10","circle","black","3","2","2","16.75925925925926","[13,17,17,17,17,16,17,17,17,17,17,17,17,17,16,17,17,17,17,17,16,17,17,16,17,17,16,17,17,17,16,17,16,16,17,17,17,17,17,17,17,17,17,17,17,17,17,16,17,17,17,17,17,17]","54","600","250","false","20","20","black","1","false","1","1","1200","660","response","f","yes","self",""
"","","","","","html-keyboard-response","55","1893199","0.0-5.0-0.0-0.0-2.0-0.0-0.0-1.0-2.15","null","","null","<p style='font-size: 60px; color: green'>正确!</p>","","","","","","","","","","","","","","","","","","","","","","","","","","","","","","","","","","","","","","","","","","","","","","",""
"","","","","","html-keyboard-response","56","1894716","0.0-5.0-0.0-0.0-2.0-0.0-0.0-1.0-0.16","null","fixation","null","<p style='font-size: 48px; color: white'>+</p >","","","","","","","","","","","","","","","","","","","","","","","","","","","","","","","","","","","","","","","","","","","","","","",""
"","","","","","rdk","57","1896574","0.0-5.0-0.0-0.0-2.0-0.0-0.0-1.0-1.16","850","match_RDK","j","","true","[""f"",""j""]","[""j""]","3000","true","1","100","1","0","0.6","0","5","1","-1","3","500","500","hsl(225, 50%, 50%)","hsl(0, 50%, 50%)","white","3000","10","circle","black","3","2","2","16.686274509803923","[8,14,17,17,16,17,17,17,17,17,17,17,17,16,17,17,17,17,17,17,17,17,16,17,17,17,17,17,17,17,17,17,17,17,17,16,17,17,17,17,17,17,17,17,17,17,17,17,17,17,17]","51","600","250","false","20","20","black","1","false","1","1","1200","660","response","j","no","self",""
"","","","","","html-keyboard-response","58","1897600","0.0-5.0-0.0-0.0-2.0-0.0-0.0-1.0-2.16","null","","null","<p style='font-size: 60px; color: green'>正确!</p>","","","","","","","","","","","","","","","","","","","","","","","","","","","","","","","","","","","","","","","","","","","","","","",""
"","","","","","html-keyboard-response","59","1899114","0.0-5.0-0.0-0.0-2.0-0.0-0.0-1.0-0.17","null","fixation","null","<p style='font-size: 48px; color: white'>+</p >","","","","","","","","","","","","","","","","","","","","","","","","","","","","","","","","","","","","","","","","","","","","","","",""
"","","","","","rdk","60","1900862","0.0-5.0-0.0-0.0-2.0-0.0-0.0-1.0-1.17","744","match_RDK","f","","false","[""f"",""j""]","[""j""]","3000","true","1","100","1","180","0.6","0","5","1","-1","3","500","500","hsl(225, 50%, 50%)","hsl(0, 50%, 50%)","white","3000","10","circle","black","3","2","2","16.75","[10,17,17,17,17,17,17,17,16,17,17,17,17,16,17,17,17,17,17,17,17,17,17,17,17,17,16,17,17,17,17,17,17,17,17,17,17,17,17,17,17,17,16,17]","44","600","250","false","20","20","black","1","false","1","1","1200","660","response","j","no","other",""
"","","","","","html-keyboard-response","61","1901867","0.0-5.0-0.0-0.0-2.0-0.0-0.0-1.0-2.17","null","","null","<p style='font-size: 60px; color: red'>错误!</p>","","","","","","","","","","","","","","","","","","","","","","","","","","","","","","","","","","","","","","","","","","","","","","",""
"","","","","","html-keyboard-response","62","1903391","0.0-5.0-0.0-0.0-2.0-0.0-0.0-1.0-0.18","null","fixation","null","<p style='font-size: 48px; color: white'>+</p >","","","","","","","","","","","","","","","","","","","","","","","","","","","","","","","","","","","","","","","","","","","","","","",""
"","","","","","rdk","63","1905247","0.0-5.0-0.0-0.0-2.0-0.0-0.0-1.0-1.18","846","match_RDK","f","","true","[""f"",""j""]","[""f""]","3000","true","1","100","1","180","0.6","0","5","1","-1","3","500","500","hsl(225, 50%, 50%)","hsl(0, 50%, 50%)","white","3000","10","circle","black","3","2","2","16.82","[13,17,17,17,17,16,17,17,17,17,17,17,17,16,17,17,17,17,17,17,17,17,17,17,16,16,17,17,17,17,17,17,17,17,17,17,17,17,17,17,17,17,17,17,17,17,17,17,17,16]","50","600","250","false","20","20","black","1","false","1","1","1200","660","response","f","yes","self",""
"","","","","","html-keyboard-response","64","1906266","0.0-5.0-0.0-0.0-2.0-0.0-0.0-1.0-2.18","null","","null","<p style='font-size: 60px; color: green'>正确!</p>","","","","","","","","","","","","","","","","","","","","","","","","","","","","","","","","","","","","","","","","","","","","","","",""
"","","","","","html-keyboard-response","65","1907783","0.0-5.0-0.0-0.0-2.0-0.0-0.0-1.0-0.19","null","fixation","null","<p style='font-size: 48px; color: white'>+</p >","","","","","","","","","","","","","","","","","","","","","","","","","","","","","","","","","","","","","","","","","","","","","","",""
"","","","","","rdk","66","1909647","0.0-5.0-0.0-0.0-2.0-0.0-0.0-1.0-1.19","861","match_RDK","f","","true","[""f"",""j""]","[""f""]","3000","true","1","100","1","0","0.6","0","5","1","-1","3","500","500","hsl(225, 50%, 50%)","hsl(0, 50%, 50%)","white","3000","10","circle","black","3","2","2","16.764705882352942","[10,17,17,17,17,17,17,17,16,17,17,17,17,17,17,17,17,17,17,16,17,17,17,17,17,17,17,16,17,17,17,16,17,17,17,17,17,17,17,17,17,17,17,17,17,17,17,17,16,17,17]","51","600","250","false","20","20","black","1","false","1","1","1200","660","response","f","yes","other",""
"","","","","","html-keyboard-response","67","1910666","0.0-5.0-0.0-0.0-2.0-0.0-0.0-1.0-2.19","null","","null","<p style='font-size: 60px; color: green'>正确!</p>","","","","","","","","","","","","","","","","","","","","","","","","","","","","","","","","","","","","","","","","","","","","","","",""
"","","","","","html-keyboard-response","68","1912183","0.0-5.0-0.0-0.0-2.0-0.0-0.0-1.0-0.20","null","fixation","null","<p style='font-size: 48px; color: white'>+</p >","","","","","","","","","","","","","","","","","","","","","","","","","","","","","","","","","","","","","","","","","","","","","","",""
"","","","","","rdk","69","1914365","0.0-5.0-0.0-0.0-2.0-0.0-0.0-1.0-1.20","1165","match_RDK","f","","true","[""f"",""j""]","[""f""]","3000","true","1","100","1","0","0.6","0","5","1","-1","3","500","500","hsl(225, 50%, 50%)","hsl(0, 50%, 50%)","white","3000","10","circle","black","3","2","2","16.771428571428572","[11,17,17,17,17,17,17,17,16,17,17,16,17,17,16,17,17,17,17,16,17,17,17,17,17,17,17,17,17,16,17,17,17,17,17,17,17,16,17,17,17,17,17,17,17,17,17,17,17,17,16,17,16,17,17,17,17,17,17,16,17,17,17,17,17,17,17,16,17,17]","70","600","250","false","20","20","black","1","false","1","1","1200","660","response","f","yes","other",""
"","","","","","html-keyboard-response","70","1915383","0.0-5.0-0.0-0.0-2.0-0.0-0.0-1.0-2.20","null","","null","<p style='font-size: 60px; color: green'>正确!</p>","","","","","","","","","","","","","","","","","","","","","","","","","","","","","","","","","","","","","","","","","","","","","","",""
"","","","","","html-keyboard-response","71","1916891","0.0-5.0-0.0-0.0-2.0-0.0-0.0-1.0-0.21","null","fixation","null","<p style='font-size: 48px; color: white'>+</p >","","","","","","","","","","","","","","","","","","","","","","","","","","","","","","","","","","","","","","","","","","","","","","",""
"","","","","","rdk","72","1918734","0.0-5.0-0.0-0.0-2.0-0.0-0.0-1.0-1.21","835","match_RDK","j","","true","[""f"",""j""]","[""j""]","3000","true","1","100","1","0","0.6","0","5","1","-1","3","500","500","hsl(225, 50%, 50%)","hsl(0, 50%, 50%)","white","3000","10","circle","black","3","2","2","16.86","[12,17,17,17,17,17,17,17,17,17,17,17,17,17,17,16,16,17,17,17,17,17,17,17,17,17,17,17,17,17,17,17,17,17,17,17,17,17,17,17,17,17,17,17,17,17,17,17,17,17]","50","600","250","false","20","20","black","1","false","1","1","1200","660","response","j","no","self",""
"","","","","","html-keyboard-response","73","1919749","0.0-5.0-0.0-0.0-2.0-0.0-0.0-1.0-2.21","null","","null","<p style='font-size: 60px; color: green'>正确!</p>","","","","","","","","","","","","","","","","","","","","","","","","","","","","","","","","","","","","","","","","","","","","","","",""
"","","","","","html-keyboard-response","74","1921267","0.0-5.0-0.0-0.0-2.0-0.0-0.0-1.0-0.22","null","fixation","null","<p style='font-size: 48px; color: white'>+</p >","","","","","","","","","","","","","","","","","","","","","","","","","","","","","","","","","","","","","","","","","","","","","","",""
"","","","","","rdk","75","1923471","0.0-5.0-0.0-0.0-2.0-0.0-0.0-1.0-1.22","1197","match_RDK","j","","true","[""f"",""j""]","[""j""]","3000","true","1","100","1","180","0.6","0","5","1","-1","3","500","500","hsl(225, 50%, 50%)","hsl(0, 50%, 50%)","white","3000","10","circle","black","3","2","2","16.569444444444443","[5,17,17,17,17,17,16,17,16,16,17,17,17,17,17,16,16,17,16,17,17,17,16,17,16,17,17,17,17,16,17,17,16,17,16,17,17,17,17,17,16,17,16,17,17,17,16,17,17,17,17,17,16,16,18,16,17,17,17,17,16,17,17,17,17,16,17,17,16,17,17,17]","72","600","250","false","20","20","black","1","false","1","1","1200","660","response","j","no","other",""
"","","","","","html-keyboard-response","76","1924499","0.0-5.0-0.0-0.0-2.0-0.0-0.0-1.0-2.22","null","","null","<p style='font-size: 60px; color: green'>正确!</p>","","","","","","","","","","","","","","","","","","","","","","","","","","","","","","","","","","","","","","","","","","","","","","",""
"","","","","","html-keyboard-response","77","1926016","0.0-5.0-0.0-0.0-2.0-0.0-0.0-1.0-0.23","null","fixation","null","<p style='font-size: 48px; color: white'>+</p >","","","","","","","","","","","","","","","","","","","","","","","","","","","","","","","","","","","","","","","","","","","","","","",""
"","","","","","rdk","78","1927870","0.0-5.0-0.0-0.0-2.0-0.0-0.0-1.0-1.23","840","match_RDK","f","","true","[""f"",""j""]","[""f""]","3000","true","1","100","1","180","0.6","0","5","1","-1","3","500","500","hsl(225, 50%, 50%)","hsl(0, 50%, 50%)","white","3000","10","circle","black","3","2","2","16.88","[15,17,17,17,18,17,17,17,17,17,17,17,17,17,17,17,16,18,16,17,17,17,17,17,17,17,17,17,17,17,17,17,17,17,16,17,16,17,17,17,17,17,17,16,17,17,16,17,17,17]","50","600","250","false","20","20","black","1","false","1","1","1200","660","response","f","yes","self",""
"","","","","","html-keyboard-response","79","1928899","0.0-5.0-0.0-0.0-2.0-0.0-0.0-1.0-2.23","null","","null","<p style='font-size: 60px; color: green'>正确!</p>","","","","","","","","","","","","","","","","","","","","","","","","","","","","","","","","","","","","","","","","","","","","","","",""
"","","","","","html-keyboard-response","80","1936079","0.0-5.0-0.0-0.0-2.0-0.0-0.0-3.0-0.0","6177","instruction_practiceEnd"," ","
  <div style=""text-align: center; color: white; padding: 30px; font-size: 30px"">
    <p>恭喜您完成练习，请按空格键进入正式任务</p >
    <p> 正式任务仅在 每组 测试结束后提供反馈</p>
  </div>
  ","","","","","","","","","","","","","","","","","","","","","","","","","","","","","","","","","","","","","","","","","","","","","","",""
"","","","","","html-keyboard-response","81","1938366","0.0-5.0-0.0-0.0-3.0-0.0-0.0-0.0","1281","instruction_match_formal"," ","
  <div style=""text-align: center; color: white; padding: 35px; font-size: 35px"">
    <p>请按下空格键开始【正式任务】</p >
  </div>
  ","","","","","","","","","","","","","","","","","","","","","","","","","","","","","","","","","","","","","","","","","","","","","","",""
"","","","","","html-keyboard-response","82","1939884","0.0-5.0-0.0-0.0-3.0-0.0-0.0-1.0-0.0","null","fixation","null","<p style='font-size: 48px; color: white'>+</p >","","","","","","","","","","","","","","","","","","","","","","","","","","","","","","","","","","","","","","","","","","","","","","",""
"","","","","","rdk","83","1941966","0.0-5.0-0.0-0.0-3.0-0.0-0.0-1.0-1.0","1066","match_RDK","f","","true","[""f"",""j""]","[""f""]","3000","true","1","100","1","180","0.6","0","5","1","-1","3","500","500","hsl(225, 50%, 50%)","hsl(0, 50%, 50%)","white","3000","10","circle","black","3","2","2","16.71875","[11,17,17,17,17,17,18,16,17,17,17,17,17,16,17,16,17,17,17,17,17,16,17,16,17,18,16,17,17,17,17,16,17,16,17,17,16,17,17,17,17,17,16,17,17,17,17,17,16,17,17,17,16,17,17,17,17,16,16,17,17,17,17,17]","64","600","250","false","20","20","black","1","false","1","1","1200","660","response","f","yes","self",""
"","","","","","html-keyboard-response","84","1942983","0.0-5.0-0.0-0.0-3.0-0.0-0.0-1.0-0.1","null","fixation","null","<p style='font-size: 48px; color: white'>+</p >","","","","","","","","","","","","","","","","","","","","","","","","","","","","","","","","","","","","","","","","","","","","","","",""
"","","","","","rdk","85","1944926","0.0-5.0-0.0-0.0-3.0-0.0-0.0-1.0-1.1","941","match_RDK","f","","true","[""f"",""j""]","[""f""]","3000","true","1","100","1","0","0.6","0","5","1","-1","3","500","500","hsl(225, 50%, 50%)","hsl(0, 50%, 50%)","white","3000","10","circle","black","3","2","2","16.625","[10,17,17,17,17,17,17,17,17,16,17,17,17,16,17,17,16,17,17,17,16,17,16,16,17,16,17,16,17,17,16,17,17,17,17,16,17,16,17,17,17,17,17,18,16,17,17,17,17,17,17,16,17,16,17,16]","56","600","250","false","20","20","black","1","false","1","1","1200","660","response","f","yes","other",""
"","","","","","html-keyboard-response","86","1945950","0.0-5.0-0.0-0.0-3.0-0.0-0.0-1.0-0.2","null","fixation","null","<p style='font-size: 48px; color: white'>+</p >","","","","","","","","","","","","","","","","","","","","","","","","","","","","","","","","","","","","","","","","","","","","","","",""
"","","","","","rdk","87","1947918","0.0-5.0-0.0-0.0-3.0-0.0-0.0-1.0-1.2","966","match_RDK","j","","true","[""f"",""j""]","[""j""]","3000","true","1","100","1","180","0.6","0","5","1","-1","3","500","500","hsl(225, 50%, 50%)","hsl(0, 50%, 50%)","white","3000","10","circle","black","3","2","2","16.75862068965517","[10,17,17,17,17,17,17,17,17,17,17,17,17,17,17,17,17,17,16,16,17,16,17,17,17,17,17,17,17,16,17,17,17,17,16,17,17,17,17,17,17,17,16,17,16,17,17,17,17,17,17,17,17,17,17,17,17,17]","58","600","250","false","20","20","black","1","false","1","1","1200","660","response","j","no","other",""
"","","","","","html-keyboard-response","88","1948950","0.0-5.0-0.0-0.0-3.0-0.0-0.0-1.0-0.3","null","fixation","null","<p style='font-size: 48px; color: white'>+</p >","","","","","","","","","","","","","","","","","","","","","","","","","","","","","","","","","","","","","","","","","","","","","","",""
"","","","","","rdk","89","1951071","0.0-5.0-0.0-0.0-3.0-0.0-0.0-1.0-1.3","1103","match_RDK","j","","true","[""f"",""j""]","[""j""]","3000","true","1","100","1","0","0.6","0","5","1","-1","3","500","500","hsl(225, 50%, 50%)","hsl(0, 50%, 50%)","white","3000","10","circle","black","3","2","2","16.848484848484848","[11,17,17,17,17,17,17,17,17,17,17,17,17,17,17,16,17,17,17,17,16,17,17,17,17,17,17,17,17,17,17,17,17,17,17,17,17,17,17,16,17,16,17,17,17,17,17,17,17,17,17,17,17,17,17,17,17,17,17,17,17,17,17,17,17,17]","66","600","250","false","20","20","black","1","false","1","1","1200","660","response","j","no","self",""
"","","","","","html-keyboard-response","90","1952099","0.0-5.0-0.0-0.0-3.0-0.0-0.0-1.0-0.4","null","fixation","null","<p style='font-size: 48px; color: white'>+</p >","","","","","","","","","","","","","","","","","","","","","","","","","","","","","","","","","","","","","","","","","","","","","","",""
"","","","","","rdk","91","1954335","0.0-5.0-0.0-0.0-3.0-0.0-0.0-1.0-1.4","1224","match_RDK","j","","true","[""f"",""j""]","[""j""]","3000","true","1","100","1","0","0.6","0","5","1","-1","3","500","500","hsl(225, 50%, 50%)","hsl(0, 50%, 50%)","white","3000","10","circle","black","3","2","2","16.64864864864865","[2,16,17,17,17,17,16,17,17,17,16,18,16,17,17,17,17,17,17,17,17,17,17,17,17,17,17,17,17,17,16,16,17,17,17,17,17,16,17,17,17,17,17,17,16,17,17,16,17,17,17,16,17,16,17,17,17,17,17,17,17,17,17,16,17,17,17,17,17,17,17,17,17,17]","74","600","250","false","20","20","black","1","false","1","1","1200","660","response","j","no","self",""
"","","","","","html-keyboard-response","92","1955349","0.0-5.0-0.0-0.0-3.0-0.0-0.0-1.0-0.5","null","fixation","null","<p style='font-size: 48px; color: white'>+</p >","","","","","","","","","","","","","","","","","","","","","","","","","","","","","","","","","","","","","","","","","","","","","","",""
"","","","","","rdk","93","1957583","0.0-5.0-0.0-0.0-3.0-0.0-0.0-1.0-1.5","1230","match_RDK","f","","false","[""f"",""j""]","[""j""]","3000","true","1","100","1","180","0.6","0","5","1","-1","3","500","500","hsl(225, 50%, 50%)","hsl(0, 50%, 50%)","white","3000","10","circle","black","3","2","2","16.7972972972973","[10,17,17,17,17,17,17,17,17,17,17,17,17,17,17,17,17,17,17,17,17,17,17,16,17,17,17,16,17,16,17,17,17,17,17,17,17,17,17,17,17,16,17,17,17,17,17,17,17,17,17,17,17,17,16,17,17,16,17,17,17,17,16,17,17,17,17,17,17,17,17,17,17,16]","74","600","250","false","20","20","black","1","false","1","1","1200","660","response","j","no","other",""
"","","","","","html-keyboard-response","94","1958600","0.0-5.0-0.0-0.0-3.0-0.0-0.0-1.0-0.6","null","fixation","null","<p style='font-size: 48px; color: white'>+</p >","","","","","","","","","","","","","","","","","","","","","","","","","","","","","","","","","","","","","","","","","","","","","","",""
"","","","","","rdk","95","1960622","0.0-5.0-0.0-0.0-3.0-0.0-0.0-1.0-1.6","1017","match_RDK","f","","true","[""f"",""j""]","[""f""]","3000","true","1","100","1","180","0.6","0","5","1","-1","3","500","500","hsl(225, 50%, 50%)","hsl(0, 50%, 50%)","white","3000","10","circle","black","3","2","2","16.59016393442623","[7,17,17,17,17,17,17,16,17,17,17,16,17,17,17,17,17,17,16,17,17,16,17,16,17,17,17,17,17,17,16,17,16,17,17,17,16,17,16,16,17,17,17,16,17,16,17,17,17,17,16,17,17,17,17,16,17,17,17,17,16]","61","600","250","false","20","20","black","1","false","1","1","1200","660","response","f","yes","self",""
"","","","","","html-keyboard-response","96","1961650","0.0-5.0-0.0-0.0-3.0-0.0-0.0-1.0-0.7","null","fixation","null","<p style='font-size: 48px; color: white'>+</p >","","","","","","","","","","","","","","","","","","","","","","","","","","","","","","","","","","","","","","","","","","","","","","",""
"","","","","","rdk","97","1963583","0.0-5.0-0.0-0.0-3.0-0.0-0.0-1.0-1.7","930","match_RDK","f","","true","[""f"",""j""]","[""f""]","3000","true","1","100","1","0","0.6","0","5","1","-1","3","500","500","hsl(225, 50%, 50%)","hsl(0, 50%, 50%)","white","3000","10","circle","black","3","2","2","16.839285714285715","[10,17,17,17,17,17,17,17,16,17,16,17,17,17,17,17,17,17,17,17,17,17,17,17,17,17,17,17,17,17,17,17,17,17,17,17,17,17,17,17,17,17,17,17,17,17,17,17,17,17,17,17,17,17,17,17]","56","600","250","false","20","20","black","1","false","1","1","1200","660","response","f","yes","other",""
"","","","","","html-keyboard-response","98","1964600","0.0-5.0-0.0-0.0-3.0-0.0-0.0-1.0-0.8","null","fixation","null","<p style='font-size: 48px; color: white'>+</p >","","","","","","","","","","","","","","","","","","","","","","","","","","","","","","","","","","","","","","","","","","","","","","",""
"","","","","","rdk","99","1966543","0.0-5.0-0.0-0.0-3.0-0.0-0.0-1.0-1.8","936","match_RDK","j","","true","[""f"",""j""]","[""j""]","3000","true","1","100","1","180","0.6","0","5","1","-1","3","500","500","hsl(225, 50%, 50%)","hsl(0, 50%, 50%)","white","3000","10","circle","black","3","2","2","16.75","[9,13,17,17,17,17,17,17,16,17,17,17,17,18,16,17,17,17,17,17,17,16,17,17,17,17,17,17,17,17,17,17,17,17,17,17,17,17,17,17,17,17,17,17,17,17,17,17,17,17,17,17,17,17,17,17]","56","600","250","false","20","20","black","1","false","1","1","1200","660","response","j","no","other",""
"","","","","","html-keyboard-response","100","1967566","0.0-5.0-0.0-0.0-3.0-0.0-0.0-1.0-0.9","null","fixation","null","<p style='font-size: 48px; color: white'>+</p >","","","","","","","","","","","","","","","","","","","","","","","","","","","","","","","","","","","","","","","","","","","","","","",""
"","","","","","rdk","101","1969742","0.0-5.0-0.0-0.0-3.0-0.0-0.0-1.0-1.9","1173","match_RDK","j","","true","[""f"",""j""]","[""j""]","3000","true","1","100","1","0","0.6","0","5","1","-1","3","500","500","hsl(225, 50%, 50%)","hsl(0, 50%, 50%)","white","3000","10","circle","black","3","2","2","16.8","[10,17,17,17,17,17,17,17,17,17,17,17,17,16,17,17,17,17,17,17,17,16,17,17,17,17,17,17,17,17,17,17,17,17,17,17,17,17,16,17,17,17,17,17,17,16,17,17,17,17,17,17,17,17,17,17,16,17,17,16,17,16,17,17,17,17,17,17,17,17]","70","600","250","false","20","20","black","1","false","1","1","1200","660","response","j","no","self",""
"","","","","","html-keyboard-response","102","1970767","0.0-5.0-0.0-0.0-3.0-0.0-0.0-1.0-0.10","null","fixation","null","<p style='font-size: 48px; color: white'>+</p >","","","","","","","","","","","","","","","","","","","","","","","","","","","","","","","","","","","","","","","","","","","","","","",""
"","","","","","rdk","103","1972591","0.0-5.0-0.0-0.0-3.0-0.0-0.0-1.0-1.10","815","match_RDK","f","","true","[""f"",""j""]","[""f""]","3000","true","1","100","1","0","0.6","0","5","1","-1","3","500","500","hsl(225, 50%, 50%)","hsl(0, 50%, 50%)","white","3000","10","circle","black","3","2","2","16.612244897959183","[5,16,17,17,17,17,17,17,17,17,17,17,17,16,17,17,16,16,17,17,17,17,18,16,17,17,17,17,17,17,17,17,17,17,16,17,17,16,17,17,17,17,17,17,16,17,17,17,17]","49","600","250","false","20","20","black","1","false","1","1","1200","660","response","f","yes","other",""
"","","","","","html-keyboard-response","104","1973616","0.0-5.0-0.0-0.0-3.0-0.0-0.0-1.0-0.11","null","fixation","null","<p style='font-size: 48px; color: white'>+</p >","","","","","","","","","","","","","","","","","","","","","","","","","","","","","","","","","","","","","","","","","","","","","","",""
"","","","","","rdk","105","1975422","0.0-5.0-0.0-0.0-3.0-0.0-0.0-1.0-1.11","797","match_RDK","f","","true","[""f"",""j""]","[""f""]","3000","true","1","100","1","180","0.6","0","5","1","-1","3","500","500","hsl(225, 50%, 50%)","hsl(0, 50%, 50%)","white","3000","10","circle","black","3","2","2","16.5625","[4,17,17,17,17,17,17,17,17,17,16,17,17,16,17,17,17,17,16,17,17,16,17,17,16,17,17,17,17,17,17,17,17,17,16,17,17,17,17,17,16,17,17,17,16,17,17,17]","48","600","250","false","20","20","black","1","false","1","1","1200","660","response","f","yes","self",""
"","","","","","html-keyboard-response","106","1976434","0.0-5.0-0.0-0.0-3.0-0.0-0.0-1.0-0.12","null","fixation","null","<p style='font-size: 48px; color: white'>+</p >","","","","","","","","","","","","","","","","","","","","","","","","","","","","","","","","","","","","","","","","","","","","","","",""
"","","","","","rdk","107","1978399","0.0-5.0-0.0-0.0-3.0-0.0-0.0-1.0-1.12","957","match_RDK","j","","true","[""f"",""j""]","[""j""]","3000","true","1","100","1","0","0.6","0","5","1","-1","3","500","500","hsl(225, 50%, 50%)","hsl(0, 50%, 50%)","white","3000","10","circle","black","3","2","2","16.53448275862069","[4,17,17,17,17,18,16,16,17,17,17,17,17,17,16,17,16,17,16,17,17,16,17,17,17,17,17,17,16,17,17,16,17,17,17,17,17,16,17,16,17,17,17,15,17,17,17,17,17,17,17,17,16,16,16,17,16,18]","58","600","250","false","20","20","black","1","false","1","1","1200","660","response","j","no","self",""
"","","","","","html-keyboard-response","108","1979417","0.0-5.0-0.0-0.0-3.0-0.0-0.0-1.0-0.13","null","fixation","null","<p style='font-size: 48px; color: white'>+</p >","","","","","","","","","","","","","","","","","","","","","","","","","","","","","","","","","","","","","","","","","","","","","","",""
"","","","","","rdk","109","1981231","0.0-5.0-0.0-0.0-3.0-0.0-0.0-1.0-1.13","803","match_RDK","f","","true","[""f"",""j""]","[""f""]","3000","true","1","100","1","180","0.6","0","5","1","-1","3","500","500","hsl(225, 50%, 50%)","hsl(0, 50%, 50%)","white","3000","10","circle","black","3","2","2","16.5625","[2,16,16,17,17,17,17,17,17,16,17,17,17,17,17,17,17,17,17,17,17,17,16,17,17,16,17,17,18,16,17,17,17,17,17,17,17,17,17,17,17,17,17,17,17,16,17,17]","48","600","250","false","20","20","black","1","false","1","1","1200","660","response","f","yes","self",""
"","","","","","html-keyboard-response","110","1982250","0.0-5.0-0.0-0.0-3.0-0.0-0.0-1.0-0.14","null","fixation","null","<p style='font-size: 48px; color: white'>+</p >","","","","","","","","","","","","","","","","","","","","","","","","","","","","","","","","","","","","","","","","","","","","","","",""
"","","","","","rdk","111","1984367","0.0-5.0-0.0-0.0-3.0-0.0-0.0-1.0-1.14","1100","match_RDK","j","","true","[""f"",""j""]","[""j""]","3000","true","1","100","1","180","0.6","0","5","1","-1","3","500","500","hsl(225, 50%, 50%)","hsl(0, 50%, 50%)","white","3000","10","circle","black","3","2","2","16.803030303030305","[12,17,17,17,17,17,16,17,17,17,17,17,17,17,16,17,16,17,17,17,17,16,17,17,17,17,17,17,17,17,17,16,16,17,17,17,17,17,16,17,17,16,17,17,17,17,17,17,17,17,17,17,17,17,17,17,17,17,17,17,17,17,17,17,17,17]","66","600","250","false","20","20","black","1","false","1","1","1200","660","response","j","no","other",""
"","","","","","html-keyboard-response","112","1985383","0.0-5.0-0.0-0.0-3.0-0.0-0.0-1.0-0.15","null","fixation","null","<p style='font-size: 48px; color: white'>+</p >","","","","","","","","","","","","","","","","","","","","","","","","","","","","","","","","","","","","","","","","","","","","","","",""
"","","","","","rdk","113","1987135","0.0-5.0-0.0-0.0-3.0-0.0-0.0-1.0-1.15","749","match_RDK","f","","true","[""f"",""j""]","[""f""]","3000","true","1","100","1","0","0.6","0","5","1","-1","3","500","500","hsl(225, 50%, 50%)","hsl(0, 50%, 50%)","white","3000","10","circle","black","3","2","2","16.77777777777778","[10,17,17,17,17,17,17,17,17,17,17,17,17,17,17,17,17,17,17,17,17,17,17,17,16,17,17,17,17,17,17,17,17,17,16,17,17,17,16,17,17,17,17,17,17]","45","600","250","false","20","20","black","1","false","1","1","1200","660","response","f","yes","other",""
"","","","","","html-keyboard-response","114","1988166","0.0-5.0-0.0-0.0-3.0-0.0-0.0-1.0-0.16","null","fixation","null","<p style='font-size: 48px; color: white'>+</p >","","","","","","","","","","","","","","","","","","","","","","","","","","","","","","","","","","","","","","","","","","","","","","",""
"","","","","","rdk","115","1990078","0.0-5.0-0.0-0.0-3.0-0.0-0.0-1.0-1.16","909","match_RDK","j","","true","[""f"",""j""]","[""j""]","3000","true","1","100","1","0","0.6","0","5","1","-1","3","500","500","hsl(225, 50%, 50%)","hsl(0, 50%, 50%)","white","3000","10","circle","black","3","2","2","16.74074074074074","[11,16,17,17,17,17,17,18,16,17,17,17,16,17,17,17,17,17,16,17,17,17,17,17,17,17,17,17,17,17,17,16,17,17,17,16,17,17,17,17,17,17,17,17,17,17,16,17,17,16,17,16,17,17]","54","600","250","false","20","20","black","1","false","1","1","1200","660","response","j","no","self",""
"","","","","","html-keyboard-response","116","1991100","0.0-5.0-0.0-0.0-3.0-0.0-0.0-1.0-0.17","null","fixation","null","<p style='font-size: 48px; color: white'>+</p >","","","","","","","","","","","","","","","","","","","","","","","","","","","","","","","","","","","","","","","","","","","","","","",""
"","","","","","rdk","117","1993279","0.0-5.0-0.0-0.0-3.0-0.0-0.0-1.0-1.17","1161","match_RDK","j","","true","[""f"",""j""]","[""j""]","3000","true","1","100","1","180","0.6","0","5","1","-1","3","500","500","hsl(225, 50%, 50%)","hsl(0, 50%, 50%)","white","3000","10","circle","black","3","2","2","16.91304347826087","[12,17,17,17,17,17,17,17,17,17,17,17,17,17,17,17,17,17,17,16,17,17,17,17,17,17,17,17,17,17,17,17,17,17,17,17,17,17,17,17,17,17,17,17,17,17,17,17,17,17,17,17,17,17,17,17,17,17,17,17,17,17,17,17,17,17,17,17,17]","69","600","250","false","20","20","black","1","false","1","1","1200","660","response","j","no","other",""
"","","","","","html-keyboard-response","118","1994300","0.0-5.0-0.0-0.0-3.0-0.0-0.0-1.0-0.18","null","fixation","null","<p style='font-size: 48px; color: white'>+</p >","","","","","","","","","","","","","","","","","","","","","","","","","","","","","","","","","","","","","","","","","","","","","","",""
"","","","","","rdk","119","1996351","0.0-5.0-0.0-0.0-3.0-0.0-0.0-1.0-1.18","1045","match_RDK","f","","true","[""f"",""j""]","[""f""]","3000","true","1","100","1","180","0.6","0","5","1","-1","3","500","500","hsl(225, 50%, 50%)","hsl(0, 50%, 50%)","white","3000","10","circle","black","3","2","2","16.746031746031747","[6,17,17,17,17,17,16,17,17,17,17,17,17,17,17,16,17,17,16,17,17,17,17,17,17,17,17,17,17,16,17,17,17,17,17,17,17,17,17,17,17,17,17,16,17,17,17,17,17,17,17,17,17,17,17,17,17,17,17,17,17,17,17]","63","600","250","false","20","20","black","1","false","1","1","1200","660","response","f","yes","self",""
"","","","","","html-keyboard-response","120","1997366","0.0-5.0-0.0-0.0-3.0-0.0-0.0-1.0-0.19","null","fixation","null","<p style='font-size: 48px; color: white'>+</p >","","","","","","","","","","","","","","","","","","","","","","","","","","","","","","","","","","","","","","","","","","","","","","",""
"","","","","","rdk","121","1999151","0.0-5.0-0.0-0.0-3.0-0.0-0.0-1.0-1.19","782","match_RDK","f","","true","[""f"",""j""]","[""f""]","3000","true","1","100","1","0","0.6","0","5","1","-1","3","500","500","hsl(225, 50%, 50%)","hsl(0, 50%, 50%)","white","3000","10","circle","black","3","2","2","16.76595744680851","[11,17,17,17,17,17,17,16,17,17,17,17,17,17,16,17,17,17,16,17,17,17,17,17,17,17,16,17,17,17,17,17,17,17,17,17,17,16,17,17,17,17,17,17,17,17,17]","47","600","250","false","20","20","black","1","false","1","1","1200","660","response","f","yes","other",""
"","","","","","html-keyboard-response","122","2000167","0.0-5.0-0.0-0.0-3.0-0.0-0.0-1.0-0.20","null","fixation","null","<p style='font-size: 48px; color: white'>+</p >","","","","","","","","","","","","","","","","","","","","","","","","","","","","","","","","","","","","","","","","","","","","","","",""
"","","","","","rdk","123","2002111","0.0-5.0-0.0-0.0-3.0-0.0-0.0-1.0-1.20","942","match_RDK","j","","true","[""f"",""j""]","[""j""]","3000","true","1","100","1","0","0.6","0","5","1","-1","3","500","500","hsl(225, 50%, 50%)","hsl(0, 50%, 50%)","white","3000","10","circle","black","3","2","2","16.803571428571427","[11,17,17,17,17,16,17,17,17,17,17,16,17,17,17,17,16,17,17,17,17,17,17,17,16,17,17,17,17,17,17,17,17,17,17,17,17,17,16,17,17,17,17,17,17,17,17,17,17,17,17,17,17,17,17,17]","56","600","250","false","20","20","black","1","false","1","1","1200","660","response","j","no","self",""
"","","","","","html-keyboard-response","124","2003118","0.0-5.0-0.0-0.0-3.0-0.0-0.0-1.0-0.21","null","fixation","null","<p style='font-size: 48px; color: white'>+</p >","","","","","","","","","","","","","","","","","","","","","","","","","","","","","","","","","","","","","","","","","","","","","","",""
"","","","","","rdk","125","2005183","0.0-5.0-0.0-0.0-3.0-0.0-0.0-1.0-1.21","1049","match_RDK","f","","true","[""f"",""j""]","[""f""]","3000","true","1","100","1","180","0.6","0","5","1","-1","3","500","500","hsl(225, 50%, 50%)","hsl(0, 50%, 50%)","white","3000","10","circle","black","3","2","2","16.873015873015873","[14,17,17,17,17,17,17,17,17,17,17,17,16,17,17,17,16,17,17,17,17,17,17,17,17,17,17,17,17,17,17,17,17,17,17,17,17,17,17,17,16,17,17,17,17,17,17,17,17,16,17,17,17,17,17,17,17,16,17,17,17,17,17]","63","600","250","false","20","20","black","1","false","1","1","1200","660","response","f","yes","self",""
"","","","","","html-keyboard-response","126","2006199","0.0-5.0-0.0-0.0-3.0-0.0-0.0-1.0-0.22","null","fixation","null","<p style='font-size: 48px; color: white'>+</p >","","","","","","","","","","","","","","","","","","","","","","","","","","","","","","","","","","","","","","","","","","","","","","",""
"","","","","","rdk","127","2008303","0.0-5.0-0.0-0.0-3.0-0.0-0.0-1.0-1.22","1100","match_RDK","j","","true","[""f"",""j""]","[""j""]","3000","true","1","100","1","180","0.6","0","5","1","-1","3","500","500","hsl(225, 50%, 50%)","hsl(0, 50%, 50%)","white","3000","10","circle","black","3","2","2","16.848484848484848","[11,17,17,17,17,17,15,17,17,17,17,17,17,17,17,17,17,17,17,17,17,17,17,17,17,17,17,17,17,17,17,17,17,17,17,17,17,17,17,17,17,17,17,17,17,17,17,17,17,17,17,17,17,17,17,17,17,16,16,17,17,17,17,17,17,17]","66","600","250","false","20","20","black","1","false","1","1","1200","660","response","j","no","other",""
"","","","","","html-keyboard-response","128","2009333","0.0-5.0-0.0-0.0-3.0-0.0-0.0-1.0-0.23","null","fixation","null","<p style='font-size: 48px; color: white'>+</p >","","","","","","","","","","","","","","","","","","","","","","","","","","","","","","","","","","","","","","","","","","","","","","",""
"","","","","","rdk","129","2011071","0.0-5.0-0.0-0.0-3.0-0.0-0.0-1.0-1.23","736","match_RDK","f","","true","[""f"",""j""]","[""f""]","3000","true","1","100","1","0","0.6","0","5","1","-1","3","500","500","hsl(225, 50%, 50%)","hsl(0, 50%, 50%)","white","3000","10","circle","black","3","2","2","16.818181818181817","[12,16,17,17,17,17,17,17,17,17,17,17,17,17,17,17,17,17,17,17,17,17,17,17,17,17,17,17,17,17,17,16,17,17,17,17,17,16,17,17,17,17,17,17]","44","600","250","false","20","20","black","1","false","1","1","1200","660","response","f","yes","other",""
"","","","","","html-keyboard-response","130","2012099","0.0-5.0-0.0-0.0-3.0-0.0-0.0-1.0-0.24","null","fixation","null","<p style='font-size: 48px; color: white'>+</p >","","","","","","","","","","","","","","","","","","","","","","","","","","","","","","","","","","","","","","","","","","","","","","",""
"","","","","","rdk","131","2013903","0.0-5.0-0.0-0.0-3.0-0.0-0.0-1.0-1.24","792","match_RDK","j","","true","[""f"",""j""]","[""j""]","3000","true","1","100","1","0","0.6","0","5","1","-1","3","500","500","hsl(225, 50%, 50%)","hsl(0, 50%, 50%)","white","3000","10","circle","black","3","2","2","16.666666666666668","[10,9,17,17,16,17,17,17,17,17,17,17,17,17,17,17,17,17,17,17,17,17,17,17,17,17,17,17,17,17,17,17,17,17,17,17,17,17,17,17,17,17,17,17,17,17,17,17]","48","600","250","false","20","20","black","1","false","1","1","1200","660","response","j","no","self",""
"","","","","","html-keyboard-response","132","2014916","0.0-5.0-0.0-0.0-3.0-0.0-0.0-1.0-0.25","null","fixation","null","<p style='font-size: 48px; color: white'>+</p >","","","","","","","","","","","","","","","","","","","","","","","","","","","","","","","","","","","","","","","","","","","","","","",""
"","","","","","rdk","133","2016702","0.0-5.0-0.0-0.0-3.0-0.0-0.0-1.0-1.25","775","match_RDK","f","","false","[""f"",""j""]","[""j""]","3000","true","1","100","1","180","0.6","0","5","1","-1","3","500","500","hsl(225, 50%, 50%)","hsl(0, 50%, 50%)","white","3000","10","circle","black","3","2","2","16.617021276595743","[2,16,17,17,17,18,16,17,17,17,17,17,17,17,16,17,17,17,17,17,16,17,17,17,17,17,17,17,17,17,17,17,17,17,17,17,17,17,17,17,17,17,17,17,17,17,17]","47","600","250","false","20","20","black","1","false","1","1","1200","660","response","j","no","other",""
"","","","","","html-keyboard-response","134","2017717","0.0-5.0-0.0-0.0-3.0-0.0-0.0-1.0-0.26","null","fixation","null","<p style='font-size: 48px; color: white'>+</p >","","","","","","","","","","","","","","","","","","","","","","","","","","","","","","","","","","","","","","","","","","","","","","",""
"","","","","","rdk","135","2020543","0.0-5.0-0.0-0.0-3.0-0.0-0.0-1.0-1.26","1821","match_RDK","f","","true","[""f"",""j""]","[""f""]","3000","true","1","100","1","0","0.6","0","5","1","-1","3","500","500","hsl(225, 50%, 50%)","hsl(0, 50%, 50%)","white","3000","10","circle","black","3","2","2","16.68807339449541","[7,17,17,17,17,17,17,17,17,17,17,17,16,17,16,17,17,16,17,17,17,17,17,17,17,17,16,17,17,17,17,17,16,17,17,17,16,17,17,17,16,17,17,17,16,17,17,16,17,17,16,17,16,17,17,17,17,17,17,17,17,17,17,17,17,17,16,17,17,17,16,17,17,16,17,17,16,17,17,17,16,16,17,17,17,16,17,17,17,17,17,17,16,17,16,17,17,16,17,16,16,17,17,17,17,17,17,16,17]","109","600","250","false","20","20","black","1","false","1","1","1200","660","response","f","yes","other",""
"","","","","","html-keyboard-response","136","2021566","0.0-5.0-0.0-0.0-3.0-0.0-0.0-1.0-0.27","null","fixation","null","<p style='font-size: 48px; color: white'>+</p >","","","","","","","","","","","","","","","","","","","","","","","","","","","","","","","","","","","","","","","","","","","","","","",""
"","","","","","rdk","137","2023359","0.0-5.0-0.0-0.0-3.0-0.0-0.0-1.0-1.27","775","match_RDK","f","","true","[""f"",""j""]","[""f""]","3000","true","1","100","1","180","0.6","0","5","1","-1","3","500","500","hsl(225, 50%, 50%)","hsl(0, 50%, 50%)","white","3000","10","circle","black","3","2","2","16.869565217391305","[12,17,17,17,17,17,17,17,17,17,17,17,17,17,17,17,17,17,17,17,17,17,17,17,17,17,17,17,16,17,17,17,17,17,17,17,17,17,17,17,17,17,17,17,17,17]","46","600","250","false","20","20","black","1","false","1","1","1200","660","response","f","yes","self",""
"","","","","","html-keyboard-response","138","2024368","0.0-5.0-0.0-0.0-3.0-0.0-0.0-1.0-0.28","null","fixation","null","<p style='font-size: 48px; color: white'>+</p >","","","","","","","","","","","","","","","","","","","","","","","","","","","","","","","","","","","","","","","","","","","","","","",""
"","","","","","rdk","139","2026607","0.0-5.0-0.0-0.0-3.0-0.0-0.0-1.0-1.28","1232","match_RDK","j","","true","[""f"",""j""]","[""j""]","3000","true","1","100","1","180","0.6","0","5","1","-1","3","500","500","hsl(225, 50%, 50%)","hsl(0, 50%, 50%)","white","3000","10","circle","black","3","2","2","16.56756756756757","[5,16,17,17,17,16,17,18,17,16,17,17,17,17,16,17,17,16,17,18,16,17,17,17,17,17,17,16,17,17,17,17,17,16,17,16,17,16,17,17,17,16,17,16,17,17,16,16,17,17,17,17,17,16,17,16,17,17,18,17,17,16,17,17,16,16,17,16,17,17,16,16,17,16]","74","600","250","false","20","20","black","1","false","1","1","1200","660","response","j","no","other",""
"","","","","","html-keyboard-response","140","2027633","0.0-5.0-0.0-0.0-3.0-0.0-0.0-1.0-0.29","null","fixation","null","<p style='font-size: 48px; color: white'>+</p >","","","","","","","","","","","","","","","","","","","","","","","","","","","","","","","","","","","","","","","","","","","","","","",""
"","","","","","rdk","141","2029856","0.0-5.0-0.0-0.0-3.0-0.0-0.0-1.0-1.29","1204","match_RDK","j","","true","[""f"",""j""]","[""j""]","3000","true","1","100","1","0","0.6","0","5","1","-1","3","500","500","hsl(225, 50%, 50%)","hsl(0, 50%, 50%)","white","3000","10","circle","black","3","2","2","16.833333333333332","[11,17,17,17,17,16,17,17,17,17,17,17,17,17,17,17,16,17,17,17,17,17,17,17,16,17,17,17,16,17,17,17,17,17,16,17,17,17,17,17,17,17,17,17,17,17,17,17,17,17,17,17,17,17,17,17,17,17,17,17,17,17,17,17,17,17,17,16,17,17,17,17]","72","600","250","false","20","20","black","1","false","1","1","1200","660","response","j","no","self",""
"","","","","","html-keyboard-response","142","2030883","0.0-5.0-0.0-0.0-3.0-0.0-0.0-1.0-0.30","null","fixation","null","<p style='font-size: 48px; color: white'>+</p >","","","","","","","","","","","","","","","","","","","","","","","","","","","","","","","","","","","","","","","","","","","","","","",""
"","","","","","rdk","143","2032847","0.0-5.0-0.0-0.0-3.0-0.0-0.0-1.0-1.30","961","match_RDK","f","","true","[""f"",""j""]","[""f""]","3000","true","1","100","1","0","0.6","0","5","1","-1","3","500","500","hsl(225, 50%, 50%)","hsl(0, 50%, 50%)","white","3000","10","circle","black","3","2","2","16.771929824561404","[10,17,17,17,17,17,17,17,17,17,17,17,17,17,17,17,17,17,17,17,17,17,16,17,17,16,17,17,17,17,17,17,17,16,17,17,17,17,17,17,17,16,17,17,17,17,16,17,17,17,17,17,17,17,16,17,17]","57","600","250","false","20","20","black","1","false","1","1","1200","660","response","f","yes","other",""
"","","","","","html-keyboard-response","144","2033851","0.0-5.0-0.0-0.0-3.0-0.0-0.0-1.0-0.31","null","fixation","null","<p style='font-size: 48px; color: white'>+</p >","","","","","","","","","","","","","","","","","","","","","","","","","","","","","","","","","","","","","","","","","","","","","","",""
"","","","","","rdk","145","2035647","0.0-5.0-0.0-0.0-3.0-0.0-0.0-1.0-1.31","786","match_RDK","f","","true","[""f"",""j""]","[""f""]","3000","true","1","100","1","180","0.6","0","5","1","-1","3","500","500","hsl(225, 50%, 50%)","hsl(0, 50%, 50%)","white","3000","10","circle","black","3","2","2","16.617021276595743","[2,16,17,17,18,16,17,17,18,16,16,17,16,17,18,17,17,17,17,17,16,17,17,17,17,17,17,17,17,17,17,17,17,17,17,17,17,17,17,17,17,17,17,17,17,17,17]","47","600","250","false","20","20","black","1","false","1","1","1200","660","response","f","yes","self",""
"","","","","","html-keyboard-response","146","2036667","0.0-5.0-0.0-0.0-3.0-0.0-0.0-1.0-0.32","null","fixation","null","<p style='font-size: 48px; color: white'>+</p >","","","","","","","","","","","","","","","","","","","","","","","","","","","","","","","","","","","","","","","","","","","","","","",""
"","","","","","rdk","147","2038623","0.0-5.0-0.0-0.0-3.0-0.0-0.0-1.0-1.32","953","match_RDK","j","","true","[""f"",""j""]","[""j""]","3000","true","1","100","1","180","0.6","0","5","1","-1","3","500","500","hsl(225, 50%, 50%)","hsl(0, 50%, 50%)","white","3000","10","circle","black","3","2","2","16.736842105263158","[9,17,17,17,17,17,17,17,17,17,17,17,17,16,17,16,17,17,17,17,16,17,17,17,17,17,17,17,17,16,16,17,17,17,17,18,16,17,17,17,17,17,17,17,17,17,17,17,17,17,17,17,17,17,16,17,16]","57","600","250","false","20","20","black","1","false","1","1","1200","660","response","j","no","other",""
"","","","","","html-keyboard-response","148","2039651","0.0-5.0-0.0-0.0-3.0-0.0-0.0-1.0-0.33","null","fixation","null","<p style='font-size: 48px; color: white'>+</p >","","","","","","","","","","","","","","","","","","","","","","","","","","","","","","","","","","","","","","","","","","","","","","",""
"","","","","","rdk","149","2041438","0.0-5.0-0.0-0.0-3.0-0.0-0.0-1.0-1.33","782","match_RDK","f","","true","[""f"",""j""]","[""f""]","3000","true","1","100","1","0","0.6","0","5","1","-1","3","500","500","hsl(225, 50%, 50%)","hsl(0, 50%, 50%)","white","3000","10","circle","black","3","2","2","16.425531914893618","[6,17,17,18,17,17,16,17,17,16,16,17,17,16,17,16,17,17,17,16,17,16,17,16,16,17,16,17,16,17,17,17,16,17,16,17,17,17,16,17,17,16,15,17,17,17,17]","47","600","250","false","20","20","black","1","false","1","1","1200","660","response","f","yes","other",""
"","","","","","html-keyboard-response","150","2042466","0.0-5.0-0.0-0.0-3.0-0.0-0.0-1.0-0.34","null","fixation","null","<p style='font-size: 48px; color: white'>+</p >","","","","","","","","","","","","","","","","","","","","","","","","","","","","","","","","","","","","","","","","","","","","","","",""
"","","","","","rdk","151","2044302","0.0-5.0-0.0-0.0-3.0-0.0-0.0-1.0-1.34","834","match_RDK","f","","true","[""f"",""j""]","[""f""]","3000","true","1","100","1","180","0.6","0","5","1","-1","3","500","500","hsl(225, 50%, 50%)","hsl(0, 50%, 50%)","white","3000","10","circle","black","3","2","2","16.8","[10,17,17,17,17,17,17,17,17,17,17,16,17,17,17,17,17,17,17,17,17,17,16,17,17,17,17,17,17,17,17,17,17,17,17,17,17,17,17,17,17,17,17,16,17,17,17,17,17,17]","50","600","250","false","20","20","black","1","false","1","1","1200","660","response","f","yes","self",""
"","","","","","html-keyboard-response","152","2045333","0.0-5.0-0.0-0.0-3.0-0.0-0.0-1.0-0.35","null","fixation","null","<p style='font-size: 48px; color: white'>+</p >","","","","","","","","","","","","","","","","","","","","","","","","","","","","","","","","","","","","","","","","","","","","","","",""
"","","","","","rdk","153","2048895","0.0-5.0-0.0-0.0-3.0-0.0-0.0-1.0-1.35","2544","match_RDK","j","","true","[""f"",""j""]","[""j""]","3000","true","1","100","1","0","0.6","0","5","1","-1","3","500","500","hsl(225, 50%, 50%)","hsl(0, 50%, 50%)","white","3000","10","circle","black","3","2","2","16.875","[12,17,17,17,17,17,17,17,17,17,17,17,17,17,17,17,17,17,17,16,17,17,17,17,17,16,17,17,17,17,17,17,17,17,17,17,16,17,16,17,17,17,17,17,17,17,16,17,17,16,17,17,17,17,17,17,17,16,16,17,17,17,17,17,17,17,17,17,17,17,17,17,17,17,17,17,17,17,17,17,17,17,17,17,17,17,17,17,17,17,16,17,17,17,17,17,17,17,17,17,16,17,16,17,17,17,17,17,17,16,17,16,17,17,17,17,17,17,17,17,17,17,17,17,17,17,17,17,17,17,17,17,17,17,17,17,17,17,17,17,17,17,17,17,17,16,17,17,17,17,17,17]","152","600","250","false","20","20","black","1","false","1","1","1200","660","response","j","no","self",""
"","","","","","html-keyboard-response","154","2049901","0.0-5.0-0.0-0.0-3.0-0.0-0.0-1.0-0.36","null","fixation","null","<p style='font-size: 48px; color: white'>+</p >","","","","","","","","","","","","","","","","","","","","","","","","","","","","","","","","","","","","","","","","","","","","","","",""
"","","","","","rdk","155","2051901","0.0-5.0-0.0-0.0-3.0-0.0-0.0-1.0-1.36","998","match_RDK","f","","true","[""f"",""j""]","[""f""]","3000","true","1","100","1","0","0.6","0","5","1","-1","3","500","500","hsl(225, 50%, 50%)","hsl(0, 50%, 50%)","white","3000","10","circle","black","3","2","2","16.683333333333334","[9,17,16,17,17,17,17,17,17,17,17,16,17,17,17,17,16,17,17,17,17,17,17,17,16,17,17,16,17,17,16,17,16,16,17,17,16,17,17,17,17,17,17,17,17,16,17,17,17,17,17,17,17,17,16,17,17,17,17,17]","60","600","250","false","20","20","black","1","false","1","1","1200","660","response","f","yes","other",""
"","","","","","html-keyboard-response","156","2052918","0.0-5.0-0.0-0.0-3.0-0.0-0.0-1.0-0.37","null","fixation","null","<p style='font-size: 48px; color: white'>+</p >","","","","","","","","","","","","","","","","","","","","","","","","","","","","","","","","","","","","","","","","","","","","","","",""
"","","","","","rdk","157","2054990","0.0-5.0-0.0-0.0-3.0-0.0-0.0-1.0-1.37","1056","match_RDK","j","","true","[""f"",""j""]","[""j""]","3000","true","1","100","1","0","0.6","0","5","1","-1","3","500","500","hsl(225, 50%, 50%)","hsl(0, 50%, 50%)","white","3000","10","circle","black","3","2","2","16.841269841269842","[11,17,17,17,17,17,17,16,17,17,17,17,17,17,17,17,17,17,17,17,17,16,17,17,17,17,17,17,17,17,15,17,17,17,17,17,17,17,17,17,17,17,17,17,17,17,17,17,17,17,17,17,17,17,17,17,17,17,17,17,17,17,17]","63","600","250","false","20","20","black","1","false","1","1","1200","660","response","j","no","self",""
"","","","","","html-keyboard-response","158","2056016","0.0-5.0-0.0-0.0-3.0-0.0-0.0-1.0-0.38","null","fixation","null","<p style='font-size: 48px; color: white'>+</p >","","","","","","","","","","","","","","","","","","","","","","","","","","","","","","","","","","","","","","","","","","","","","","",""
"","","","","","rdk","159","2058000","0.0-5.0-0.0-0.0-3.0-0.0-0.0-1.0-1.38","981","match_RDK","j","","true","[""f"",""j""]","[""j""]","3000","true","1","100","1","180","0.6","0","5","1","-1","3","500","500","hsl(225, 50%, 50%)","hsl(0, 50%, 50%)","white","3000","10","circle","black","3","2","2","16.71186440677966","[10,17,17,17,17,17,18,16,17,16,17,17,17,16,17,16,17,17,17,17,17,17,16,16,17,17,17,17,18,17,17,17,16,17,16,17,17,17,16,17,17,17,17,17,17,17,16,17,17,17,17,17,16,17,16,17,17,17,17]","59","600","250","false","20","20","black","1","false","1","1","1200","660","response","j","no","other",""
"","","","","","html-keyboard-response","160","2059017","0.0-5.0-0.0-0.0-3.0-0.0-0.0-1.0-0.39","null","fixation","null","<p style='font-size: 48px; color: white'>+</p >","","","","","","","","","","","","","","","","","","","","","","","","","","","","","","","","","","","","","","","","","","","","","","",""
"","","","","","rdk","161","2060927","0.0-5.0-0.0-0.0-3.0-0.0-0.0-1.0-1.39","892","match_RDK","f","","true","[""f"",""j""]","[""f""]","3000","true","1","100","1","180","0.6","0","5","1","-1","3","500","500","hsl(225, 50%, 50%)","hsl(0, 50%, 50%)","white","3000","10","circle","black","3","2","2","16.830188679245282","[11,17,17,17,17,17,17,17,17,17,16,17,17,16,17,17,17,17,17,17,17,17,17,17,17,17,17,17,17,17,17,17,17,17,17,17,17,17,17,17,16,17,17,17,17,17,17,17,17,17,17,17,17]","53","600","250","false","20","20","black","1","false","1","1","1200","660","response","f","yes","self",""
"","","","","","html-keyboard-response","162","2064458","0.0-5.0-0.0-0.0-3.0-0.0-0.0-2.0","null","","null","<p style='font-size: 35px; color: white'>这组测试中，您正确回答了： 95% 的试次。平均反应时为：1023毫秒。</p>","","","","","","","","","","","","","","","","","","","","","","","","","","","","","","","","","","","","","","","","","","","","","","",""
"","","","","","html-keyboard-response","163","2071119","0.0-5.0-0.0-0.0-3.0-0.0-0.0-3.0","5655","instruction_rest"," ","
  <div style=""text-align: center; color: white; padding: 35px; font-size: 35px"">
    <p>请休息一下，若准备好可按空格键继续</p >
  </div>
  ","","","","","","","","","","","","","","","","","","","","","","","","","","","","","","","","","","","","","","","","","","","","","","",""
"","","","","","html-keyboard-response","164","2072637","0.0-5.0-0.0-0.0-3.0-0.0-0.0-4.0-0.0","null","fixation","null","<p style='font-size: 48px; color: white'>+</p >","","","","","","","","","","","","","","","","","","","","","","","","","","","","","","","","","","","","","","","","","","","","","","",""
"","","","","","rdk","165","2074527","0.0-5.0-0.0-0.0-3.0-0.0-0.0-4.0-1.0","875","match_RDK","j","","true","[""f"",""j""]","[""j""]","3000","true","1","100","1","0","0.6","0","5","1","-1","3","500","500","hsl(225, 50%, 50%)","hsl(0, 50%, 50%)","white","3000","10","circle","black","3","2","2","16.75","[12,17,17,17,17,16,17,16,17,17,17,17,17,16,17,17,17,17,17,16,17,17,17,17,17,16,17,17,17,17,16,17,17,17,17,18,17,17,16,17,17,16,16,17,17,17,17,17,17,17,17,17]","52","600","250","false","20","20","black","1","false","1","1","1200","660","response","j","no","self",""
"","","","","","html-keyboard-response","166","2075550","0.0-5.0-0.0-0.0-3.0-0.0-0.0-4.0-0.1","null","fixation","null","<p style='font-size: 48px; color: white'>+</p >","","","","","","","","","","","","","","","","","","","","","","","","","","","","","","","","","","","","","","","","","","","","","","",""
"","","","","","rdk","167","2077486","0.0-5.0-0.0-0.0-3.0-0.0-0.0-4.0-1.1","934","match_RDK","j","","true","[""f"",""j""]","[""j""]","3000","true","1","100","1","180","0.6","0","5","1","-1","3","500","500","hsl(225, 50%, 50%)","hsl(0, 50%, 50%)","white","3000","10","circle","black","3","2","2","16.642857142857142","[10,16,17,17,16,18,16,17,17,17,17,17,17,16,17,17,16,17,17,17,17,16,17,16,17,16,17,17,16,17,17,17,17,17,17,16,17,16,17,17,17,17,16,17,17,16,16,17,17,17,17,18,17,16,17,17]","56","600","250","false","20","20","black","1","false","1","1","1200","660","response","j","no","other",""
"","","","","","html-keyboard-response","168","2078517","0.0-5.0-0.0-0.0-3.0-0.0-0.0-4.0-0.2","null","fixation","null","<p style='font-size: 48px; color: white'>+</p >","","","","","","","","","","","","","","","","","","","","","","","","","","","","","","","","","","","","","","","","","","","","","","",""
"","","","","","rdk","169","2080351","0.0-5.0-0.0-0.0-3.0-0.0-0.0-4.0-1.2","828","match_RDK","f","","true","[""f"",""j""]","[""f""]","3000","true","1","100","1","180","0.6","0","5","1","-1","3","500","500","hsl(225, 50%, 50%)","hsl(0, 50%, 50%)","white","3000","10","circle","black","3","2","2","16.52","[6,16,17,17,17,17,17,16,17,17,17,17,18,16,16,17,16,17,17,17,17,17,17,17,17,16,17,17,17,16,17,17,17,17,16,16,17,16,17,17,17,16,17,16,17,16,17,17,16,17]","50","600","250","false","20","20","black","1","false","1","1","1200","660","response","f","yes","self",""
"","","","","","html-keyboard-response","170","2081367","0.0-5.0-0.0-0.0-3.0-0.0-0.0-4.0-0.3","null","fixation","null","<p style='font-size: 48px; color: white'>+</p >","","","","","","","","","","","","","","","","","","","","","","","","","","","","","","","","","","","","","","","","","","","","","","",""
"","","","","","rdk","171","2083374","0.0-5.0-0.0-0.0-3.0-0.0-0.0-4.0-1.3","1001","match_RDK","f","","true","[""f"",""j""]","[""f""]","3000","true","1","100","1","0","0.6","0","5","1","-1","3","500","500","hsl(225, 50%, 50%)","hsl(0, 50%, 50%)","white","3000","10","circle","black","3","2","2","16.566666666666666","[7,16,17,17,17,17,17,17,17,16,17,16,17,17,16,17,16,16,16,17,17,17,17,17,17,17,17,17,17,17,16,17,17,17,16,17,16,17,16,17,17,17,17,17,17,17,16,17,17,17,17,17,16,17,16,17,16,17,16,17]","60","600","250","false","20","20","black","1","false","1","1","1200","660","response","f","yes","other",""
"","","","","","html-keyboard-response","172","2084400","0.0-5.0-0.0-0.0-3.0-0.0-0.0-4.0-0.4","null","fixation","null","<p style='font-size: 48px; color: white'>+</p >","","","","","","","","","","","","","","","","","","","","","","","","","","","","","","","","","","","","","","","","","","","","","","",""
"","","","","","rdk","173","2086303","0.0-5.0-0.0-0.0-3.0-0.0-0.0-4.0-1.4","896","match_RDK","f","","true","[""f"",""j""]","[""f""]","3000","true","1","100","1","0","0.6","0","5","1","-1","3","500","500","hsl(225, 50%, 50%)","hsl(0, 50%, 50%)","white","3000","10","circle","black","3","2","2","16.59259259259259","[7,16,17,17,17,17,17,17,17,16,17,17,16,17,17,17,17,17,17,17,17,17,16,17,17,17,16,17,17,17,17,17,17,16,17,17,17,17,17,16,17,17,17,17,17,16,16,17,16,16,17,16,17,17]","54","600","250","false","20","20","black","1","false","1","1","1200","660","response","f","yes","other",""
"","","","","","html-keyboard-response","174","2087333","0.0-5.0-0.0-0.0-3.0-0.0-0.0-4.0-0.5","null","fixation","null","<p style='font-size: 48px; color: white'>+</p >","","","","","","","","","","","","","","","","","","","","","","","","","","","","","","","","","","","","","","","","","","","","","","",""
"","","","","","rdk","175","2089087","0.0-5.0-0.0-0.0-3.0-0.0-0.0-4.0-1.5","746","match_RDK","j","","true","[""f"",""j""]","[""j""]","3000","true","1","100","1","180","0.6","0","5","1","-1","3","500","500","hsl(225, 50%, 50%)","hsl(0, 50%, 50%)","white","3000","10","circle","black","3","2","2","16.6","[6,17,16,17,17,17,17,17,17,17,17,17,17,17,16,17,17,17,17,17,16,17,17,17,17,17,17,16,17,17,17,17,17,17,16,16,16,17,17,17,17,17,17,17,17]","45","600","250","false","20","20","black","1","false","1","1","1200","660","response","j","no","other",""
"","","","","","html-keyboard-response","176","2090116","0.0-5.0-0.0-0.0-3.0-0.0-0.0-4.0-0.6","null","fixation","null","<p style='font-size: 48px; color: white'>+</p >","","","","","","","","","","","","","","","","","","","","","","","","","","","","","","","","","","","","","","","","","","","","","","",""
"","","","","","rdk","177","2091951","0.0-5.0-0.0-0.0-3.0-0.0-0.0-4.0-1.6","823","match_RDK","j","","true","[""f"",""j""]","[""j""]","3000","true","1","100","1","0","0.6","0","5","1","-1","3","500","500","hsl(225, 50%, 50%)","hsl(0, 50%, 50%)","white","3000","10","circle","black","3","2","2","16.62","[3,16,17,16,17,17,16,17,18,16,17,17,17,17,17,17,17,17,17,17,17,17,17,17,17,17,17,17,17,17,17,17,17,17,16,16,17,17,17,17,17,17,17,17,17,17,17,17,17,17]","50","600","250","false","20","20","black","1","false","1","1","1200","660","response","j","no","self",""
"","","","","","html-keyboard-response","178","2092966","0.0-5.0-0.0-0.0-3.0-0.0-0.0-4.0-0.7","null","fixation","null","<p style='font-size: 48px; color: white'>+</p >","","","","","","","","","","","","","","","","","","","","","","","","","","","","","","","","","","","","","","","","","","","","","","",""
"","","","","","rdk","179","2094622","0.0-5.0-0.0-0.0-3.0-0.0-0.0-4.0-1.7","645","match_RDK","f","","true","[""f"",""j""]","[""f""]","3000","true","1","100","1","180","0.6","0","5","1","-1","3","500","500","hsl(225, 50%, 50%)","hsl(0, 50%, 50%)","white","3000","10","circle","black","3","2","2","16.487179487179485","[9,10,18,16,17,17,17,17,17,16,17,17,16,17,17,17,17,17,17,17,17,17,17,16,17,17,17,17,17,17,17,17,17,17,17,17,16,16,17]","39","600","250","false","20","20","black","1","false","1","1","1200","660","response","f","yes","self",""
"","","","","","html-keyboard-response","180","2095650","0.0-5.0-0.0-0.0-3.0-0.0-0.0-4.0-0.8","null","fixation","null","<p style='font-size: 48px; color: white'>+</p >","","","","","","","","","","","","","","","","","","","","","","","","","","","","","","","","","","","","","","","","","","","","","","",""
"","","","","","rdk","181","2097518","0.0-5.0-0.0-0.0-3.0-0.0-0.0-4.0-1.8","866","match_RDK","j","","true","[""f"",""j""]","[""j""]","3000","true","1","100","1","180","0.6","0","5","1","-1","3","500","500","hsl(225, 50%, 50%)","hsl(0, 50%, 50%)","white","3000","10","circle","black","3","2","2","16.807692307692307","[10,17,17,17,17,16,17,17,17,17,17,17,17,17,17,17,17,17,16,17,17,17,17,17,17,17,17,17,17,17,17,17,17,17,17,17,17,17,17,16,17,17,17,17,17,17,17,17,17,17,17,17]","52","600","250","false","20","20","black","1","false","1","1","1200","660","response","j","no","other",""
"","","","","","html-keyboard-response","182","2098533","0.0-5.0-0.0-0.0-3.0-0.0-0.0-4.0-0.9","null","fixation","null","<p style='font-size: 48px; color: white'>+</p >","","","","","","","","","","","","","","","","","","","","","","","","","","","","","","","","","","","","","","","","","","","","","","",""
"","","","","","rdk","183","2100367","0.0-5.0-0.0-0.0-3.0-0.0-0.0-4.0-1.9","831","match_RDK","f","","true","[""f"",""j""]","[""f""]","3000","true","1","100","1","180","0.6","0","5","1","-1","3","500","500","hsl(225, 50%, 50%)","hsl(0, 50%, 50%)","white","3000","10","circle","black","3","2","2","16.84","[10,17,17,17,17,17,17,17,17,17,17,17,17,17,17,17,17,17,17,17,17,17,17,16,17,17,17,17,17,17,17,17,17,17,17,17,17,17,17,17,17,17,17,17,17,17,17,17,17,17]","50","600","250","false","20","20","black","1","false","1","1","1200","660","response","f","yes","self",""
"","","","","","html-keyboard-response","184","2101383","0.0-5.0-0.0-0.0-3.0-0.0-0.0-4.0-0.10","null","fixation","null","<p style='font-size: 48px; color: white'>+</p >","","","","","","","","","","","","","","","","","","","","","","","","","","","","","","","","","","","","","","","","","","","","","","",""
"","","","","","rdk","185","2103135","0.0-5.0-0.0-0.0-3.0-0.0-0.0-4.0-1.10","734","match_RDK","j","","true","[""f"",""j""]","[""j""]","3000","true","1","100","1","0","0.6","0","5","1","-1","3","500","500","hsl(225, 50%, 50%)","hsl(0, 50%, 50%)","white","3000","10","circle","black","3","2","2","16.772727272727273","[11,17,17,17,17,17,17,17,17,17,17,17,17,17,17,16,17,17,17,17,17,17,17,17,16,17,17,17,17,17,17,17,17,17,17,17,17,17,17,16,17,17,17,16]","44","600","250","false","20","20","black","1","false","1","1","1200","660","response","j","no","self",""
"","","","","","html-keyboard-response","186","2104150","0.0-5.0-0.0-0.0-3.0-0.0-0.0-4.0-0.11","null","fixation","null","<p style='font-size: 48px; color: white'>+</p >","","","","","","","","","","","","","","","","","","","","","","","","","","","","","","","","","","","","","","","","","","","","","","",""
"","","","","","rdk","187","2106001","0.0-5.0-0.0-0.0-3.0-0.0-0.0-4.0-1.11","833","match_RDK","f","","true","[""f"",""j""]","[""f""]","3000","true","1","100","1","0","0.6","0","5","1","-1","3","500","500","hsl(225, 50%, 50%)","hsl(0, 50%, 50%)","white","3000","10","circle","black","3","2","2","16.88","[11,17,17,17,17,17,17,17,17,17,17,17,17,17,17,17,17,17,17,17,17,17,17,17,17,17,17,17,17,17,17,17,17,17,17,17,17,17,17,16,17,17,17,17,17,17,17,17,17,18]","50","600","250","false","20","20","black","1","false","1","1","1200","660","response","f","yes","other",""
"","","","","","html-keyboard-response","188","2107017","0.0-5.0-0.0-0.0-3.0-0.0-0.0-4.0-0.12","null","fixation","null","<p style='font-size: 48px; color: white'>+</p >","","","","","","","","","","","","","","","","","","","","","","","","","","","","","","","","","","","","","","","","","","","","","","",""
"","","","","","rdk","189","2108751","0.0-5.0-0.0-0.0-3.0-0.0-0.0-4.0-1.12","716","match_RDK","f","","true","[""f"",""j""]","[""f""]","3000","true","1","100","1","180","0.6","0","5","1","-1","3","500","500","hsl(225, 50%, 50%)","hsl(0, 50%, 50%)","white","3000","10","circle","black","3","2","2","16.767441860465116","[11,17,17,17,17,17,17,16,16,17,17,17,17,17,17,17,17,17,17,17,17,16,17,17,16,17,17,17,17,17,17,17,17,17,17,17,17,17,17,17,17,17,17]","43","600","250","false","20","20","black","1","false","1","1","1200","660","response","f","yes","self",""
"","","","","","html-keyboard-response","190","2109766","0.0-5.0-0.0-0.0-3.0-0.0-0.0-4.0-0.13","null","fixation","null","<p style='font-size: 48px; color: white'>+</p >","","","","","","","","","","","","","","","","","","","","","","","","","","","","","","","","","","","","","","","","","","","","","","",""
"","","","","","rdk","191","2111519","0.0-5.0-0.0-0.0-3.0-0.0-0.0-4.0-1.13","745","match_RDK","f","","true","[""f"",""j""]","[""f""]","3000","true","1","100","1","0","0.6","0","5","1","-1","3","500","500","hsl(225, 50%, 50%)","hsl(0, 50%, 50%)","white","3000","10","circle","black","3","2","2","16.488888888888887","[6,16,17,17,17,17,17,18,17,16,17,17,16,17,17,16,17,17,17,17,17,17,16,17,16,15,17,17,17,17,17,17,17,16,17,17,16,17,16,17,17,16,17,16,17]","45","600","250","false","20","20","black","1","false","1","1","1200","660","response","f","yes","other",""
"","","","","","html-keyboard-response","192","2112535","0.0-5.0-0.0-0.0-3.0-0.0-0.0-4.0-0.14","null","fixation","null","<p style='font-size: 48px; color: white'>+</p >","","","","","","","","","","","","","","","","","","","","","","","","","","","","","","","","","","","","","","","","","","","","","","",""
"","","","","","rdk","193","2114495","0.0-5.0-0.0-0.0-3.0-0.0-0.0-4.0-1.14","944","match_RDK","j","","true","[""f"",""j""]","[""j""]","3000","true","1","100","1","180","0.6","0","5","1","-1","3","500","500","hsl(225, 50%, 50%)","hsl(0, 50%, 50%)","white","3000","10","circle","black","3","2","2","16.857142857142858","[13,17,17,17,17,17,17,17,17,17,17,17,17,17,17,17,17,17,17,17,17,17,17,17,17,17,17,17,17,17,17,17,17,16,17,17,17,17,17,17,17,17,16,17,17,17,16,17,17,17,17,17,17,16,17,17]","56","600","250","false","20","20","black","1","false","1","1","1200","660","response","j","no","other",""
"","","","","","html-keyboard-response","194","2115517","0.0-5.0-0.0-0.0-3.0-0.0-0.0-4.0-0.15","null","fixation","null","<p style='font-size: 48px; color: white'>+</p >","","","","","","","","","","","","","","","","","","","","","","","","","","","","","","","","","","","","","","","","","","","","","","",""
"","","","","","rdk","195","2117374","0.0-5.0-0.0-0.0-3.0-0.0-0.0-4.0-1.15","851","match_RDK","j","","true","[""f"",""j""]","[""j""]","3000","true","1","100","1","0","0.6","0","5","1","-1","3","500","500","hsl(225, 50%, 50%)","hsl(0, 50%, 50%)","white","3000","10","circle","black","3","2","2","16.607843137254903","[10,12,17,17,17,17,17,17,18,17,16,17,17,17,17,17,17,16,17,17,17,17,16,17,16,17,17,17,16,17,16,17,17,17,17,17,17,17,17,17,17,17,16,17,16,17,17,16,17,17,17]","51","600","250","false","20","20","black","1","false","1","1","1200","660","response","j","no","self",""
"","","","","","html-keyboard-response","196","2118401","0.0-5.0-0.0-0.0-3.0-0.0-0.0-4.0-0.16","null","fixation","null","<p style='font-size: 48px; color: white'>+</p >","","","","","","","","","","","","","","","","","","","","","","","","","","","","","","","","","","","","","","","","","","","","","","",""
"","","","","","rdk","197","2120159","0.0-5.0-0.0-0.0-3.0-0.0-0.0-4.0-1.16","756","match_RDK","f","","true","[""f"",""j""]","[""f""]","3000","true","1","100","1","180","0.6","0","5","1","-1","3","500","500","hsl(225, 50%, 50%)","hsl(0, 50%, 50%)","white","3000","10","circle","black","3","2","2","16.644444444444446","[10,17,17,17,16,18,17,17,17,17,17,17,17,17,17,16,17,16,17,17,17,17,17,16,17,17,16,17,15,17,16,17,17,18,17,17,17,17,17,16,17,17,16,17,16]","45","600","250","false","20","20","black","1","false","1","1","1200","660","response","f","yes","self",""
"","","","","","html-keyboard-response","198","2121168","0.0-5.0-0.0-0.0-3.0-0.0-0.0-4.0-0.17","null","fixation","null","<p style='font-size: 48px; color: white'>+</p >","","","","","","","","","","","","","","","","","","","","","","","","","","","","","","","","","","","","","","","","","","","","","","",""
"","","","","","rdk","199","2122959","0.0-5.0-0.0-0.0-3.0-0.0-0.0-4.0-1.17","774","match_RDK","f","","true","[""f"",""j""]","[""f""]","3000","true","1","100","1","0","0.6","0","5","1","-1","3","500","500","hsl(225, 50%, 50%)","hsl(0, 50%, 50%)","white","3000","10","circle","black","3","2","2","16.782608695652176","[11,17,17,17,17,17,17,17,17,17,17,17,17,17,17,16,16,17,17,17,17,17,17,17,17,17,17,17,17,17,17,17,17,17,17,17,16,17,17,17,17,17,17,17,17,16]","46","600","250","false","20","20","black","1","false","1","1","1200","660","response","f","yes","other",""
"","","","","","html-keyboard-response","200","2123983","0.0-5.0-0.0-0.0-3.0-0.0-0.0-4.0-0.18","null","fixation","null","<p style='font-size: 48px; color: white'>+</p >","","","","","","","","","","","","","","","","","","","","","","","","","","","","","","","","","","","","","","","","","","","","","","",""
"","","","","","rdk","201","2125807","0.0-5.0-0.0-0.0-3.0-0.0-0.0-4.0-1.18","821","match_RDK","j","","true","[""f"",""j""]","[""j""]","3000","true","1","100","1","180","0.6","0","5","1","-1","3","500","500","hsl(225, 50%, 50%)","hsl(0, 50%, 50%)","white","3000","10","circle","black","3","2","2","16.877551020408163","[12,17,17,17,17,17,17,17,17,17,17,17,17,17,17,17,17,17,17,17,17,17,17,17,17,17,16,17,17,17,17,17,17,17,17,17,17,17,17,17,17,17,17,17,17,17,17,17,17]","49","600","250","false","20","20","black","1","false","1","1","1200","660","response","j","no","other",""
"","","","","","html-keyboard-response","202","2126833","0.0-5.0-0.0-0.0-3.0-0.0-0.0-4.0-0.19","null","fixation","null","<p style='font-size: 48px; color: white'>+</p >","","","","","","","","","","","","","","","","","","","","","","","","","","","","","","","","","","","","","","","","","","","","","","",""
"","","","","","rdk","203","2128591","0.0-5.0-0.0-0.0-3.0-0.0-0.0-4.0-1.19","755","match_RDK","j","","true","[""f"",""j""]","[""j""]","3000","true","1","100","1","0","0.6","0","5","1","-1","3","500","500","hsl(225, 50%, 50%)","hsl(0, 50%, 50%)","white","3000","10","circle","black","3","2","2","16.77777777777778","[10,17,17,17,17,17,17,16,17,17,17,17,17,17,17,17,17,17,17,17,16,17,17,17,17,17,17,17,17,17,17,17,17,17,17,16,17,17,17,17,17,17,17,17,17]","45","600","250","false","20","20","black","1","false","1","1","1200","660","response","j","no","self",""
"","","","","","html-keyboard-response","204","2129617","0.0-5.0-0.0-0.0-3.0-0.0-0.0-4.0-0.20","null","fixation","null","<p style='font-size: 48px; color: white'>+</p >","","","","","","","","","","","","","","","","","","","","","","","","","","","","","","","","","","","","","","","","","","","","","","",""
"","","","","","rdk","205","2131311","0.0-5.0-0.0-0.0-3.0-0.0-0.0-4.0-1.20","676","match_RDK","f","","true","[""f"",""j""]","[""f""]","3000","true","1","100","1","180","0.6","0","5","1","-1","3","500","500","hsl(225, 50%, 50%)","hsl(0, 50%, 50%)","white","3000","10","circle","black","3","2","2","16.825","[12,17,17,17,17,17,17,17,17,17,17,17,17,16,17,17,17,17,17,17,17,17,17,17,17,17,17,17,17,17,17,17,17,17,17,17,17,16,17,17]","40","600","250","false","20","20","black","1","false","1","1","1200","660","response","f","yes","self",""
"","","","","","html-keyboard-response","206","2132333","0.0-5.0-0.0-0.0-3.0-0.0-0.0-4.0-0.21","null","fixation","null","<p style='font-size: 48px; color: white'>+</p >","","","","","","","","","","","","","","","","","","","","","","","","","","","","","","","","","","","","","","","","","","","","","","",""
"","","","","","rdk","207","2134063","0.0-5.0-0.0-0.0-3.0-0.0-0.0-4.0-1.21","727","match_RDK","f","","true","[""f"",""j""]","[""f""]","3000","true","1","100","1","0","0.6","0","5","1","-1","3","500","500","hsl(225, 50%, 50%)","hsl(0, 50%, 50%)","white","3000","10","circle","black","3","2","2","16.6046511627907","[10,17,17,17,17,17,17,18,17,16,17,17,17,16,17,16,17,17,17,16,17,17,17,16,17,16,16,17,17,17,17,17,16,17,17,16,17,17,16,17,16,17,17]","43","600","250","false","20","20","black","1","false","1","1","1200","660","response","f","yes","other",""
"","","","","","html-keyboard-response","208","2135083","0.0-5.0-0.0-0.0-3.0-0.0-0.0-4.0-0.22","null","fixation","null","<p style='font-size: 48px; color: white'>+</p >","","","","","","","","","","","","","","","","","","","","","","","","","","","","","","","","","","","","","","","","","","","","","","",""
"","","","","","rdk","209","2136942","0.0-5.0-0.0-0.0-3.0-0.0-0.0-4.0-1.22","849","match_RDK","j","","true","[""f"",""j""]","[""j""]","3000","true","1","100","1","180","0.6","0","5","1","-1","3","500","500","hsl(225, 50%, 50%)","hsl(0, 50%, 50%)","white","3000","10","circle","black","3","2","2","16.607843137254903","[4,16,17,17,17,17,17,17,16,17,17,17,17,18,16,17,17,17,17,17,17,16,17,17,16,17,17,17,17,17,16,17,17,17,17,17,17,17,17,17,17,16,17,17,17,17,17,17,17,17,16]","51","600","250","false","20","20","black","1","false","1","1","1200","660","response","j","no","other",""
"","","","","","html-keyboard-response","210","2137967","0.0-5.0-0.0-0.0-3.0-0.0-0.0-4.0-0.23","null","fixation","null","<p style='font-size: 48px; color: white'>+</p >","","","","","","","","","","","","","","","","","","","","","","","","","","","","","","","","","","","","","","","","","","","","","","",""
"","","","","","rdk","211","2139855","0.0-5.0-0.0-0.0-3.0-0.0-0.0-4.0-1.23","886","match_RDK","j","","true","[""f"",""j""]","[""j""]","3000","true","1","100","1","0","0.6","0","5","1","-1","3","500","500","hsl(225, 50%, 50%)","hsl(0, 50%, 50%)","white","3000","10","circle","black","3","2","2","16.754716981132077","[10,16,17,17,16,17,18,16,17,17,17,17,17,17,17,17,17,17,17,17,17,16,17,17,17,17,17,16,17,17,17,17,17,17,17,17,17,17,17,17,17,17,17,17,17,16,17,17,16,17,17,17,17]","53","600","250","false","20","20","black","1","false","1","1","1200","660","response","j","no","self",""
"","","","","","html-keyboard-response","212","2140883","0.0-5.0-0.0-0.0-3.0-0.0-0.0-4.0-0.24","null","fixation","null","<p style='font-size: 48px; color: white'>+</p >","","","","","","","","","","","","","","","","","","","","","","","","","","","","","","","","","","","","","","","","","","","","","","",""
"","","","","","rdk","213","2142831","0.0-5.0-0.0-0.0-3.0-0.0-0.0-4.0-1.24","945","match_RDK","j","","true","[""f"",""j""]","[""j""]","3000","true","1","100","1","180","0.6","0","5","1","-1","3","500","500","hsl(225, 50%, 50%)","hsl(0, 50%, 50%)","white","3000","10","circle","black","3","2","2","16.642857142857142","[10,17,17,17,17,17,17,16,17,16,16,17,17,18,17,17,16,17,17,17,17,17,16,17,17,17,16,17,17,16,17,17,17,16,17,16,17,17,16,17,16,17,17,16,17,17,16,17,17,17,17,17,17,17,16,17]","56","600","250","false","20","20","black","1","false","1","1","1200","660","response","j","no","other",""
"","","","","","html-keyboard-response","214","2143850","0.0-5.0-0.0-0.0-3.0-0.0-0.0-4.0-0.25","null","fixation","null","<p style='font-size: 48px; color: white'>+</p >","","","","","","","","","","","","","","","","","","","","","","","","","","","","","","","","","","","","","","","","","","","","","","",""
"","","","","","rdk","215","2145727","0.0-5.0-0.0-0.0-3.0-0.0-0.0-4.0-1.25","874","match_RDK","f","","true","[""f"",""j""]","[""f""]","3000","true","1","100","1","180","0.6","0","5","1","-1","3","500","500","hsl(225, 50%, 50%)","hsl(0, 50%, 50%)","white","3000","10","circle","black","3","2","2","16.673076923076923","[10,17,17,17,17,17,17,17,16,16,17,17,18,17,16,17,17,16,16,17,17,16,17,17,17,17,16,17,17,17,17,17,17,16,17,17,17,17,17,17,17,16,17,17,17,17,17,16,17,16,17,17]","52","600","250","false","20","20","black","1","false","1","1","1200","660","response","f","yes","self",""
"","","","","","html-keyboard-response","216","2146751","0.0-5.0-0.0-0.0-3.0-0.0-0.0-4.0-0.26","null","fixation","null","<p style='font-size: 48px; color: white'>+</p >","","","","","","","","","","","","","","","","","","","","","","","","","","","","","","","","","","","","","","","","","","","","","","",""
