"success","timeout","failed_images","failed_audio","failed_video","trial_type","trial_index","time_elapsed","internal_node_id","rt","part","response","stimulus","correct","choices","correct_choice","trial_duration","response_ends_trial","number_of_apertures","number_of_dots","number_of_sets","coherent_direction","coherence","opposite_coherence","dot_radius","dot_side_length","dot_life","move_distance","aperture_width","aperture_height","dot_color_beforeOne","dot_color_beforeTwo","dot_color_after","dot_color_delay","move_delay","dot_shape","background_color","RDK_type","aperture_type","reinsert_type","frame_rate","frame_rate_array","number_of_frames","aperture_center_x","aperture_center_y","fixation_cross","fixation_cross_width","fixation_cross_height","fixation_cross_color","fixation_cross_thickness","border","border_thickness","border_color","canvas_width","canvas_height","task","correct_responce","match","association","difficulty"
"true","false","[]","[]","[]","preload","0","17","0.0-0.0","","","","","","","","","","","","","","","","","","","","","","","","","","","","","","","","","","","","","","","","","","","","","","","","","","",""
"true","","","","","fullscreen","1","727558","0.0-1.0","725520","fullScreen","","","","","","","","","","","","","","","","","","","","","","","","","","","","","","","","","","","","","","","","","","","","","","","","",""
"","","","","","survey","2","738770","0.0-2.0","10153","survey","{""sex"":""女"",""age"":20,""hands"":""右"",""color_blindness"":""都不是""}","","","","","","","","","","","","","","","","","","","","","","","","","","","","","","","","","","","","","","","","","","","","","","","",""
"","","","","","survey-text","3","752421","0.0-3.0","12639","color_test","{""Q0"":""be""}","","","","","","","","","","","","","","","","","","","","","","","","","","","","","","","","","","","","","","","","","","","","","","","",""
"","","","","","html-keyboard-response","4","756911","0.0-4.0","3487","instruction_beginning"," ","
      <div style=""text-align: left; color: white"">
        <h3 style=""text-align: center; font-size: 30px; margin: 0;"">欢迎参与本实验</h3>
          <p>为充分保障您的权利，请确保您已经知晓并同意《参与实验同意书》以及《数据公开知情同意书》，</p>
          <p>如果您未见过上述内容，请咨询实验员 ，</p>
          <p>如果您选择继续实验，则表示您已经清楚两份知情同意书的内容并同意 。</p>
          <p>在整个实验中，您需要完成两项任务，具体的任务要求会在后面说明 ，</p>
          <p>请按空格键进入实验</p >
      </div>","","","","","","","","","","","","","","","","","","","","","","","","","","","","","","","","","","","","","","","","","","","","","","",""
"","","","","","html-keyboard-response","5","792910","0.0-5.0-1.0-0.0-0.0","34994","instruction_match"," ","
        <div style=""text-align: left; color: white; padding: 10px""> 
          <h3 style=""text-align: center; font-size: 30px; margin: 10px"">任务一：匹配判断</h3>
          <p>接下来，屏幕上会呈现一些运动的圆点，其中一半为 <span style=""color: hsl(0, 50%, 50%)"">红色</span> ，一半为 <span style=""color: hsl(225, 50%, 50%)"">蓝色</span> 。</p>
          <p>同时散点图的下方会出现 ""自己"" 或 ""生人"" 的文字标签。</p >
          <p><span style=""font-weight: bold"">大约0.2秒后,</span>  一部分点会随机变为另一种颜色（例如从红色变为蓝色），变化后某种颜色的数量会超过另一种。</p >
          <p>如果整体颜色为 <span style=""color: hsl(225, 50%, 50%)"">蓝色</span> 代表 <span style=""color: hsl(225, 50%, 50%)"">你自己</span> ，整体颜色为 <span style=""color: hsl(0, 50%, 50%)"">红色</span> 代表 <span style=""color: hsl(0, 50%, 50%)"">生人（即陌生人）</span>。</p >
          <p>您需要在3秒内判断 <span style=""font-weight: bold"">散点图的整体颜色与文字是否匹配</span> 。</p >
          <ul>
            <li><span style=""color: hsl(135, 50%, 50%)"">匹配</span>，请按键盘 <span style=""color: hsl(135, 50%, 50%)"">""F"" 键</span>；</li>
            <li><span style=""color: red"">不匹配</span>，请按键盘 <span style=""color: red"">""J"" 键</span> </li>
          </ul>
          <p>按下空格键后将呈现示例</p>
        </div>","","","","","","","","","","","","","","","","","","","","","","","","","","","","","","","","","","","","","","","","","","","","","","",""
"","","","","","rdk","6","801230","0.0-5.0-1.0-0.0-1.0","7306","example"," ","","true","["" ""]","["" ""]","300000","true","4","[80,20,80,20]","1","0","0","0","5","1","-1","3","400","400","hsl(225, 50%, 50%)","hsl(0, 50%, 50%)","[""hsl(225, 50%, 50%)"",""hsl(0, 50%, 50%)"",""hsl(0, 50%, 50%)"",""hsl(225, 50%, 50%)""]","10","10","circle","black","3","1","2","16.80593607305936","[5,18,16,17,16,17,17,17,17,16,17,17,17,17,17,17,17,16,16,17,17,17,17,17,17,17,16,17,16,17,17,17,17,17,16,17,17,17,17,17,16,17,16,17,17,17,17,17,16,17,17,17,17,17,17,17,17,17,16,17,17,17,17,20,12,17,16,17,16,17,17,17,17,16,17,17,17,17,17,17,17,16,17,17,17,17,16,17,17,16,17,17,16,17,17,15,17,17,16,17,17,17,16,17,17,17,17,17,16,17,17,17,17,16,17,17,17,16,17,17,16,16,17,16,17,17,17,17,17,16,16,17,17,17,17,17,16,17,16,17,17,17,17,17,17,16,17,16,17,17,17,17,16,17,17,17,17,17,17,17,17,17,17,16,17,17,17,17,17,17,17,17,18,16,16,16,17,16,17,17,17,17,17,17,17,17,17,16,17,17,17,17,17,17,16,17,17,17,16,17,17,17,17,17,17,17,16,17,17,17,16,16,17,17,17,17,17,17,17,17,17,17,16,17,17,17,17,17,17,17,17,16,17,17,17,16,17,17,17,17,17,17,17,17,17,17,17,17,17,17,17,17,17,17,17,17,16,17,16,17,17,17,17,17,17,17,17,17,17,17,17,17,17,17,17,17,17,17,16,17,17,17,17,17,17,17,17,16,17,17,17,17,17,17,17,17,16,17,17,16,17,17,16,17,17,17,17,17,16,17,17,17,17,17,17,17,17,17,17,17,17,17,17,17,17,17,17,17,17,17,17,17,17,17,17,17,17,17,16,17,17,17,17,16,17,17,16,17,17,17,17,16,17,17,16,17,17,17,17,17,17,17,17,17,17,17,16,17,17,17,17,17,17,17,17,17,17,17,17,16,17,17,17,17,17,17,17,16,17,16,17,17,17,17,17,17,17,16,17,16,17,17,17,17,17,17,17,17,17,17,16,17,17,17,17,17,17,17,17,17,16,17,17,17,17,17,17,17,17,16,17,17,17,17,17,17,16,17]","438","[300,300,900,900]","[280,280,280,280]","false","20","20","black","1","false","1","1","1200","660","","","","",""
"","","","","","html-keyboard-response","7","813390","0.0-5.0-1.0-0.0-2.0-1.0-0.0-0.0","11655","instruction_match_practice"," ","
        <div style=""text-align: left; color: white; padding: 10px"">  
          <h3 style=""text-align: center; font-size: 30px; margin: 10px;"">练习阶段</h3>
          <p>整体颜色为 <span style=""color: hsl(225, 50%, 50%)"">蓝色</span> 代表 <span style=""color: hsl(225, 50%, 50%)"">你自己</span> ，为 <span style=""color: hsl(0, 50%, 50%)"">红色</span> 代表 <span style=""color: hsl(0, 50%, 50%)"">生人（即陌生人）</span>。</p >
          <p>您需要在3秒内判断 <span style=""font-weight: bold"">散点图的运动方向与文字是否匹配</span>，<span style=""color: hsl(135, 50%, 50%);"">匹配</span> 按 <span style=""color: hsl(135, 50%, 50%);"">""F"" 键</span>；<span style=""color: red;"">不匹配</span> 按 <span style=""color: red;"">""J"" 键</span> </p >
          <p>正确率达到 70% 及以上才能进入下一个阶段</p >
          <p>请把左手食指放在 ""F"" 键上，右手食指放在 ""J"" 键上</p >
          <p>请按下空格键开始练习</p >
        </div>","","","","","","","","","","","","","","","","","","","","","","","","","","","","","","","","","","","","","","","","","","","","","","",""
"","","","","","html-keyboard-response","8","814900","0.0-5.0-1.0-0.0-2.0-1.0-0.0-1.0-0.0","null","fixation","null","<p style='font-size: 48px; color: white'>+</p >","","","","","","","","","","","","","","","","","","","","","","","","","","","","","","","","","","","","","","","","","","","","","","",""
"","","","","","rdk","9","818446","0.0-5.0-1.0-0.0-2.0-1.0-0.0-1.0-1.0","2528","match_RDK","j","","true","[""f"",""j""]","[""j""]","3000","true","2","[80,20]","1","0","0","0","5","1","-1","3","500","500","hsl(225, 50%, 50%)","hsl(0, 50%, 50%)","[""hsl(225, 50%, 50%)"",""hsl(0, 50%, 50%)""]","10","10","circle","black","3","2","2","16.788079470198674","[10,17,17,17,17,17,17,17,17,16,17,17,17,17,17,17,16,17,17,17,16,17,17,17,16,17,16,17,17,17,17,16,16,17,17,17,17,17,17,17,16,17,17,17,16,17,17,17,17,17,16,17,17,16,17,16,17,17,16,17,17,17,16,17,17,16,17,17,17,17,17,17,16,17,17,17,17,17,16,17,17,17,17,17,16,17,17,17,17,17,16,17,17,17,17,17,17,17,17,17,17,17,16,17,17,17,17,17,17,17,17,17,16,17,17,17,16,17,17,16,17,17,17,17,17,17,17,17,17,17,17,17,16,16,17,17,17,17,17,17,17,17,17,17,17,17,17,17,17,17,17]","151","600","250","false","20","20","black","1","false","1","1","1200","660","response","j","no","other",""
"","","","","","html-keyboard-response","10","819450","0.0-5.0-1.0-0.0-2.0-1.0-0.0-1.0-2.0","null","","null","<p style='font-size: 60px; color: green'>正确!</p>","","","","","","","","","","","","","","","","","","","","","","","","","","","","","","","","","","","","","","","","","","","","","","",""
"","","","","","html-keyboard-response","11","820981","0.0-5.0-1.0-0.0-2.0-1.0-0.0-1.0-0.1","null","fixation","null","<p style='font-size: 48px; color: white'>+</p >","","","","","","","","","","","","","","","","","","","","","","","","","","","","","","","","","","","","","","","","","","","","","","",""
"","","","","","rdk","12","823774","0.0-5.0-1.0-0.0-2.0-1.0-0.0-1.0-1.1","1784","match_RDK","f","","false","[""f"",""j""]","[""j""]","3000","true","2","[80,20]","1","0","0","0","5","1","-1","3","500","500","hsl(225, 50%, 50%)","hsl(0, 50%, 50%)","[""hsl(0, 50%, 50%)"",""hsl(225, 50%, 50%)""]","10","10","circle","black","3","2","2","16.738317757009344","[6,16,17,17,17,18,17,17,17,17,16,16,17,17,17,17,17,18,16,17,17,17,17,17,17,16,17,17,17,17,16,17,17,17,17,17,17,17,17,16,17,17,16,17,17,17,17,16,17,17,17,17,17,17,17,16,17,17,17,17,17,16,17,17,17,17,17,16,17,17,17,17,17,17,17,17,17,17,16,17,17,17,17,16,17,17,17,17,17,17,17,16,17,17,16,17,17,16,17,17,17,17,17,16,17,17,16]","107","600","250","false","20","20","black","1","false","1","1","1200","660","response","j","no","self",""
"","","","","","html-keyboard-response","13","824798","0.0-5.0-1.0-0.0-2.0-1.0-0.0-1.0-2.1","null","","null","<p style='font-size: 60px; color: red'>错误!</p>","","","","","","","","","","","","","","","","","","","","","","","","","","","","","","","","","","","","","","","","","","","","","","",""
"","","","","","html-keyboard-response","14","826316","0.0-5.0-1.0-0.0-2.0-1.0-0.0-1.0-0.2","null","fixation","null","<p style='font-size: 48px; color: white'>+</p >","","","","","","","","","","","","","","","","","","","","","","","","","","","","","","","","","","","","","","","","","","","","","","",""
"","","","","","rdk","15","829982","0.0-5.0-1.0-0.0-2.0-1.0-0.0-1.0-1.2","2660","match_RDK","f","","true","[""f"",""j""]","[""f""]","3000","true","2","[20,80]","1","0","0","0","5","1","-1","3","500","500","hsl(225, 50%, 50%)","hsl(0, 50%, 50%)","[""hsl(0, 50%, 50%)"",""hsl(225, 50%, 50%)""]","10","10","circle","black","3","2","2","16.8375","[7,17,17,17,17,17,17,17,17,17,17,17,17,17,17,17,17,17,17,17,17,17,17,17,17,16,17,17,17,17,16,17,17,17,17,17,17,17,17,16,17,17,17,17,17,17,17,17,17,17,17,16,17,17,17,17,17,17,16,17,17,17,17,17,17,17,17,17,17,17,17,17,16,17,17,17,17,17,17,17,17,17,17,17,17,16,17,17,17,17,17,17,17,17,17,17,17,17,16,17,17,17,17,17,16,17,17,16,17,17,16,17,17,17,17,17,17,17,17,17,17,17,17,17,17,17,17,17,16,17,17,17,17,17,16,17,17,17,17,17,17,16,17,17,16,17,17,17,17,17,17,17,17,17,17,17,16,17,17,17]","160","600","250","false","20","20","black","1","false","1","1","1200","660","response","f","yes","self",""
"","","","","","html-keyboard-response","16","830998","0.0-5.0-1.0-0.0-2.0-1.0-0.0-1.0-2.2","null","","null","<p style='font-size: 60px; color: green'>正确!</p>","","","","","","","","","","","","","","","","","","","","","","","","","","","","","","","","","","","","","","","","","","","","","","",""
"","","","","","html-keyboard-response","17","832516","0.0-5.0-1.0-0.0-2.0-1.0-0.0-1.0-0.3","null","fixation","null","<p style='font-size: 48px; color: white'>+</p >","","","","","","","","","","","","","","","","","","","","","","","","","","","","","","","","","","","","","","","","","","","","","","",""
"","","","","","rdk","18","835294","0.0-5.0-1.0-0.0-2.0-1.0-0.0-1.0-1.3","1772","match_RDK","f","","true","[""f"",""j""]","[""f""]","3000","true","2","[80,20]","1","0","0","0","5","1","-1","3","500","500","hsl(225, 50%, 50%)","hsl(0, 50%, 50%)","[""hsl(0, 50%, 50%)"",""hsl(225, 50%, 50%)""]","10","10","circle","black","3","2","2","16.70754716981132","[7,18,17,17,15,17,17,17,17,17,17,17,17,17,17,17,17,17,16,17,17,17,16,17,17,16,16,17,17,17,17,17,17,17,17,16,17,17,16,16,17,17,16,17,17,16,17,17,17,17,16,17,17,16,17,17,18,17,17,17,17,17,17,16,16,17,17,17,17,17,17,17,17,17,17,16,17,16,17,17,17,17,16,17,16,17,16,17,16,17,17,17,17,17,16,17,17,17,16,17,17,17,17,17,17,17]","106","600","250","false","20","20","black","1","false","1","1","1200","660","response","f","yes","other",""
"","","","","","html-keyboard-response","19","836315","0.0-5.0-1.0-0.0-2.0-1.0-0.0-1.0-2.3","null","","null","<p style='font-size: 60px; color: green'>正确!</p>","","","","","","","","","","","","","","","","","","","","","","","","","","","","","","","","","","","","","","","","","","","","","","",""
"","","","","","html-keyboard-response","20","837830","0.0-5.0-1.0-0.0-2.0-1.0-0.0-1.0-0.4","null","fixation","null","<p style='font-size: 48px; color: white'>+</p >","","","","","","","","","","","","","","","","","","","","","","","","","","","","","","","","","","","","","","","","","","","","","","",""
"","","","","","rdk","21","841742","0.0-5.0-1.0-0.0-2.0-1.0-0.0-1.0-1.4","2906","match_RDK","f","","true","[""f"",""j""]","[""f""]","3000","true","2","[80,20]","1","0","0","0","5","1","-1","3","500","500","hsl(225, 50%, 50%)","hsl(0, 50%, 50%)","[""hsl(0, 50%, 50%)"",""hsl(225, 50%, 50%)""]","10","10","circle","black","3","2","2","16.816091954022987","[9,17,17,17,17,17,17,17,17,17,17,17,16,17,17,17,17,17,17,16,16,17,17,17,17,17,16,17,17,17,17,16,17,17,17,16,17,17,17,17,17,17,17,17,17,17,17,17,17,16,17,16,17,17,17,17,17,17,16,17,16,17,17,17,17,16,17,17,17,17,16,17,17,17,17,17,17,17,17,16,17,17,17,17,16,17,17,16,17,17,17,17,17,16,17,17,17,17,17,17,17,17,17,16,17,17,17,17,17,17,17,17,17,17,17,17,16,17,17,17,17,17,17,17,17,17,17,17,17,17,17,17,17,16,17,17,17,17,17,17,17,16,17,17,17,17,17,17,17,17,17,16,17,17,17,17,17,17,17,17,17,16,17,17,17,16,17,17,17,17,16,17,17,17]","174","600","250","false","20","20","black","1","false","1","1","1200","660","response","f","yes","other",""
"","","","","","html-keyboard-response","22","842765","0.0-5.0-1.0-0.0-2.0-1.0-0.0-1.0-2.4","null","","null","<p style='font-size: 60px; color: green'>正确!</p>","","","","","","","","","","","","","","","","","","","","","","","","","","","","","","","","","","","","","","","","","","","","","","",""
"","","","","","html-keyboard-response","23","844281","0.0-5.0-1.0-0.0-2.0-1.0-0.0-1.0-0.5","null","fixation","null","<p style='font-size: 48px; color: white'>+</p >","","","","","","","","","","","","","","","","","","","","","","","","","","","","","","","","","","","","","","","","","","","","","","",""
"","","","","","rdk","24","846782","0.0-5.0-1.0-0.0-2.0-1.0-0.0-1.0-1.5","1496","match_RDK","f","","true","[""f"",""j""]","[""f""]","3000","true","2","[20,80]","1","0","0","0","5","1","-1","3","500","500","hsl(225, 50%, 50%)","hsl(0, 50%, 50%)","[""hsl(0, 50%, 50%)"",""hsl(225, 50%, 50%)""]","10","10","circle","black","3","2","2","16.855555555555554","[9,17,17,17,17,17,17,17,17,17,17,16,16,16,17,17,17,17,17,17,17,17,17,17,17,17,17,17,17,16,17,17,17,17,17,17,17,17,17,17,17,17,17,17,17,17,17,17,17,17,17,17,17,17,17,17,17,17,17,17,17,17,17,17,17,17,17,17,17,17,17,16,17,17,17,17,17,17,17,17,17,17,17,17,17,17,17,17,17,17]","90","600","250","false","20","20","black","1","false","1","1","1200","660","response","f","yes","self",""
"","","","","","html-keyboard-response","25","847798","0.0-5.0-1.0-0.0-2.0-1.0-0.0-1.0-2.5","null","","null","<p style='font-size: 60px; color: green'>正确!</p>","","","","","","","","","","","","","","","","","","","","","","","","","","","","","","","","","","","","","","","","","","","","","","",""
"","","","","","html-keyboard-response","26","849314","0.0-5.0-1.0-0.0-2.0-1.0-0.0-1.0-0.6","null","fixation","null","<p style='font-size: 48px; color: white'>+</p >","","","","","","","","","","","","","","","","","","","","","","","","","","","","","","","","","","","","","","","","","","","","","","",""
"","","","","","rdk","27","853054","0.0-5.0-1.0-0.0-2.0-1.0-0.0-1.0-1.6","2732","match_RDK","j","","true","[""f"",""j""]","[""j""]","3000","true","2","[80,20]","1","0","0","0","5","1","-1","3","500","500","hsl(225, 50%, 50%)","hsl(0, 50%, 50%)","[""hsl(225, 50%, 50%)"",""hsl(0, 50%, 50%)""]","10","10","circle","black","3","2","2","16.73170731707317","[6,16,17,17,17,16,17,17,17,17,16,17,16,17,16,17,17,17,17,17,17,17,16,17,17,17,16,17,17,17,17,17,17,17,17,17,17,17,16,17,16,17,16,17,17,15,18,16,16,17,17,17,17,17,17,17,17,17,17,17,17,16,16,17,17,17,17,17,17,17,17,17,17,17,17,16,17,17,17,16,17,17,17,17,17,16,17,17,17,17,17,17,17,17,17,17,16,17,17,16,17,17,17,17,17,17,16,16,17,16,17,16,17,16,17,17,17,17,17,17,16,17,16,17,16,17,17,17,17,17,16,17,17,16,17,17,17,17,17,16,17,17,17,17,17,17,17,17,17,17,16,17,17,17,16,17,17,17,17,17,17,17,17,17]","164","600","250","false","20","20","black","1","false","1","1","1200","660","response","j","no","other",""
"","","","","","html-keyboard-response","28","854066","0.0-5.0-1.0-0.0-2.0-1.0-0.0-1.0-2.6","null","","null","<p style='font-size: 60px; color: green'>正确!</p>","","","","","","","","","","","","","","","","","","","","","","","","","","","","","","","","","","","","","","","","","","","","","","",""
"","","","","","html-keyboard-response","29","855582","0.0-5.0-1.0-0.0-2.0-1.0-0.0-1.0-0.7","null","fixation","null","<p style='font-size: 48px; color: white'>+</p >","","","","","","","","","","","","","","","","","","","","","","","","","","","","","","","","","","","","","","","","","","","","","","",""
"","","","","","rdk","30","858141","0.0-5.0-1.0-0.0-2.0-1.0-0.0-1.0-1.7","1557","match_RDK","f","","false","[""f"",""j""]","[""j""]","3000","true","2","[80,20]","1","0","0","0","5","1","-1","3","500","500","hsl(225, 50%, 50%)","hsl(0, 50%, 50%)","[""hsl(0, 50%, 50%)"",""hsl(225, 50%, 50%)""]","10","10","circle","black","3","2","2","16.827956989247312","[10,18,17,17,16,17,17,17,17,17,17,17,17,17,17,17,17,17,17,17,17,17,17,17,17,17,17,17,17,17,17,17,17,17,16,17,17,17,17,17,17,17,17,17,17,16,17,16,17,17,17,17,17,17,17,17,17,16,16,17,17,17,17,17,16,17,17,17,16,17,17,17,17,17,17,17,17,17,17,17,17,17,17,17,17,17,17,17,17,17,17,16,16]","93","600","250","false","20","20","black","1","false","1","1","1200","660","response","j","no","self",""
"","","","","","html-keyboard-response","31","859165","0.0-5.0-1.0-0.0-2.0-1.0-0.0-1.0-2.7","null","","null","<p style='font-size: 60px; color: red'>错误!</p>","","","","","","","","","","","","","","","","","","","","","","","","","","","","","","","","","","","","","","","","","","","","","","",""
"","","","","","html-keyboard-response","32","860681","0.0-5.0-1.0-0.0-2.0-1.0-0.0-1.0-0.8","null","fixation","null","<p style='font-size: 48px; color: white'>+</p >","","","","","","","","","","","","","","","","","","","","","","","","","","","","","","","","","","","","","","","","","","","","","","",""
"","","","","","rdk","33","863805","0.0-5.0-1.0-0.0-2.0-1.0-0.0-1.0-1.8","2116","match_RDK","f","","true","[""f"",""j""]","[""f""]","3000","true","2","[80,20]","1","0","0","0","5","1","-1","3","500","500","hsl(225, 50%, 50%)","hsl(0, 50%, 50%)","[""hsl(0, 50%, 50%)"",""hsl(225, 50%, 50%)""]","10","10","circle","black","3","2","2","16.724409448818896","[6,18,16,17,17,17,17,17,17,16,16,17,17,17,17,16,17,16,17,17,16,17,16,17,17,17,16,17,17,17,16,17,17,17,17,17,16,17,17,16,17,17,17,17,17,17,17,17,16,17,17,17,17,16,17,17,17,17,17,17,17,17,16,17,17,17,16,17,17,17,17,17,17,17,17,16,17,17,17,17,17,17,17,17,16,17,16,17,17,17,17,17,17,17,17,17,17,16,16,17,17,17,17,17,16,17,17,17,17,17,16,17,16,17,17,17,17,17,17,17,16,17,17,17,17,17,16]","127","600","250","false","20","20","black","1","false","1","1","1200","660","response","f","yes","other",""
"","","","","","html-keyboard-response","34","864817","0.0-5.0-1.0-0.0-2.0-1.0-0.0-1.0-2.8","null","","null","<p style='font-size: 60px; color: green'>正确!</p>","","","","","","","","","","","","","","","","","","","","","","","","","","","","","","","","","","","","","","","","","","","","","","",""
"","","","","","html-keyboard-response","35","866333","0.0-5.0-1.0-0.0-2.0-1.0-0.0-1.0-0.9","null","fixation","null","<p style='font-size: 48px; color: white'>+</p >","","","","","","","","","","","","","","","","","","","","","","","","","","","","","","","","","","","","","","","","","","","","","","",""
"","","","","","rdk","36","868989","0.0-5.0-1.0-0.0-2.0-1.0-0.0-1.0-1.9","1638","match_RDK","j","","true","[""f"",""j""]","[""j""]","3000","true","2","[80,20]","1","0","0","0","5","1","-1","3","500","500","hsl(225, 50%, 50%)","hsl(0, 50%, 50%)","[""hsl(225, 50%, 50%)"",""hsl(0, 50%, 50%)""]","10","10","circle","black","3","2","2","16.79591836734694","[11,16,17,17,17,17,17,17,17,17,17,17,17,15,17,17,17,17,17,17,17,16,16,17,17,17,17,17,17,17,17,17,17,17,16,16,17,17,17,17,17,17,17,17,17,17,16,17,17,17,17,17,17,17,17,17,17,17,17,16,17,17,17,17,17,17,17,17,17,16,17,17,17,16,17,17,17,17,17,17,16,17,16,17,17,17,17,17,16,17,17,17,17,17,17,17,17,17]","98","600","250","false","20","20","black","1","false","1","1","1200","660","response","j","no","other",""
"","","","","","html-keyboard-response","37","870015","0.0-5.0-1.0-0.0-2.0-1.0-0.0-1.0-2.9","null","","null","<p style='font-size: 60px; color: green'>正确!</p>","","","","","","","","","","","","","","","","","","","","","","","","","","","","","","","","","","","","","","","","","","","","","","",""
"","","","","","html-keyboard-response","38","871533","0.0-5.0-1.0-0.0-2.0-1.0-0.0-1.0-0.10","null","fixation","null","<p style='font-size: 48px; color: white'>+</p >","","","","","","","","","","","","","","","","","","","","","","","","","","","","","","","","","","","","","","","","","","","","","","",""
"","","","","","rdk","39","874636","0.0-5.0-1.0-0.0-2.0-1.0-0.0-1.0-1.10","2095","match_RDK","j","","true","[""f"",""j""]","[""j""]","3000","true","2","[80,20]","1","0","0","0","5","1","-1","3","500","500","hsl(225, 50%, 50%)","hsl(0, 50%, 50%)","[""hsl(0, 50%, 50%)"",""hsl(225, 50%, 50%)""]","10","10","circle","black","3","2","2","16.761904761904763","[3,16,17,17,16,17,17,18,16,17,17,18,15,17,17,17,16,17,17,17,17,17,17,17,17,17,17,17,17,17,17,17,17,17,17,17,17,17,17,17,17,17,17,17,17,17,16,17,17,17,17,18,16,17,17,17,17,17,17,17,17,17,17,17,16,17,17,17,16,16,17,17,18,17,17,17,17,17,17,16,17,17,17,17,16,16,17,16,17,17,17,17,17,17,17,17,17,17,17,16,17,17,17,17,17,17,17,17,17,16,16,17,17,17,16,18,16,17,17,17,17,17,17,17,16,17]","126","600","250","false","20","20","black","1","false","1","1","1200","660","response","j","no","self",""
"","","","","","html-keyboard-response","40","875665","0.0-5.0-1.0-0.0-2.0-1.0-0.0-1.0-2.10","null","","null","<p style='font-size: 60px; color: green'>正确!</p>","","","","","","","","","","","","","","","","","","","","","","","","","","","","","","","","","","","","","","","","","","","","","","",""
"","","","","","html-keyboard-response","41","877183","0.0-5.0-1.0-0.0-2.0-1.0-0.0-1.0-0.11","null","fixation","null","<p style='font-size: 48px; color: white'>+</p >","","","","","","","","","","","","","","","","","","","","","","","","","","","","","","","","","","","","","","","","","","","","","","",""
"","","","","","rdk","42","880061","0.0-5.0-1.0-0.0-2.0-1.0-0.0-1.0-1.11","1861","match_RDK","f","","true","[""f"",""j""]","[""f""]","3000","true","2","[20,80]","1","0","0","0","5","1","-1","3","500","500","hsl(225, 50%, 50%)","hsl(0, 50%, 50%)","[""hsl(0, 50%, 50%)"",""hsl(225, 50%, 50%)""]","10","10","circle","black","3","2","2","16.81081081081081","[11,17,17,17,17,17,16,17,17,17,17,17,16,17,17,17,17,17,17,17,17,17,16,17,17,17,17,17,17,16,17,17,17,16,17,17,16,17,17,17,17,17,17,17,17,17,17,17,17,17,17,16,17,17,17,17,17,17,17,17,17,17,17,17,17,17,16,17,16,17,17,17,17,17,17,17,16,17,17,17,17,17,16,17,16,17,17,17,17,16,17,17,17,17,17,17,17,17,17,17,17,17,16,16,17,17,17,17,17,17,17]","111","600","250","false","20","20","black","1","false","1","1","1200","660","response","f","yes","self",""
"","","","","","html-keyboard-response","43","881081","0.0-5.0-1.0-0.0-2.0-1.0-0.0-1.0-2.11","null","","null","<p style='font-size: 60px; color: green'>正确!</p>","","","","","","","","","","","","","","","","","","","","","","","","","","","","","","","","","","","","","","","","","","","","","","",""
"","","","","","html-keyboard-response","44","882599","0.0-5.0-1.0-0.0-2.0-1.0-0.0-1.0-0.12","null","fixation","null","<p style='font-size: 48px; color: white'>+</p >","","","","","","","","","","","","","","","","","","","","","","","","","","","","","","","","","","","","","","","","","","","","","","",""
"","","","","","rdk","45","884942","0.0-5.0-1.0-0.0-2.0-1.0-0.0-1.0-1.12","1325","match_RDK","f","","true","[""f"",""j""]","[""f""]","3000","true","2","[80,20]","1","0","0","0","5","1","-1","3","500","500","hsl(225, 50%, 50%)","hsl(0, 50%, 50%)","[""hsl(0, 50%, 50%)"",""hsl(225, 50%, 50%)""]","10","10","circle","black","3","2","2","16.810126582278482","[11,17,17,17,17,17,17,17,17,17,17,17,17,17,17,16,17,17,17,17,17,16,17,16,17,17,17,16,17,17,17,17,17,17,16,17,17,17,17,17,17,17,17,17,16,17,17,17,17,17,17,17,17,17,17,17,17,17,17,17,17,17,17,17,16,17,17,17,16,17,16,17,17,17,17,17,17,17,17]","79","600","250","false","20","20","black","1","false","1","1","1200","660","response","f","yes","other",""
"","","","","","html-keyboard-response","46","885965","0.0-5.0-1.0-0.0-2.0-1.0-0.0-1.0-2.12","null","","null","<p style='font-size: 60px; color: green'>正确!</p>","","","","","","","","","","","","","","","","","","","","","","","","","","","","","","","","","","","","","","","","","","","","","","",""
"","","","","","html-keyboard-response","47","887481","0.0-5.0-1.0-0.0-2.0-1.0-0.0-1.0-0.13","null","fixation","null","<p style='font-size: 48px; color: white'>+</p >","","","","","","","","","","","","","","","","","","","","","","","","","","","","","","","","","","","","","","","","","","","","","","",""
"","","","","","rdk","48","890861","0.0-5.0-1.0-0.0-2.0-1.0-0.0-1.0-1.13","2377","match_RDK","j","","true","[""f"",""j""]","[""j""]","3000","true","2","[80,20]","1","0","0","0","5","1","-1","3","500","500","hsl(225, 50%, 50%)","hsl(0, 50%, 50%)","[""hsl(225, 50%, 50%)"",""hsl(0, 50%, 50%)""]","10","10","circle","black","3","2","2","16.830985915492956","[10,17,17,17,17,17,17,17,17,17,17,17,17,16,17,17,17,17,16,17,17,17,17,17,17,17,17,17,17,16,17,17,16,17,17,17,17,17,17,17,17,17,17,17,17,17,17,17,17,17,17,17,17,16,17,17,17,17,17,17,17,16,17,17,17,16,17,17,17,17,17,17,17,17,17,17,17,17,17,17,17,17,17,17,17,16,17,17,17,17,17,17,17,17,16,17,17,16,17,17,16,17,17,17,17,17,17,17,17,16,17,17,16,17,17,17,17,16,17,17,17,17,17,17,17,16,17,17,17,17,17,17,17,16,17,17,17,17,17,17,17,16]","142","600","250","false","20","20","black","1","false","1","1","1200","660","response","j","no","other",""
"","","","","","html-keyboard-response","49","891882","0.0-5.0-1.0-0.0-2.0-1.0-0.0-1.0-2.13","null","","null","<p style='font-size: 60px; color: green'>正确!</p>","","","","","","","","","","","","","","","","","","","","","","","","","","","","","","","","","","","","","","","","","","","","","","",""
"","","","","","html-keyboard-response","50","893401","0.0-5.0-1.0-0.0-2.0-1.0-0.0-1.0-0.14","null","fixation","null","<p style='font-size: 48px; color: white'>+</p >","","","","","","","","","","","","","","","","","","","","","","","","","","","","","","","","","","","","","","","","","","","","","","",""
"","","","","","rdk","51","895437","0.0-5.0-1.0-0.0-2.0-1.0-0.0-1.0-1.14","1021","match_RDK","f","","true","[""f"",""j""]","[""f""]","3000","true","2","[20,80]","1","0","0","0","5","1","-1","3","500","500","hsl(225, 50%, 50%)","hsl(0, 50%, 50%)","[""hsl(0, 50%, 50%)"",""hsl(225, 50%, 50%)""]","10","10","circle","black","3","2","2","16.885245901639344","[13,17,17,17,17,17,17,17,17,17,17,17,17,17,17,17,17,17,17,17,17,17,17,17,17,17,17,17,17,17,17,17,16,17,17,17,17,17,16,17,17,17,17,17,17,16,17,17,17,17,17,17,17,17,17,17,17,17,17,17,17]","61","600","250","false","20","20","black","1","false","1","1","1200","660","response","f","yes","self",""
"","","","","","html-keyboard-response","52","896465","0.0-5.0-1.0-0.0-2.0-1.0-0.0-1.0-2.14","null","","null","<p style='font-size: 60px; color: green'>正确!</p>","","","","","","","","","","","","","","","","","","","","","","","","","","","","","","","","","","","","","","","","","","","","","","",""
"","","","","","html-keyboard-response","53","897982","0.0-5.0-1.0-0.0-2.0-1.0-0.0-1.0-0.15","null","fixation","null","<p style='font-size: 48px; color: white'>+</p >","","","","","","","","","","","","","","","","","","","","","","","","","","","","","","","","","","","","","","","","","","","","","","",""
"","","","","","rdk","54","900221","0.0-5.0-1.0-0.0-2.0-1.0-0.0-1.0-1.15","1237","match_RDK","j","","true","[""f"",""j""]","[""j""]","3000","true","2","[80,20]","1","0","0","0","5","1","-1","3","500","500","hsl(225, 50%, 50%)","hsl(0, 50%, 50%)","[""hsl(0, 50%, 50%)"",""hsl(225, 50%, 50%)""]","10","10","circle","black","3","2","2","16.81081081081081","[9,18,17,17,16,17,17,17,17,17,16,17,17,17,17,17,17,17,17,17,17,17,17,17,17,16,17,17,17,17,17,17,17,17,17,17,18,16,17,17,17,16,17,17,16,17,17,17,17,17,17,17,17,17,16,17,17,17,16,17,17,17,17,17,17,17,17,17,17,17,17,17,17,17]","74","600","250","false","20","20","black","1","false","1","1","1200","660","response","j","no","self",""
"","","","","","html-keyboard-response","55","901249","0.0-5.0-1.0-0.0-2.0-1.0-0.0-1.0-2.15","null","","null","<p style='font-size: 60px; color: green'>正确!</p>","","","","","","","","","","","","","","","","","","","","","","","","","","","","","","","","","","","","","","","","","","","","","","",""
"","","","","","html-keyboard-response","56","902765","0.0-5.0-1.0-0.0-2.0-1.0-0.0-1.0-0.16","null","fixation","null","<p style='font-size: 48px; color: white'>+</p >","","","","","","","","","","","","","","","","","","","","","","","","","","","","","","","","","","","","","","","","","","","","","","",""
"","","","","","rdk","57","904670","0.0-5.0-1.0-0.0-2.0-1.0-0.0-1.0-1.16","898","match_RDK","f","","true","[""f"",""j""]","[""f""]","3000","true","2","[20,80]","1","0","0","0","5","1","-1","3","500","500","hsl(225, 50%, 50%)","hsl(0, 50%, 50%)","[""hsl(0, 50%, 50%)"",""hsl(225, 50%, 50%)""]","10","10","circle","black","3","2","2","16.62962962962963","[7,16,17,17,17,18,17,17,17,17,17,16,17,17,17,17,17,17,17,17,17,17,17,16,17,17,17,17,17,17,17,17,17,16,17,15,17,17,16,17,17,16,17,17,17,16,17,17,17,16,17,17,17,16]","54","600","250","false","20","20","black","1","false","1","1","1200","660","response","f","yes","self",""
"","","","","","html-keyboard-response","58","905699","0.0-5.0-1.0-0.0-2.0-1.0-0.0-1.0-2.16","null","","null","<p style='font-size: 60px; color: green'>正确!</p>","","","","","","","","","","","","","","","","","","","","","","","","","","","","","","","","","","","","","","","","","","","","","","",""
"","","","","","html-keyboard-response","59","907215","0.0-5.0-1.0-0.0-2.0-1.0-0.0-1.0-0.17","null","fixation","null","<p style='font-size: 48px; color: white'>+</p >","","","","","","","","","","","","","","","","","","","","","","","","","","","","","","","","","","","","","","","","","","","","","","",""
"","","","","","rdk","60","909630","0.0-5.0-1.0-0.0-2.0-1.0-0.0-1.0-1.17","1408","match_RDK","j","","true","[""f"",""j""]","[""j""]","3000","true","2","[80,20]","1","0","0","0","5","1","-1","3","500","500","hsl(225, 50%, 50%)","hsl(0, 50%, 50%)","[""hsl(225, 50%, 50%)"",""hsl(0, 50%, 50%)""]","10","10","circle","black","3","2","2","16.75","[4,16,17,17,17,17,17,17,17,17,16,16,17,17,17,17,18,16,17,17,17,17,17,17,17,17,17,17,17,17,16,17,17,16,17,17,17,17,17,17,17,17,17,17,17,17,17,17,17,17,17,17,17,17,17,17,16,17,17,17,16,17,17,16,17,17,17,17,17,17,17,17,17,17,17,17,17,17,17,17,17,17,17,17]","84","600","250","false","20","20","black","1","false","1","1","1200","660","response","j","no","other",""
"","","","","","html-keyboard-response","61","910649","0.0-5.0-1.0-0.0-2.0-1.0-0.0-1.0-2.17","null","","null","<p style='font-size: 60px; color: green'>正确!</p>","","","","","","","","","","","","","","","","","","","","","","","","","","","","","","","","","","","","","","","","","","","","","","",""
"","","","","","html-keyboard-response","62","912166","0.0-5.0-1.0-0.0-2.0-1.0-0.0-1.0-0.18","null","fixation","null","<p style='font-size: 48px; color: white'>+</p >","","","","","","","","","","","","","","","","","","","","","","","","","","","","","","","","","","","","","","","","","","","","","","",""
"","","","","","rdk","63","914428","0.0-5.0-1.0-0.0-2.0-1.0-0.0-1.0-1.18","1245","match_RDK","j","","true","[""f"",""j""]","[""j""]","3000","true","2","[80,20]","1","0","0","0","5","1","-1","3","500","500","hsl(225, 50%, 50%)","hsl(0, 50%, 50%)","[""hsl(0, 50%, 50%)"",""hsl(225, 50%, 50%)""]","10","10","circle","black","3","2","2","16.756756756756758","[11,17,17,17,17,17,17,17,17,17,17,17,17,17,17,17,17,17,16,17,17,17,17,17,16,17,17,17,17,16,17,16,17,16,17,17,17,16,17,17,16,16,17,17,17,17,16,17,16,17,17,17,17,17,17,17,17,17,17,17,17,17,17,17,17,16,17,17,17,17,16,17,17,17]","74","600","250","false","20","20","black","1","false","1","1","1200","660","response","j","no","self",""
"","","","","","html-keyboard-response","64","915449","0.0-5.0-1.0-0.0-2.0-1.0-0.0-1.0-2.18","null","","null","<p style='font-size: 60px; color: green'>正确!</p>","","","","","","","","","","","","","","","","","","","","","","","","","","","","","","","","","","","","","","","","","","","","","","",""
"","","","","","html-keyboard-response","65","916966","0.0-5.0-1.0-0.0-2.0-1.0-0.0-1.0-0.19","null","fixation","null","<p style='font-size: 48px; color: white'>+</p >","","","","","","","","","","","","","","","","","","","","","","","","","","","","","","","","","","","","","","","","","","","","","","",""
"","","","","","rdk","66","919325","0.0-5.0-1.0-0.0-2.0-1.0-0.0-1.0-1.19","1358","match_RDK","f","","true","[""f"",""j""]","[""f""]","3000","true","2","[80,20]","1","0","0","0","5","1","-1","3","500","500","hsl(225, 50%, 50%)","hsl(0, 50%, 50%)","[""hsl(0, 50%, 50%)"",""hsl(225, 50%, 50%)""]","10","10","circle","black","3","2","2","16.88888888888889","[12,17,17,17,17,17,17,17,17,17,17,17,17,17,17,16,17,17,17,17,17,17,17,17,17,17,17,17,17,17,17,17,17,16,17,17,17,17,17,16,17,17,17,17,16,17,17,17,17,17,17,17,17,17,17,17,17,17,17,17,17,17,17,17,17,17,17,17,17,17,17,17,17,17,17,17,17,17,17,17,17]","81","600","250","false","20","20","black","1","false","1","1","1200","660","response","f","yes","other",""
"","","","","","html-keyboard-response","67","920348","0.0-5.0-1.0-0.0-2.0-1.0-0.0-1.0-2.19","null","","null","<p style='font-size: 60px; color: green'>正确!</p>","","","","","","","","","","","","","","","","","","","","","","","","","","","","","","","","","","","","","","","","","","","","","","",""
"","","","","","html-keyboard-response","68","921865","0.0-5.0-1.0-0.0-2.0-1.0-0.0-1.0-0.20","null","fixation","null","<p style='font-size: 48px; color: white'>+</p >","","","","","","","","","","","","","","","","","","","","","","","","","","","","","","","","","","","","","","","","","","","","","","",""
"","","","","","rdk","69","925896","0.0-5.0-1.0-0.0-2.0-1.0-0.0-1.0-1.20","-1","match_RDK","","","false","[""f"",""j""]","[""f""]","3000","true","2","[80,20]","1","0","0","0","5","1","-1","3","500","500","hsl(225, 50%, 50%)","hsl(0, 50%, 50%)","[""hsl(0, 50%, 50%)"",""hsl(225, 50%, 50%)""]","10","10","circle","black","3","2","2","16.855555555555554","[12,17,17,17,16,17,16,17,17,17,17,17,17,16,17,17,17,17,17,17,17,17,16,17,17,17,17,17,17,17,17,17,17,17,17,17,17,17,17,17,17,17,17,17,17,17,16,17,17,17,17,17,17,17,16,17,17,17,17,17,17,17,17,17,16,16,17,17,17,17,17,17,17,17,17,17,17,17,16,17,17,17,17,17,17,16,17,17,16,16,17,17,17,17,17,17,17,16,16,17,17,17,17,17,17,17,17,17,17,17,17,17,17,17,17,17,17,17,17,17,17,17,17,17,17,17,17,17,17,17,17,17,17,17,17,17,17,17,17,17,17,17,17,17,16,17,17,17,17,17,17,17,17,17,17,17,17,17,16,17,17,17,17,17,17,17,16,17,17,17,16,17,17,17,16,17,16,17,17,16]","180","600","250","false","20","20","black","1","false","1","1","1200","660","response","f","yes","other",""
"","","","","","html-keyboard-response","70","926915","0.0-5.0-1.0-0.0-2.0-1.0-0.0-1.0-2.20","null","","null","<p style='font-size: 60px; color: yellow'>太慢!</p>","","","","","","","","","","","","","","","","","","","","","","","","","","","","","","","","","","","","","","","","","","","","","","",""
"","","","","","html-keyboard-response","71","928432","0.0-5.0-1.0-0.0-2.0-1.0-0.0-1.0-0.21","null","fixation","null","<p style='font-size: 48px; color: white'>+</p >","","","","","","","","","","","","","","","","","","","","","","","","","","","","","","","","","","","","","","","","","","","","","","",""
"","","","","","rdk","72","930654","0.0-5.0-1.0-0.0-2.0-1.0-0.0-1.0-1.21","1216","match_RDK","j","","true","[""f"",""j""]","[""j""]","3000","true","2","[80,20]","1","0","0","0","5","1","-1","3","500","500","hsl(225, 50%, 50%)","hsl(0, 50%, 50%)","[""hsl(0, 50%, 50%)"",""hsl(225, 50%, 50%)""]","10","10","circle","black","3","2","2","16.726027397260275","[7,16,17,17,17,17,17,17,16,17,17,17,17,17,17,17,17,17,17,17,17,17,17,17,16,17,17,17,16,17,17,17,17,16,17,17,17,17,17,17,17,16,17,17,17,17,17,17,17,17,17,17,17,17,17,16,17,17,17,17,17,17,16,17,17,16,17,17,17,17,17,17,16]","73","600","250","false","20","20","black","1","false","1","1","1200","660","response","j","no","self",""
"","","","","","html-keyboard-response","73","931681","0.0-5.0-1.0-0.0-2.0-1.0-0.0-1.0-2.21","null","","null","<p style='font-size: 60px; color: green'>正确!</p>","","","","","","","","","","","","","","","","","","","","","","","","","","","","","","","","","","","","","","","","","","","","","","",""
"","","","","","html-keyboard-response","74","933199","0.0-5.0-1.0-0.0-2.0-1.0-0.0-1.0-0.22","null","fixation","null","<p style='font-size: 48px; color: white'>+</p >","","","","","","","","","","","","","","","","","","","","","","","","","","","","","","","","","","","","","","","","","","","","","","",""
"","","","","","rdk","75","935261","0.0-5.0-1.0-0.0-2.0-1.0-0.0-1.0-1.22","1060","match_RDK","j","","true","[""f"",""j""]","[""j""]","3000","true","2","[80,20]","1","0","0","0","5","1","-1","3","500","500","hsl(225, 50%, 50%)","hsl(0, 50%, 50%)","[""hsl(225, 50%, 50%)"",""hsl(0, 50%, 50%)""]","10","10","circle","black","3","2","2","16.714285714285715","[10,17,17,17,17,17,17,17,17,16,16,17,17,17,17,17,17,17,17,17,17,16,17,17,17,17,17,17,17,17,17,16,17,17,17,17,17,17,17,17,17,17,16,17,16,17,17,17,16,17,17,16,17,17,17,17,16,16,16,17,17,17,17]","63","600","250","false","20","20","black","1","false","1","1","1200","660","response","j","no","other",""
"","","","","","html-keyboard-response","76","936281","0.0-5.0-1.0-0.0-2.0-1.0-0.0-1.0-2.22","null","","null","<p style='font-size: 60px; color: green'>正确!</p>","","","","","","","","","","","","","","","","","","","","","","","","","","","","","","","","","","","","","","","","","","","","","","",""
"","","","","","html-keyboard-response","77","937798","0.0-5.0-1.0-0.0-2.0-1.0-0.0-1.0-0.23","null","fixation","null","<p style='font-size: 48px; color: white'>+</p >","","","","","","","","","","","","","","","","","","","","","","","","","","","","","","","","","","","","","","","","","","","","","","",""
"","","","","","rdk","78","940046","0.0-5.0-1.0-0.0-2.0-1.0-0.0-1.0-1.23","1245","match_RDK","f","","true","[""f"",""j""]","[""f""]","3000","true","2","[20,80]","1","0","0","0","5","1","-1","3","500","500","hsl(225, 50%, 50%)","hsl(0, 50%, 50%)","[""hsl(0, 50%, 50%)"",""hsl(225, 50%, 50%)""]","10","10","circle","black","3","2","2","16.66216216216216","[10,19,16,17,17,17,17,17,16,17,17,17,17,16,17,17,17,17,16,17,17,16,17,17,16,17,16,17,17,17,16,16,17,16,17,17,17,17,17,17,16,16,17,17,17,16,17,16,17,16,17,17,17,17,17,17,16,17,17,17,17,16,17,17,16,16,17,17,17,17,17,17,16,17]","74","600","250","false","20","20","black","1","false","1","1","1200","660","response","f","yes","self",""
"","","","","","html-keyboard-response","79","941065","0.0-5.0-1.0-0.0-2.0-1.0-0.0-1.0-2.23","null","","null","<p style='font-size: 60px; color: green'>正确!</p>","","","","","","","","","","","","","","","","","","","","","","","","","","","","","","","","","","","","","","","","","","","","","","",""
"","","","","","html-keyboard-response","80","946412","0.0-5.0-1.0-0.0-2.0-1.0-0.0-3.0-0.0","4346","instruction_practiceEnd"," ","
    <div style=""text-align: center; color: white; padding: 30px; font-size: 30px"">
      <p>恭喜您完成练习，请按空格键进入正式任务。</p >
      <p> 正式任务仅在 每组 测试结束后提供反馈</p>
    </div>
    ","","","","","","","","","","","","","","","","","","","","","","","","","","","","","","","","","","","","","","","","","","","","","","",""
"","","","","","html-keyboard-response","81","949405","0.0-5.0-1.0-0.0-3.0-1.0-0.0-0.0","1988","instruction_match_formal"," ","
    <div style=""text-align: center; color: white; padding: 35px; font-size: 35px"">
      <p>请按下空格键开始【正式任务】</p >
    </div>
    ","","","","","","","","","","","","","","","","","","","","","","","","","","","","","","","","","","","","","","","","","","","","","","",""
"","","","","","html-keyboard-response","82","950916","0.0-5.0-1.0-0.0-3.0-1.0-0.0-1.0-0.0","null","fixation","null","<p style='font-size: 48px; color: white'>+</p >","","","","","","","","","","","","","","","","","","","","","","","","","","","","","","","","","","","","","","","","","","","","","","",""
"","","","","","rdk","83","952845","0.0-5.0-1.0-0.0-3.0-1.0-0.0-1.0-1.0","912","match_RDK","f","","true","[""f"",""j""]","[""f""]","3000","true","2","[20,80]","1","0","0","0","5","1","-1","3","500","500","hsl(225, 50%, 50%)","hsl(0, 50%, 50%)","[""hsl(0, 50%, 50%)"",""hsl(225, 50%, 50%)""]","10","10","circle","black","3","2","2","16.796296296296298","[11,17,17,17,17,17,17,17,17,16,17,17,17,16,17,17,17,17,17,17,17,17,17,17,17,17,17,17,17,17,17,17,17,17,17,17,17,16,17,17,17,17,17,17,17,17,16,17,17,17,17,17,17,16]","54","600","250","false","20","20","black","1","false","1","1","1200","660","response","f","yes","self",""
"","","","","","html-keyboard-response","84","953865","0.0-5.0-1.0-0.0-3.0-1.0-0.0-1.0-0.1","null","fixation","null","<p style='font-size: 48px; color: white'>+</p >","","","","","","","","","","","","","","","","","","","","","","","","","","","","","","","","","","","","","","","","","","","","","","",""
"","","","","","rdk","85","956461","0.0-5.0-1.0-0.0-3.0-1.0-0.0-1.0-1.1","1579","match_RDK","f","","true","[""f"",""j""]","[""f""]","3000","true","2","[80,20]","1","0","0","0","5","1","-1","3","500","500","hsl(225, 50%, 50%)","hsl(0, 50%, 50%)","[""hsl(0, 50%, 50%)"",""hsl(225, 50%, 50%)""]","10","10","circle","black","3","2","2","16.819148936170212","[12,17,17,17,17,17,17,16,17,17,17,17,17,16,17,17,17,16,17,17,17,17,17,17,17,17,17,17,17,17,17,17,17,17,17,17,17,17,17,17,16,17,17,17,16,17,17,16,17,17,17,17,17,17,16,17,17,17,17,17,17,16,17,17,16,17,16,17,17,17,17,17,17,17,17,16,17,17,17,17,16,17,17,17,17,17,17,17,17,17,17,17,17,17]","94","600","250","false","20","20","black","1","false","1","1","1200","660","response","f","yes","other",""
"","","","","","html-keyboard-response","86","957481","0.0-5.0-1.0-0.0-3.0-1.0-0.0-1.0-0.2","null","fixation","null","<p style='font-size: 48px; color: white'>+</p >","","","","","","","","","","","","","","","","","","","","","","","","","","","","","","","","","","","","","","","","","","","","","","",""
"","","","","","rdk","87","959709","0.0-5.0-1.0-0.0-3.0-1.0-0.0-1.0-1.2","1225","match_RDK","j","","true","[""f"",""j""]","[""j""]","3000","true","2","[80,20]","1","0","0","0","5","1","-1","3","500","500","hsl(225, 50%, 50%)","hsl(0, 50%, 50%)","[""hsl(0, 50%, 50%)"",""hsl(225, 50%, 50%)""]","10","10","circle","black","3","2","2","16.835616438356166","[10,17,17,17,17,17,17,17,17,17,17,16,17,17,17,17,17,17,17,17,16,17,17,17,17,17,17,17,17,17,17,17,17,17,17,17,17,17,17,17,17,17,17,16,17,17,17,17,17,17,17,17,17,17,17,17,16,17,17,17,17,17,16,17,17,17,17,17,17,17,17,17,17]","73","600","250","false","20","20","black","1","false","1","1","1200","660","response","j","no","self",""
"","","","","","html-keyboard-response","88","960732","0.0-5.0-1.0-0.0-3.0-1.0-0.0-1.0-0.3","null","fixation","null","<p style='font-size: 48px; color: white'>+</p >","","","","","","","","","","","","","","","","","","","","","","","","","","","","","","","","","","","","","","","","","","","","","","",""
"","","","","","rdk","89","962861","0.0-5.0-1.0-0.0-3.0-1.0-0.0-1.0-1.3","1111","match_RDK","j","","true","[""f"",""j""]","[""j""]","3000","true","2","[80,20]","1","0","0","0","5","1","-1","3","500","500","hsl(225, 50%, 50%)","hsl(0, 50%, 50%)","[""hsl(225, 50%, 50%)"",""hsl(0, 50%, 50%)""]","10","10","circle","black","3","2","2","16.833333333333332","[11,17,17,17,17,17,17,16,17,17,17,17,17,16,17,17,17,17,17,17,17,17,17,17,17,17,17,17,17,17,16,17,17,17,17,17,17,17,17,17,17,17,17,17,17,17,17,16,17,17,17,17,17,17,17,17,17,17,17,17,17,17,17,16,17,17]","66","600","250","false","20","20","black","1","false","1","1","1200","660","response","j","no","other",""
"","","","","","html-keyboard-response","90","963881","0.0-5.0-1.0-0.0-3.0-1.0-0.0-1.0-0.4","null","fixation","null","<p style='font-size: 48px; color: white'>+</p >","","","","","","","","","","","","","","","","","","","","","","","","","","","","","","","","","","","","","","","","","","","","","","",""
"","","","","","rdk","91","966237","0.0-5.0-1.0-0.0-3.0-1.0-0.0-1.0-1.4","1353","match_RDK","f","","true","[""f"",""j""]","[""f""]","3000","true","2","[80,20]","1","0","0","0","5","1","-1","3","500","500","hsl(225, 50%, 50%)","hsl(0, 50%, 50%)","[""hsl(0, 50%, 50%)"",""hsl(225, 50%, 50%)""]","10","10","circle","black","3","2","2","16.77777777777778","[10,17,17,17,17,17,17,17,16,17,17,16,17,17,16,17,16,16,17,17,17,17,17,17,17,17,17,17,17,17,17,17,17,17,17,17,17,16,17,17,16,17,17,17,17,17,16,17,17,17,17,17,17,17,17,17,17,17,17,17,17,17,17,17,17,17,17,17,17,17,17,17,16,17,17,17,17,17,16,17,16]","81","600","250","false","20","20","black","1","false","1","1","1200","660","response","f","yes","other",""
"","","","","","html-keyboard-response","92","967265","0.0-5.0-1.0-0.0-3.0-1.0-0.0-1.0-0.5","null","fixation","null","<p style='font-size: 48px; color: white'>+</p >","","","","","","","","","","","","","","","","","","","","","","","","","","","","","","","","","","","","","","","","","","","","","","",""
"","","","","","rdk","93","969341","0.0-5.0-1.0-0.0-3.0-1.0-0.0-1.0-1.5","1074","match_RDK","f","","true","[""f"",""j""]","[""f""]","3000","true","2","[20,80]","1","0","0","0","5","1","-1","3","500","500","hsl(225, 50%, 50%)","hsl(0, 50%, 50%)","[""hsl(0, 50%, 50%)"",""hsl(225, 50%, 50%)""]","10","10","circle","black","3","2","2","16.796875","[11,17,17,17,17,16,17,17,16,17,17,17,17,17,17,17,17,17,17,17,17,16,17,17,17,17,17,17,17,16,17,17,17,17,17,17,17,17,17,17,16,17,17,17,17,16,17,17,17,17,17,17,17,17,17,17,17,17,17,17,17,16,17,17]","64","600","250","false","20","20","black","1","false","1","1","1200","660","response","f","yes","self",""
"","","","","","html-keyboard-response","94","970365","0.0-5.0-1.0-0.0-3.0-1.0-0.0-1.0-0.6","null","fixation","null","<p style='font-size: 48px; color: white'>+</p >","","","","","","","","","","","","","","","","","","","","","","","","","","","","","","","","","","","","","","","","","","","","","","",""
"","","","","","rdk","95","973261","0.0-5.0-1.0-0.0-3.0-1.0-0.0-1.0-1.6","1894","match_RDK","j","","true","[""f"",""j""]","[""j""]","3000","true","2","[80,20]","1","0","0","0","5","1","-1","3","500","500","hsl(225, 50%, 50%)","hsl(0, 50%, 50%)","[""hsl(0, 50%, 50%)"",""hsl(225, 50%, 50%)""]","10","10","circle","black","3","2","2","16.84070796460177","[10,17,17,17,17,17,17,17,17,17,17,17,16,17,17,17,17,17,17,17,17,17,17,17,17,17,17,17,17,17,17,17,16,17,17,17,17,17,17,17,17,17,17,17,16,17,17,17,17,17,17,17,16,17,17,17,16,17,17,17,17,17,16,17,17,17,16,17,17,17,17,17,17,17,17,17,17,16,17,17,17,17,17,17,17,17,17,17,17,16,17,17,17,17,17,17,17,17,17,17,17,17,16,17,17,17,17,17,16,17,17,17,17]","113","600","250","false","20","20","black","1","false","1","1","1200","660","response","j","no","self",""
"","","","","","html-keyboard-response","96","974281","0.0-5.0-1.0-0.0-3.0-1.0-0.0-1.0-0.7","null","fixation","null","<p style='font-size: 48px; color: white'>+</p >","","","","","","","","","","","","","","","","","","","","","","","","","","","","","","","","","","","","","","","","","","","","","","",""
"","","","","","rdk","97","976364","0.0-5.0-1.0-0.0-3.0-1.0-0.0-1.0-1.7","1081","match_RDK","j","","true","[""f"",""j""]","[""j""]","3000","true","2","[80,20]","1","0","0","0","5","1","-1","3","500","500","hsl(225, 50%, 50%)","hsl(0, 50%, 50%)","[""hsl(225, 50%, 50%)"",""hsl(0, 50%, 50%)""]","10","10","circle","black","3","2","2","16.753846153846155","[9,18,16,17,17,17,17,17,17,16,17,17,17,17,17,17,16,17,17,17,17,17,17,17,17,17,17,17,17,16,17,17,17,17,17,17,17,17,17,17,17,16,17,16,17,17,17,17,17,17,17,17,17,17,16,17,16,17,18,16,17,16,18,16,17]","65","600","250","false","20","20","black","1","false","1","1","1200","660","response","j","no","other",""
"","","","","","html-keyboard-response","98","977381","0.0-5.0-1.0-0.0-3.0-1.0-0.0-1.0-0.8","null","fixation","null","<p style='font-size: 48px; color: white'>+</p >","","","","","","","","","","","","","","","","","","","","","","","","","","","","","","","","","","","","","","","","","","","","","","",""
"","","","","","rdk","99","979293","0.0-5.0-1.0-0.0-3.0-1.0-0.0-1.0-1.8","910","match_RDK","f","","true","[""f"",""j""]","[""f""]","3000","true","2","[20,80]","1","0","0","0","5","1","-1","3","500","500","hsl(225, 50%, 50%)","hsl(0, 50%, 50%)","[""hsl(0, 50%, 50%)"",""hsl(225, 50%, 50%)""]","10","10","circle","black","3","2","2","16.814814814814813","[12,17,17,17,17,17,17,17,17,17,16,17,17,17,17,17,17,17,17,16,17,17,17,17,17,17,17,17,17,17,17,16,17,17,17,17,17,17,17,17,16,17,17,17,17,17,17,17,17,17,17,17,17,16]","54","600","250","false","20","20","black","1","false","1","1","1200","660","response","f","yes","self",""
"","","","","","html-keyboard-response","100","980314","0.0-5.0-1.0-0.0-3.0-1.0-0.0-1.0-0.9","null","fixation","null","<p style='font-size: 48px; color: white'>+</p >","","","","","","","","","","","","","","","","","","","","","","","","","","","","","","","","","","","","","","","","","","","","","","",""
"","","","","","rdk","101","982269","0.0-5.0-1.0-0.0-3.0-1.0-0.0-1.0-1.9","951","match_RDK","j","","true","[""f"",""j""]","[""j""]","3000","true","2","[80,20]","1","0","0","0","5","1","-1","3","500","500","hsl(225, 50%, 50%)","hsl(0, 50%, 50%)","[""hsl(225, 50%, 50%)"",""hsl(0, 50%, 50%)""]","10","10","circle","black","3","2","2","16.82456140350877","[10,17,17,17,17,17,17,17,17,17,17,17,17,17,17,17,17,17,17,17,17,17,17,17,17,16,17,17,17,17,17,17,17,17,17,17,17,17,17,17,17,16,17,17,17,17,17,17,16,17,17,17,17,17,17,17,17]","57","600","250","false","20","20","black","1","false","1","1","1200","660","response","j","no","other",""
"","","","","","html-keyboard-response","102","983297","0.0-5.0-1.0-0.0-3.0-1.0-0.0-1.0-0.10","null","fixation","null","<p style='font-size: 48px; color: white'>+</p >","","","","","","","","","","","","","","","","","","","","","","","","","","","","","","","","","","","","","","","","","","","","","","",""
"","","","","","rdk","103","985469","0.0-5.0-1.0-0.0-3.0-1.0-0.0-1.0-1.10","1169","match_RDK","j","","true","[""f"",""j""]","[""j""]","3000","true","2","[80,20]","1","0","0","0","5","1","-1","3","500","500","hsl(225, 50%, 50%)","hsl(0, 50%, 50%)","[""hsl(0, 50%, 50%)"",""hsl(225, 50%, 50%)""]","10","10","circle","black","3","2","2","16.8","[10,17,17,17,17,17,17,17,17,17,17,17,16,17,17,17,17,17,17,16,16,16,17,17,16,17,17,17,16,17,17,17,17,17,17,17,17,17,17,17,17,17,17,17,18,16,17,17,17,17,17,17,17,17,17,17,17,17,17,17,17,17,17,17,17,17,17,17,16,17]","70","600","250","false","20","20","black","1","false","1","1","1200","660","response","j","no","self",""
"","","","","","html-keyboard-response","104","986498","0.0-5.0-1.0-0.0-3.0-1.0-0.0-1.0-0.11","null","fixation","null","<p style='font-size: 48px; color: white'>+</p >","","","","","","","","","","","","","","","","","","","","","","","","","","","","","","","","","","","","","","","","","","","","","","",""
"","","","","","rdk","105","988669","0.0-5.0-1.0-0.0-3.0-1.0-0.0-1.0-1.11","1169","match_RDK","f","","true","[""f"",""j""]","[""f""]","3000","true","2","[80,20]","1","0","0","0","5","1","-1","3","500","500","hsl(225, 50%, 50%)","hsl(0, 50%, 50%)","[""hsl(0, 50%, 50%)"",""hsl(225, 50%, 50%)""]","10","10","circle","black","3","2","2","16.857142857142858","[12,17,17,17,17,17,17,16,17,17,17,17,17,17,17,17,17,17,17,17,17,17,17,17,17,17,17,17,17,17,17,17,17,16,17,17,16,17,17,17,17,17,17,17,17,17,16,17,17,17,17,17,17,17,17,17,17,17,17,17,17,17,17,17,17,16,17,17,17,17]","70","600","250","false","20","20","black","1","false","1","1","1200","660","response","f","yes","other",""
"","","","","","html-keyboard-response","106","989682","0.0-5.0-1.0-0.0-3.0-1.0-0.0-1.0-0.12","null","fixation","null","<p style='font-size: 48px; color: white'>+</p >","","","","","","","","","","","","","","","","","","","","","","","","","","","","","","","","","","","","","","","","","","","","","","",""
"","","","","","rdk","107","991869","0.0-5.0-1.0-0.0-3.0-1.0-0.0-1.0-1.12","1170","match_RDK","j","","true","[""f"",""j""]","[""j""]","3000","true","2","[80,20]","1","0","0","0","5","1","-1","3","500","500","hsl(225, 50%, 50%)","hsl(0, 50%, 50%)","[""hsl(225, 50%, 50%)"",""hsl(0, 50%, 50%)""]","10","10","circle","black","3","2","2","16.857142857142858","[12,17,17,17,17,17,17,17,17,17,16,17,17,17,17,17,17,17,17,17,17,17,17,17,17,17,17,17,17,17,17,17,17,17,17,17,16,17,17,17,16,17,17,17,17,17,17,17,17,17,17,17,17,17,17,17,17,16,17,17,17,17,17,17,17,17,17,17,16,17]","70","600","250","false","20","20","black","1","false","1","1","1200","660","response","j","no","other",""
"","","","","","html-keyboard-response","108","992898","0.0-5.0-1.0-0.0-3.0-1.0-0.0-1.0-0.13","null","fixation","null","<p style='font-size: 48px; color: white'>+</p >","","","","","","","","","","","","","","","","","","","","","","","","","","","","","","","","","","","","","","","","","","","","","","",""
"","","","","","rdk","109","995036","0.0-5.0-1.0-0.0-3.0-1.0-0.0-1.0-1.13","1136","match_RDK","j","","true","[""f"",""j""]","[""j""]","3000","true","2","[80,20]","1","0","0","0","5","1","-1","3","500","500","hsl(225, 50%, 50%)","hsl(0, 50%, 50%)","[""hsl(0, 50%, 50%)"",""hsl(225, 50%, 50%)""]","10","10","circle","black","3","2","2","16.808823529411764","[10,17,17,17,16,17,17,17,17,17,17,17,17,17,17,17,17,17,17,17,17,17,17,17,17,17,17,16,16,17,17,17,17,17,17,17,17,17,17,17,17,17,17,17,17,17,17,17,17,17,17,17,17,17,17,17,17,16,17,17,17,17,17,17,17,17,16,16]","68","600","250","false","20","20","black","1","false","1","1","1200","660","response","j","no","self",""
"","","","","","html-keyboard-response","110","996064","0.0-5.0-1.0-0.0-3.0-1.0-0.0-1.0-0.14","null","fixation","null","<p style='font-size: 48px; color: white'>+</p >","","","","","","","","","","","","","","","","","","","","","","","","","","","","","","","","","","","","","","","","","","","","","","",""
"","","","","","rdk","111","998381","0.0-5.0-1.0-0.0-3.0-1.0-0.0-1.0-1.14","1314","match_RDK","f","","true","[""f"",""j""]","[""f""]","3000","true","2","[80,20]","1","0","0","0","5","1","-1","3","500","500","hsl(225, 50%, 50%)","hsl(0, 50%, 50%)","[""hsl(0, 50%, 50%)"",""hsl(225, 50%, 50%)""]","10","10","circle","black","3","2","2","16.746835443037973","[10,17,17,17,17,17,16,17,17,17,17,17,17,17,17,17,17,17,17,17,17,16,17,16,17,17,17,17,17,17,16,17,16,17,17,17,17,17,17,16,17,17,17,17,17,17,17,16,17,17,17,16,17,17,17,17,16,16,17,17,16,16,17,17,17,17,17,17,17,17,16,17,17,17,17,17,17,17,17]","79","600","250","false","20","20","black","1","false","1","1","1200","660","response","f","yes","other",""
"","","","","","html-keyboard-response","112","999398","0.0-5.0-1.0-0.0-3.0-1.0-0.0-1.0-0.15","null","fixation","null","<p style='font-size: 48px; color: white'>+</p >","","","","","","","","","","","","","","","","","","","","","","","","","","","","","","","","","","","","","","","","","","","","","","",""
"","","","","","rdk","113","1001741","0.0-5.0-1.0-0.0-3.0-1.0-0.0-1.0-1.15","1325","match_RDK","f","","true","[""f"",""j""]","[""f""]","3000","true","2","[20,80]","1","0","0","0","5","1","-1","3","500","500","hsl(225, 50%, 50%)","hsl(0, 50%, 50%)","[""hsl(0, 50%, 50%)"",""hsl(225, 50%, 50%)""]","10","10","circle","black","3","2","2","16.79746835443038","[11,18,16,17,17,17,17,17,16,17,17,17,17,16,17,17,17,17,17,17,17,17,16,17,17,17,17,17,17,17,17,17,17,17,17,17,17,17,16,17,17,17,17,17,17,17,16,17,17,17,17,16,17,17,17,17,17,17,17,17,16,17,17,16,17,17,17,17,17,16,17,17,17,17,17,17,17,16,17]","79","600","250","false","20","20","black","1","false","1","1","1200","660","response","f","yes","self",""
"","","","","","html-keyboard-response","114","1002765","0.0-5.0-1.0-0.0-3.0-1.0-0.0-1.0-0.16","null","fixation","null","<p style='font-size: 48px; color: white'>+</p >","","","","","","","","","","","","","","","","","","","","","","","","","","","","","","","","","","","","","","","","","","","","","","",""
"","","","","","rdk","115","1004798","0.0-5.0-1.0-0.0-3.0-1.0-0.0-1.0-1.16","1016","match_RDK","j","","true","[""f"",""j""]","[""j""]","3000","true","2","[80,20]","1","0","0","0","5","1","-1","3","500","500","hsl(225, 50%, 50%)","hsl(0, 50%, 50%)","[""hsl(0, 50%, 50%)"",""hsl(225, 50%, 50%)""]","10","10","circle","black","3","2","2","16.78688524590164","[11,17,17,17,17,17,17,17,17,17,17,16,17,17,17,17,17,17,17,17,17,16,17,16,17,17,17,17,17,16,17,17,17,17,16,16,17,17,17,17,17,17,17,17,17,17,17,17,17,17,17,17,17,16,16,17,17,17,17,17,18]","61","600","250","false","20","20","black","1","false","1","1","1200","660","response","j","no","self",""
"","","","","","html-keyboard-response","116","1005815","0.0-5.0-1.0-0.0-3.0-1.0-0.0-1.0-0.17","null","fixation","null","<p style='font-size: 48px; color: white'>+</p >","","","","","","","","","","","","","","","","","","","","","","","","","","","","","","","","","","","","","","","","","","","","","","",""
"","","","","","rdk","117","1008861","0.0-5.0-1.0-0.0-3.0-1.0-0.0-1.0-1.17","2037","match_RDK","f","","true","[""f"",""j""]","[""f""]","3000","true","2","[80,20]","1","0","0","0","5","1","-1","3","500","500","hsl(225, 50%, 50%)","hsl(0, 50%, 50%)","[""hsl(0, 50%, 50%)"",""hsl(225, 50%, 50%)""]","10","10","circle","black","3","2","2","16.75409836065574","[5,16,17,17,17,17,17,17,17,17,17,17,17,17,17,17,17,16,17,17,17,16,17,17,17,17,17,17,16,16,17,17,17,17,17,17,17,17,17,17,17,17,17,17,17,17,17,17,17,17,17,17,17,16,17,17,17,17,17,17,17,17,16,17,17,17,17,17,17,16,17,17,17,17,17,17,17,17,17,17,16,17,16,17,17,17,17,17,17,16,17,17,17,17,17,16,17,17,17,16,17,17,16,17,17,16,17,17,17,17,17,16,17,17,17,16,17,17,17,17,16,17]","122","600","250","false","20","20","black","1","false","1","1","1200","660","response","f","yes","other",""
"","","","","","html-keyboard-response","118","1009881","0.0-5.0-1.0-0.0-3.0-1.0-0.0-1.0-0.18","null","fixation","null","<p style='font-size: 48px; color: white'>+</p >","","","","","","","","","","","","","","","","","","","","","","","","","","","","","","","","","","","","","","","","","","","","","","",""
"","","","","","rdk","119","1011757","0.0-5.0-1.0-0.0-3.0-1.0-0.0-1.0-1.18","858","match_RDK","f","","true","[""f"",""j""]","[""f""]","3000","true","2","[20,80]","1","0","0","0","5","1","-1","3","500","500","hsl(225, 50%, 50%)","hsl(0, 50%, 50%)","[""hsl(0, 50%, 50%)"",""hsl(225, 50%, 50%)""]","10","10","circle","black","3","2","2","16.84313725490196","[12,17,17,17,17,17,17,17,17,17,17,17,17,17,17,17,17,17,17,17,17,17,16,17,17,17,17,17,17,17,17,17,17,17,17,17,16,17,17,17,17,18,17,17,17,17,16,17,17,16,17]","51","600","250","false","20","20","black","1","false","1","1","1200","660","response","f","yes","self",""
"","","","","","html-keyboard-response","120","1012781","0.0-5.0-1.0-0.0-3.0-1.0-0.0-1.0-0.19","null","fixation","null","<p style='font-size: 48px; color: white'>+</p >","","","","","","","","","","","","","","","","","","","","","","","","","","","","","","","","","","","","","","","","","","","","","","",""
"","","","","","rdk","121","1015133","0.0-5.0-1.0-0.0-3.0-1.0-0.0-1.0-1.19","1334","match_RDK","j","","true","[""f"",""j""]","[""j""]","3000","true","2","[80,20]","1","0","0","0","5","1","-1","3","500","500","hsl(225, 50%, 50%)","hsl(0, 50%, 50%)","[""hsl(225, 50%, 50%)"",""hsl(0, 50%, 50%)""]","10","10","circle","black","3","2","2","16.8","[12,17,17,17,17,17,17,17,17,17,16,17,17,17,17,17,17,17,16,17,17,17,16,17,17,17,17,17,17,17,17,16,17,17,16,17,17,17,17,17,17,17,16,17,17,17,17,17,17,17,16,17,17,17,17,17,17,17,16,17,16,17,16,17,17,17,17,17,16,17,17,17,17,17,17,17,17,17,17,17]","80","600","250","false","20","20","black","1","false","1","1","1200","660","response","j","no","other",""
"","","","","","html-keyboard-response","122","1016148","0.0-5.0-1.0-0.0-3.0-1.0-0.0-1.0-0.20","null","fixation","null","<p style='font-size: 48px; color: white'>+</p >","","","","","","","","","","","","","","","","","","","","","","","","","","","","","","","","","","","","","","","","","","","","","","",""
"","","","","","rdk","123","1018700","0.0-5.0-1.0-0.0-3.0-1.0-0.0-1.0-1.20","1548","match_RDK","j","","true","[""f"",""j""]","[""j""]","3000","true","2","[80,20]","1","0","0","0","5","1","-1","3","500","500","hsl(225, 50%, 50%)","hsl(0, 50%, 50%)","[""hsl(225, 50%, 50%)"",""hsl(0, 50%, 50%)""]","10","10","circle","black","3","2","2","16.763440860215052","[8,17,17,17,17,17,17,17,17,17,17,17,16,17,17,17,17,16,17,17,17,17,17,17,17,17,17,17,17,17,17,17,16,17,17,17,17,17,17,17,16,17,16,17,16,17,17,17,17,17,17,17,17,17,17,17,17,17,17,17,17,16,17,17,17,17,17,16,17,17,17,16,17,16,17,17,16,17,17,17,17,17,17,17,17,17,17,17,16,17,16,17,17]","93","600","250","false","20","20","black","1","false","1","1","1200","660","response","j","no","other",""
"","","","","","html-keyboard-response","124","1019714","0.0-5.0-1.0-0.0-3.0-1.0-0.0-1.0-0.21","null","fixation","null","<p style='font-size: 48px; color: white'>+</p >","","","","","","","","","","","","","","","","","","","","","","","","","","","","","","","","","","","","","","","","","","","","","","",""
"","","","","","rdk","125","1021757","0.0-5.0-1.0-0.0-3.0-1.0-0.0-1.0-1.21","1025","match_RDK","f","","true","[""f"",""j""]","[""f""]","3000","true","2","[20,80]","1","0","0","0","5","1","-1","3","500","500","hsl(225, 50%, 50%)","hsl(0, 50%, 50%)","[""hsl(0, 50%, 50%)"",""hsl(225, 50%, 50%)""]","10","10","circle","black","3","2","2","16.78688524590164","[12,17,17,17,17,17,17,17,17,16,17,17,17,17,16,17,17,17,16,17,17,17,17,17,17,17,17,17,17,17,17,17,17,17,16,17,17,17,16,17,17,17,17,17,17,16,17,17,17,17,16,17,17,17,17,17,17,17,16,17,17]","61","600","250","false","20","20","black","1","false","1","1","1200","660","response","f","yes","self",""
"","","","","","html-keyboard-response","126","1022781","0.0-5.0-1.0-0.0-3.0-1.0-0.0-1.0-0.22","null","fixation","null","<p style='font-size: 48px; color: white'>+</p >","","","","","","","","","","","","","","","","","","","","","","","","","","","","","","","","","","","","","","","","","","","","","","",""
"","","","","","rdk","127","1025117","0.0-5.0-1.0-0.0-3.0-1.0-0.0-1.0-1.22","1333","match_RDK","j","","true","[""f"",""j""]","[""j""]","3000","true","2","[80,20]","1","0","0","0","5","1","-1","3","500","500","hsl(225, 50%, 50%)","hsl(0, 50%, 50%)","[""hsl(0, 50%, 50%)"",""hsl(225, 50%, 50%)""]","10","10","circle","black","3","2","2","16.8125","[10,17,17,17,17,17,16,17,17,17,17,16,16,17,17,17,17,17,17,16,17,17,17,17,17,16,17,17,17,17,17,17,17,17,16,16,17,17,17,17,17,17,17,17,17,17,17,17,17,17,17,17,17,17,17,17,17,17,17,17,17,17,17,17,17,17,16,17,17,17,17,17,17,17,17,17,17,17,17,17]","80","600","250","false","20","20","black","1","false","1","1","1200","660","response","j","no","self",""
"","","","","","html-keyboard-response","128","1026148","0.0-5.0-1.0-0.0-3.0-1.0-0.0-1.0-0.23","null","fixation","null","<p style='font-size: 48px; color: white'>+</p >","","","","","","","","","","","","","","","","","","","","","","","","","","","","","","","","","","","","","","","","","","","","","","",""
"","","","","","rdk","129","1028399","0.0-5.0-1.0-0.0-3.0-1.0-0.0-1.0-1.23","1248","match_RDK","f","","true","[""f"",""j""]","[""f""]","3000","true","2","[80,20]","1","0","0","0","5","1","-1","3","500","500","hsl(225, 50%, 50%)","hsl(0, 50%, 50%)","[""hsl(0, 50%, 50%)"",""hsl(225, 50%, 50%)""]","10","10","circle","black","3","2","2","16.706666666666667","[9,17,17,17,17,17,17,17,17,17,17,16,17,16,17,17,17,17,17,17,17,17,16,17,17,17,17,17,17,17,17,16,17,16,17,17,17,17,16,17,17,17,16,17,17,16,17,17,16,17,17,17,17,17,17,16,17,17,17,17,16,17,17,17,16,16,17,16,17,17,17,17,17,17,17]","75","600","250","false","20","20","black","1","false","1","1","1200","660","response","f","yes","other",""
"","","","","","html-keyboard-response","130","1029414","0.0-5.0-1.0-0.0-3.0-1.0-0.0-1.0-0.24","null","fixation","null","<p style='font-size: 48px; color: white'>+</p >","","","","","","","","","","","","","","","","","","","","","","","","","","","","","","","","","","","","","","","","","","","","","","",""
"","","","","","rdk","131","1031565","0.0-5.0-1.0-0.0-3.0-1.0-0.0-1.0-1.24","1133","match_RDK","f","","true","[""f"",""j""]","[""f""]","3000","true","2","[80,20]","1","0","0","0","5","1","-1","3","500","500","hsl(225, 50%, 50%)","hsl(0, 50%, 50%)","[""hsl(0, 50%, 50%)"",""hsl(225, 50%, 50%)""]","10","10","circle","black","3","2","2","16.91176470588235","[12,17,17,17,17,17,17,17,17,17,17,16,17,17,17,17,17,17,17,17,17,17,17,17,17,17,17,17,17,17,17,17,17,17,17,17,17,17,17,17,17,17,17,17,17,17,17,17,17,17,17,17,17,17,17,17,17,17,17,17,17,17,17,17,17,17,17,17]","68","600","250","false","20","20","black","1","false","1","1","1200","660","response","f","yes","other",""
"","","","","","html-keyboard-response","132","1032581","0.0-5.0-1.0-0.0-3.0-1.0-0.0-1.0-0.25","null","fixation","null","<p style='font-size: 48px; color: white'>+</p >","","","","","","","","","","","","","","","","","","","","","","","","","","","","","","","","","","","","","","","","","","","","","","",""
"","","","","","rdk","133","1034733","0.0-5.0-1.0-0.0-3.0-1.0-0.0-1.0-1.25","1149","match_RDK","j","","true","[""f"",""j""]","[""j""]","3000","true","2","[80,20]","1","0","0","0","5","1","-1","3","500","500","hsl(225, 50%, 50%)","hsl(0, 50%, 50%)","[""hsl(0, 50%, 50%)"",""hsl(225, 50%, 50%)""]","10","10","circle","black","3","2","2","16.82608695652174","[10,17,17,17,17,17,17,17,17,17,16,16,17,17,17,17,17,17,17,17,16,17,17,16,17,17,17,17,17,17,17,17,17,17,17,17,17,17,17,17,17,16,17,17,17,17,17,17,17,17,17,17,17,17,17,17,17,17,17,17,17,17,17,17,17,17,17,17,17]","69","600","250","false","20","20","black","1","false","1","1","1200","660","response","j","no","self",""
"","","","","","html-keyboard-response","134","1035748","0.0-5.0-1.0-0.0-3.0-1.0-0.0-1.0-0.26","null","fixation","null","<p style='font-size: 48px; color: white'>+</p >","","","","","","","","","","","","","","","","","","","","","","","","","","","","","","","","","","","","","","","","","","","","","","",""
"","","","","","rdk","135","1037773","0.0-5.0-1.0-0.0-3.0-1.0-0.0-1.0-1.26","1018","match_RDK","j","","true","[""f"",""j""]","[""j""]","3000","true","2","[80,20]","1","0","0","0","5","1","-1","3","500","500","hsl(225, 50%, 50%)","hsl(0, 50%, 50%)","[""hsl(225, 50%, 50%)"",""hsl(0, 50%, 50%)""]","10","10","circle","black","3","2","2","16.62295081967213","[7,17,16,17,17,17,17,16,17,17,17,17,16,17,17,17,17,17,16,17,16,17,17,17,17,16,17,16,17,17,17,17,16,17,17,17,17,17,17,17,17,17,17,17,17,17,16,17,16,16,17,17,17,16,17,17,17,17,16,17,17]","61","600","250","false","20","20","black","1","false","1","1","1200","660","response","j","no","other",""
"","","","","","html-keyboard-response","136","1038798","0.0-5.0-1.0-0.0-3.0-1.0-0.0-1.0-0.27","null","fixation","null","<p style='font-size: 48px; color: white'>+</p >","","","","","","","","","","","","","","","","","","","","","","","","","","","","","","","","","","","","","","","","","","","","","","",""
"","","","","","rdk","137","1041054","0.0-5.0-1.0-0.0-3.0-1.0-0.0-1.0-1.27","1253","match_RDK","f","","true","[""f"",""j""]","[""f""]","3000","true","2","[20,80]","1","0","0","0","5","1","-1","3","500","500","hsl(225, 50%, 50%)","hsl(0, 50%, 50%)","[""hsl(0, 50%, 50%)"",""hsl(225, 50%, 50%)""]","10","10","circle","black","3","2","2","16.706666666666667","[11,17,17,16,17,16,17,17,17,17,17,17,17,17,17,17,17,17,17,17,17,17,17,16,17,17,17,16,17,17,16,16,17,17,17,17,17,17,17,16,17,17,17,17,16,17,16,17,16,17,17,17,17,17,16,17,17,17,17,17,16,17,17,17,16,17,16,17,16,17,16,17,17,17,17]","75","600","250","false","20","20","black","1","false","1","1","1200","660","response","f","yes","self",""
"","","","","","html-keyboard-response","138","1042082","0.0-5.0-1.0-0.0-3.0-1.0-0.0-1.0-0.28","null","fixation","null","<p style='font-size: 48px; color: white'>+</p >","","","","","","","","","","","","","","","","","","","","","","","","","","","","","","","","","","","","","","","","","","","","","","",""
"","","","","","rdk","139","1043966","0.0-5.0-1.0-0.0-3.0-1.0-0.0-1.0-1.28","878","match_RDK","f","","true","[""f"",""j""]","[""f""]","3000","true","2","[20,80]","1","0","0","0","5","1","-1","3","500","500","hsl(225, 50%, 50%)","hsl(0, 50%, 50%)","[""hsl(0, 50%, 50%)"",""hsl(225, 50%, 50%)""]","10","10","circle","black","3","2","2","16.735849056603772","[7,17,17,17,17,17,17,17,17,16,17,17,17,17,17,17,17,17,17,17,17,17,17,17,17,17,17,17,17,17,17,17,17,17,17,16,17,17,16,17,17,17,17,17,17,17,17,17,17,17,17,16,17]","53","600","250","false","20","20","black","1","false","1","1","1200","660","response","f","yes","self",""
"","","","","","html-keyboard-response","140","1044982","0.0-5.0-1.0-0.0-3.0-1.0-0.0-1.0-0.29","null","fixation","null","<p style='font-size: 48px; color: white'>+</p >","","","","","","","","","","","","","","","","","","","","","","","","","","","","","","","","","","","","","","","","","","","","","","",""
"","","","","","rdk","141","1047149","0.0-5.0-1.0-0.0-3.0-1.0-0.0-1.0-1.29","1164","match_RDK","j","","true","[""f"",""j""]","[""j""]","3000","true","2","[80,20]","1","0","0","0","5","1","-1","3","500","500","hsl(225, 50%, 50%)","hsl(0, 50%, 50%)","[""hsl(225, 50%, 50%)"",""hsl(0, 50%, 50%)""]","10","10","circle","black","3","2","2","16.771428571428572","[9,17,17,17,17,17,17,17,17,17,17,17,17,17,17,17,17,17,17,17,16,17,17,17,17,17,17,17,17,17,17,16,17,17,17,17,17,17,17,17,17,17,17,17,16,17,17,16,17,17,17,17,17,17,17,17,17,16,17,16,17,17,17,17,17,17,16,17,16,17]","70","600","250","false","20","20","black","1","false","1","1","1200","660","response","j","no","other",""
"","","","","","html-keyboard-response","142","1048165","0.0-5.0-1.0-0.0-3.0-1.0-0.0-1.0-0.30","null","fixation","null","<p style='font-size: 48px; color: white'>+</p >","","","","","","","","","","","","","","","","","","","","","","","","","","","","","","","","","","","","","","","","","","","","","","",""
"","","","","","rdk","143","1050334","0.0-5.0-1.0-0.0-3.0-1.0-0.0-1.0-1.30","1166","match_RDK","j","","true","[""f"",""j""]","[""j""]","3000","true","2","[80,20]","1","0","0","0","5","1","-1","3","500","500","hsl(225, 50%, 50%)","hsl(0, 50%, 50%)","[""hsl(0, 50%, 50%)"",""hsl(225, 50%, 50%)""]","10","10","circle","black","3","2","2","16.742857142857144","[10,17,17,17,17,17,16,17,17,17,17,17,17,16,17,17,17,17,17,17,17,16,17,17,16,17,17,16,17,17,17,17,17,17,17,17,17,16,17,17,16,17,16,17,17,17,16,17,17,17,17,17,17,17,17,17,17,17,17,17,17,16,17,17,17,17,17,17,17,16]","70","600","250","false","20","20","black","1","false","1","1","1200","660","response","j","no","self",""
"","","","","","html-keyboard-response","144","1051365","0.0-5.0-1.0-0.0-3.0-1.0-0.0-1.0-0.31","null","fixation","null","<p style='font-size: 48px; color: white'>+</p >","","","","","","","","","","","","","","","","","","","","","","","","","","","","","","","","","","","","","","","","","","","","","","",""
"","","","","","rdk","145","1053789","0.0-5.0-1.0-0.0-3.0-1.0-0.0-1.0-1.31","1422","match_RDK","f","","true","[""f"",""j""]","[""f""]","3000","true","2","[80,20]","1","0","0","0","5","1","-1","3","500","500","hsl(225, 50%, 50%)","hsl(0, 50%, 50%)","[""hsl(0, 50%, 50%)"",""hsl(225, 50%, 50%)""]","10","10","circle","black","3","2","2","16.71764705882353","[10,17,17,17,16,17,17,17,17,17,17,16,17,17,17,17,17,16,17,17,16,17,17,17,17,17,16,17,17,17,17,17,17,17,16,17,17,17,17,17,17,17,17,16,17,17,17,17,17,17,17,17,16,17,16,17,17,16,17,17,17,16,17,17,16,17,16,17,17,16,17,17,17,17,17,17,17,17,17,16,17,17,16,17,16]","85","600","250","false","20","20","black","1","false","1","1","1200","660","response","f","yes","other",""
"","","","","","html-keyboard-response","146","1054815","0.0-5.0-1.0-0.0-3.0-1.0-0.0-1.0-0.32","null","fixation","null","<p style='font-size: 48px; color: white'>+</p >","","","","","","","","","","","","","","","","","","","","","","","","","","","","","","","","","","","","","","","","","","","","","","",""
"","","","","","rdk","147","1056799","0.0-5.0-1.0-0.0-3.0-1.0-0.0-1.0-1.32","976","match_RDK","j","","true","[""f"",""j""]","[""j""]","3000","true","2","[80,20]","1","0","0","0","5","1","-1","3","500","500","hsl(225, 50%, 50%)","hsl(0, 50%, 50%)","[""hsl(225, 50%, 50%)"",""hsl(0, 50%, 50%)""]","10","10","circle","black","3","2","2","16.559322033898304","[5,17,17,16,17,18,16,17,16,16,17,17,17,17,17,17,17,17,17,17,17,16,17,16,17,17,17,16,17,16,17,16,17,16,17,17,17,17,17,16,17,16,17,17,16,17,17,17,17,17,17,17,16,17,17,16,17,16,18]","59","600","250","false","20","20","black","1","false","1","1","1200","660","response","j","no","other",""
"","","","","","html-keyboard-response","148","1057815","0.0-5.0-1.0-0.0-3.0-1.0-0.0-1.0-0.33","null","fixation","null","<p style='font-size: 48px; color: white'>+</p >","","","","","","","","","","","","","","","","","","","","","","","","","","","","","","","","","","","","","","","","","","","","","","",""
"","","","","","rdk","149","1060317","0.0-5.0-1.0-0.0-3.0-1.0-0.0-1.0-1.33","1501","match_RDK","f","","true","[""f"",""j""]","[""f""]","3000","true","2","[20,80]","1","0","0","0","5","1","-1","3","500","500","hsl(225, 50%, 50%)","hsl(0, 50%, 50%)","[""hsl(0, 50%, 50%)"",""hsl(225, 50%, 50%)""]","10","10","circle","black","3","2","2","16.833333333333332","[13,17,17,16,17,17,17,17,17,16,17,17,17,17,17,17,17,17,16,17,17,17,17,17,17,17,17,16,17,16,17,17,17,17,17,16,17,17,17,17,17,17,17,17,17,16,17,17,17,17,17,17,17,17,17,17,17,16,17,16,17,17,17,17,18,16,17,16,17,17,17,17,17,17,17,17,17,17,17,17,17,17,17,17,17,17,17,16,17,17]","90","600","250","false","20","20","black","1","false","1","1","1200","660","response","f","yes","self",""
"","","","","","html-keyboard-response","150","1061348","0.0-5.0-1.0-0.0-3.0-1.0-0.0-1.0-0.34","null","fixation","null","<p style='font-size: 48px; color: white'>+</p >","","","","","","","","","","","","","","","","","","","","","","","","","","","","","","","","","","","","","","","","","","","","","","",""
"","","","","","rdk","151","1063454","0.0-5.0-1.0-0.0-3.0-1.0-0.0-1.0-1.34","1088","match_RDK","j","","true","[""f"",""j""]","[""j""]","3000","true","2","[80,20]","1","0","0","0","5","1","-1","3","500","500","hsl(225, 50%, 50%)","hsl(0, 50%, 50%)","[""hsl(0, 50%, 50%)"",""hsl(225, 50%, 50%)""]","10","10","circle","black","3","2","2","16.815384615384616","[12,17,17,17,17,17,17,17,17,17,17,16,17,17,17,17,17,17,17,17,17,17,16,17,17,17,17,17,17,17,17,16,17,17,17,17,17,17,16,17,17,17,17,16,17,17,17,17,17,17,17,17,17,17,17,17,17,17,17,17,16,17,17,17,16]","65","600","250","false","20","20","black","1","false","1","1","1200","660","response","j","no","self",""
"","","","","","html-keyboard-response","152","1064467","0.0-5.0-1.0-0.0-3.0-1.0-0.0-1.0-0.35","null","fixation","null","<p style='font-size: 48px; color: white'>+</p >","","","","","","","","","","","","","","","","","","","","","","","","","","","","","","","","","","","","","","","","","","","","","","",""
"","","","","","rdk","153","1066799","0.0-5.0-1.0-0.0-3.0-1.0-0.0-1.0-1.35","1317","match_RDK","f","","true","[""f"",""j""]","[""f""]","3000","true","2","[80,20]","1","0","0","0","5","1","-1","3","500","500","hsl(225, 50%, 50%)","hsl(0, 50%, 50%)","[""hsl(0, 50%, 50%)"",""hsl(225, 50%, 50%)""]","10","10","circle","black","3","2","2","16.860759493670887","[12,17,17,17,17,17,17,17,17,17,17,17,17,17,17,17,16,17,17,17,16,17,17,17,17,17,17,16,16,17,17,17,17,17,17,17,17,17,17,17,17,17,17,17,17,17,17,17,17,17,17,17,17,17,16,17,17,17,17,17,17,17,17,17,16,16,17,17,17,17,17,17,17,17,17,17,17,17,18]","79","600","250","false","20","20","black","1","false","1","1","1200","660","response","f","yes","other",""
"","","","","","html-keyboard-response","154","1067815","0.0-5.0-1.0-0.0-3.0-1.0-0.0-1.0-0.36","null","fixation","null","<p style='font-size: 48px; color: white'>+</p >","","","","","","","","","","","","","","","","","","","","","","","","","","","","","","","","","","","","","","","","","","","","","","",""
"","","","","","rdk","155","1069933","0.0-5.0-1.0-0.0-3.0-1.0-0.0-1.0-1.36","1116","match_RDK","f","","true","[""f"",""j""]","[""f""]","3000","true","2","[80,20]","1","0","0","0","5","1","-1","3","500","500","hsl(225, 50%, 50%)","hsl(0, 50%, 50%)","[""hsl(0, 50%, 50%)"",""hsl(225, 50%, 50%)""]","10","10","circle","black","3","2","2","16.791044776119403","[10,17,16,17,17,17,17,16,17,17,17,17,17,17,17,16,17,17,17,17,17,17,17,17,17,17,17,16,16,17,17,17,17,17,17,17,17,17,17,17,17,17,17,17,17,17,17,17,17,17,17,16,17,17,17,17,17,16,17,17,17,17,17,17,17,17,17]","67","600","250","false","20","20","black","1","false","1","1","1200","660","response","f","yes","other",""
"","","","","","html-keyboard-response","156","1070948","0.0-5.0-1.0-0.0-3.0-1.0-0.0-1.0-0.37","null","fixation","null","<p style='font-size: 48px; color: white'>+</p >","","","","","","","","","","","","","","","","","","","","","","","","","","","","","","","","","","","","","","","","","","","","","","",""
"","","","","","rdk","157","1073341","0.0-5.0-1.0-0.0-3.0-1.0-0.0-1.0-1.37","1390","match_RDK","j","","true","[""f"",""j""]","[""j""]","3000","true","2","[80,20]","1","0","0","0","5","1","-1","3","500","500","hsl(225, 50%, 50%)","hsl(0, 50%, 50%)","[""hsl(225, 50%, 50%)"",""hsl(0, 50%, 50%)""]","10","10","circle","black","3","2","2","16.80722891566265","[9,17,16,17,17,16,17,17,17,16,17,17,17,17,17,17,17,17,17,17,17,17,17,16,17,17,17,17,17,17,17,17,17,17,17,17,16,17,17,16,16,17,17,17,17,17,17,17,17,17,17,17,17,17,17,17,17,17,17,17,17,17,17,17,17,17,17,17,17,16,17,17,17,17,17,17,17,17,17,17,17,17,17]","83","600","250","false","20","20","black","1","false","1","1","1200","660","response","j","no","other",""
"","","","","","html-keyboard-response","158","1074365","0.0-5.0-1.0-0.0-3.0-1.0-0.0-1.0-0.38","null","fixation","null","<p style='font-size: 48px; color: white'>+</p >","","","","","","","","","","","","","","","","","","","","","","","","","","","","","","","","","","","","","","","","","","","","","","",""
"","","","","","rdk","159","1076701","0.0-5.0-1.0-0.0-3.0-1.0-0.0-1.0-1.38","1330","match_RDK","j","","false","[""f"",""j""]","[""f""]","3000","true","2","[20,80]","1","0","0","0","5","1","-1","3","500","500","hsl(225, 50%, 50%)","hsl(0, 50%, 50%)","[""hsl(0, 50%, 50%)"",""hsl(225, 50%, 50%)""]","10","10","circle","black","3","2","2","16.6375","[7,16,17,17,17,17,17,17,17,17,17,17,16,16,17,17,17,16,17,17,17,17,17,17,16,17,17,16,17,17,16,17,16,16,17,17,17,16,17,17,17,16,17,17,17,16,17,16,17,17,17,16,17,17,17,16,17,16,17,16,17,17,17,17,17,16,17,17,17,17,17,17,17,17,17,17,17,16,17,17]","80","600","250","false","20","20","black","1","false","1","1","1200","660","response","f","yes","self",""
"","","","","","html-keyboard-response","160","1077732","0.0-5.0-1.0-0.0-3.0-1.0-0.0-1.0-0.39","null","fixation","null","<p style='font-size: 48px; color: white'>+</p >","","","","","","","","","","","","","","","","","","","","","","","","","","","","","","","","","","","","","","","","","","","","","","",""
"","","","","","rdk","161","1080125","0.0-5.0-1.0-0.0-3.0-1.0-0.0-1.0-1.39","1391","match_RDK","j","","true","[""f"",""j""]","[""j""]","3000","true","2","[80,20]","1","0","0","0","5","1","-1","3","500","500","hsl(225, 50%, 50%)","hsl(0, 50%, 50%)","[""hsl(0, 50%, 50%)"",""hsl(225, 50%, 50%)""]","10","10","circle","black","3","2","2","16.759036144578314","[10,18,15,17,17,17,17,17,17,17,16,17,16,17,17,16,17,17,17,17,17,17,16,17,17,17,17,17,17,16,17,17,17,17,17,17,17,17,17,16,17,17,17,17,16,17,17,17,17,16,17,17,17,17,17,17,17,17,17,17,17,16,17,17,17,17,17,17,17,16,16,17,18,16,17,17,17,16,17,17,17,17,17]","83","600","250","false","20","20","black","1","false","1","1","1200","660","response","j","no","self",""
"","","","","","html-keyboard-response","162","1083648","0.0-5.0-1.0-0.0-3.0-1.0-0.0-2.0","null","","null","<p style='font-size: 35px; color: white'>这组测试中，您正确回答了： 98% 的试次。平均反应时为：1227毫秒。</p>","","","","","","","","","","","","","","","","","","","","","","","","","","","","","","","","","","","","","","","","","","","","","","",""
"","","","","","html-keyboard-response","163","1085565","0.0-5.0-1.0-0.0-3.0-1.0-0.0-3.0","916","instruction_rest"," ","
    <div style=""text-align: center; color: white; padding: 35px; font-size: 35px"">
      <p>请休息一下，若准备好可按空格键继续</p >
    </div>
    ","","","","","","","","","","","","","","","","","","","","","","","","","","","","","","","","","","","","","","","","","","","","","","",""
"","","","","","html-keyboard-response","164","1087083","0.0-5.0-1.0-0.0-3.0-1.0-0.0-4.0-0.0","null","fixation","null","<p style='font-size: 48px; color: white'>+</p >","","","","","","","","","","","","","","","","","","","","","","","","","","","","","","","","","","","","","","","","","","","","","","",""
"","","","","","rdk","165","1089199","0.0-5.0-1.0-0.0-3.0-1.0-0.0-4.0-1.0","1099","match_RDK","j","","true","[""f"",""j""]","[""j""]","3000","true","2","[80,20]","1","0","0","0","5","1","-1","3","500","500","hsl(225, 50%, 50%)","hsl(0, 50%, 50%)","[""hsl(225, 50%, 50%)"",""hsl(0, 50%, 50%)""]","10","10","circle","black","3","2","2","16.848484848484848","[12,17,17,17,17,17,17,17,16,17,17,17,17,17,17,17,17,17,17,17,17,17,17,16,17,17,17,17,17,17,17,16,17,17,17,16,17,17,17,17,17,17,17,17,17,17,17,17,16,17,17,17,17,17,17,17,17,17,17,16,17,17,17,17,17,18]","66","600","250","false","20","20","black","1","false","1","1","1200","660","response","j","no","other",""
"","","","","","html-keyboard-response","166","1090215","0.0-5.0-1.0-0.0-3.0-1.0-0.0-4.0-0.1","null","fixation","null","<p style='font-size: 48px; color: white'>+</p >","","","","","","","","","","","","","","","","","","","","","","","","","","","","","","","","","","","","","","","","","","","","","","",""
"","","","","","rdk","167","1092493","0.0-5.0-1.0-0.0-3.0-1.0-0.0-4.0-1.1","1275","match_RDK","j","","true","[""f"",""j""]","[""j""]","3000","true","2","[80,20]","1","0","0","0","5","1","-1","3","500","500","hsl(225, 50%, 50%)","hsl(0, 50%, 50%)","[""hsl(0, 50%, 50%)"",""hsl(225, 50%, 50%)""]","10","10","circle","black","3","2","2","16.789473684210527","[9,17,17,17,17,17,17,17,17,17,17,16,17,17,17,17,17,17,17,17,17,17,17,17,17,17,17,17,17,17,17,17,17,16,17,17,17,17,17,17,17,17,17,17,17,17,16,17,17,16,17,16,17,17,17,17,17,17,17,16,17,17,17,16,17,17,17,17,17,17,17,17,17,16,17,17]","76","600","250","false","20","20","black","1","false","1","1","1200","660","response","j","no","self",""
"","","","","","html-keyboard-response","168","1093515","0.0-5.0-1.0-0.0-3.0-1.0-0.0-4.0-0.2","null","fixation","null","<p style='font-size: 48px; color: white'>+</p >","","","","","","","","","","","","","","","","","","","","","","","","","","","","","","","","","","","","","","","","","","","","","","",""
"","","","","","rdk","169","1095582","0.0-5.0-1.0-0.0-3.0-1.0-0.0-4.0-1.2","1065","match_RDK","f","","true","[""f"",""j""]","[""f""]","3000","true","2","[80,20]","1","0","0","0","5","1","-1","3","500","500","hsl(225, 50%, 50%)","hsl(0, 50%, 50%)","[""hsl(0, 50%, 50%)"",""hsl(225, 50%, 50%)""]","10","10","circle","black","3","2","2","16.8125","[12,17,17,17,17,17,17,17,17,17,17,17,16,17,17,17,17,17,17,16,17,16,17,17,17,17,17,16,17,17,17,17,17,17,17,17,16,17,17,17,17,17,17,17,17,16,16,17,17,17,17,17,17,17,17,17,17,17,17,17,17,17,17,17]","64","600","250","false","20","20","black","1","false","1","1","1200","660","response","f","yes","other",""
"","","","","","html-keyboard-response","170","1096599","0.0-5.0-1.0-0.0-3.0-1.0-0.0-4.0-0.3","null","fixation","null","<p style='font-size: 48px; color: white'>+</p >","","","","","","","","","","","","","","","","","","","","","","","","","","","","","","","","","","","","","","","","","","","","","","",""
"","","","","","rdk","171","1098621","0.0-5.0-1.0-0.0-3.0-1.0-0.0-4.0-1.3","1011","match_RDK","f","","true","[""f"",""j""]","[""f""]","3000","true","2","[20,80]","1","0","0","0","5","1","-1","3","500","500","hsl(225, 50%, 50%)","hsl(0, 50%, 50%)","[""hsl(0, 50%, 50%)"",""hsl(225, 50%, 50%)""]","10","10","circle","black","3","2","2","16.60655737704918","[2,16,17,16,17,17,16,17,17,17,17,17,16,17,17,16,16,17,17,17,16,17,17,17,17,17,17,17,17,17,17,17,17,17,17,17,17,17,17,17,17,17,17,17,17,17,17,17,16,17,17,16,17,17,17,17,17,17,17,17,17]","61","600","250","false","20","20","black","1","false","1","1","1200","660","response","f","yes","self",""
"","","","","","html-keyboard-response","172","1099648","0.0-5.0-1.0-0.0-3.0-1.0-0.0-4.0-0.4","null","fixation","null","<p style='font-size: 48px; color: white'>+</p >","","","","","","","","","","","","","","","","","","","","","","","","","","","","","","","","","","","","","","","","","","","","","","",""
"","","","","","rdk","173","1101837","0.0-5.0-1.0-0.0-3.0-1.0-0.0-4.0-1.4","1186","match_RDK","j","","true","[""f"",""j""]","[""j""]","3000","true","2","[80,20]","1","0","0","0","5","1","-1","3","500","500","hsl(225, 50%, 50%)","hsl(0, 50%, 50%)","[""hsl(225, 50%, 50%)"",""hsl(0, 50%, 50%)""]","10","10","circle","black","3","2","2","16.788732394366196","[10,17,17,17,17,17,17,17,17,17,16,17,17,17,17,17,16,17,17,17,17,17,17,17,17,17,17,17,17,17,17,17,17,17,17,17,17,17,17,17,17,17,17,17,17,17,17,17,17,17,16,17,17,17,17,17,16,17,16,17,17,17,17,17,16,17,16,17,17,16,17]","71","600","250","false","20","20","black","1","false","1","1","1200","660","response","j","no","other",""
"","","","","","html-keyboard-response","174","1102866","0.0-5.0-1.0-0.0-3.0-1.0-0.0-4.0-0.5","null","fixation","null","<p style='font-size: 48px; color: white'>+</p >","","","","","","","","","","","","","","","","","","","","","","","","","","","","","","","","","","","","","","","","","","","","","","",""
"","","","","","rdk","175","1104829","0.0-5.0-1.0-0.0-3.0-1.0-0.0-4.0-1.5","945","match_RDK","f","","true","[""f"",""j""]","[""f""]","3000","true","2","[80,20]","1","0","0","0","5","1","-1","3","500","500","hsl(225, 50%, 50%)","hsl(0, 50%, 50%)","[""hsl(0, 50%, 50%)"",""hsl(225, 50%, 50%)""]","10","10","circle","black","3","2","2","16.767857142857142","[11,17,17,17,17,17,16,16,17,17,17,17,17,17,17,17,17,16,17,17,17,17,17,17,17,17,17,16,17,17,17,16,17,17,17,17,17,17,17,17,16,17,17,17,17,17,17,17,17,17,17,17,16,17,17,17]","56","600","250","false","20","20","black","1","false","1","1","1200","660","response","f","yes","other",""
"","","","","","html-keyboard-response","176","1105834","0.0-5.0-1.0-0.0-3.0-1.0-0.0-4.0-0.6","null","fixation","null","<p style='font-size: 48px; color: white'>+</p >","","","","","","","","","","","","","","","","","","","","","","","","","","","","","","","","","","","","","","","","","","","","","","",""
"","","","","","rdk","177","1107982","0.0-5.0-1.0-0.0-3.0-1.0-0.0-4.0-1.6","1144","match_RDK","f","","true","[""f"",""j""]","[""f""]","3000","true","2","[20,80]","1","0","0","0","5","1","-1","3","500","500","hsl(225, 50%, 50%)","hsl(0, 50%, 50%)","[""hsl(0, 50%, 50%)"",""hsl(225, 50%, 50%)""]","10","10","circle","black","3","2","2","16.681159420289855","[7,17,17,17,17,17,17,16,16,16,17,17,17,17,17,17,17,16,16,17,17,17,17,17,17,17,17,17,17,17,17,17,17,16,17,17,17,17,17,17,17,17,17,16,17,17,17,17,17,16,17,16,17,17,17,17,17,16,17,17,16,17,17,17,16,17,17,17,17]","69","600","250","false","20","20","black","1","false","1","1","1200","660","response","f","yes","self",""
"","","","","","html-keyboard-response","178","1108999","0.0-5.0-1.0-0.0-3.0-1.0-0.0-4.0-0.7","null","fixation","null","<p style='font-size: 48px; color: white'>+</p >","","","","","","","","","","","","","","","","","","","","","","","","","","","","","","","","","","","","","","","","","","","","","","",""
"","","","","","rdk","179","1111389","0.0-5.0-1.0-0.0-3.0-1.0-0.0-4.0-1.7","1388","match_RDK","j","","true","[""f"",""j""]","[""j""]","3000","true","2","[80,20]","1","0","0","0","5","1","-1","3","500","500","hsl(225, 50%, 50%)","hsl(0, 50%, 50%)","[""hsl(0, 50%, 50%)"",""hsl(225, 50%, 50%)""]","10","10","circle","black","3","2","2","16.783132530120483","[9,19,17,17,17,16,17,17,17,17,16,17,17,17,17,17,17,16,17,17,17,17,17,17,17,17,17,16,17,17,17,17,17,17,16,17,17,17,17,17,17,17,17,17,16,17,17,16,17,17,17,17,17,17,16,17,17,17,17,17,17,17,17,16,17,16,17,16,17,16,17,17,17,17,17,17,17,17,17,17,17,17,17]","83","600","250","false","20","20","black","1","false","1","1","1200","660","response","j","no","self",""
"","","","","","html-keyboard-response","180","1112415","0.0-5.0-1.0-0.0-3.0-1.0-0.0-4.0-0.8","null","fixation","null","<p style='font-size: 48px; color: white'>+</p >","","","","","","","","","","","","","","","","","","","","","","","","","","","","","","","","","","","","","","","","","","","","","","",""
"","","","","","rdk","181","1114461","0.0-5.0-1.0-0.0-3.0-1.0-0.0-4.0-1.8","1044","match_RDK","f","","true","[""f"",""j""]","[""f""]","3000","true","2","[20,80]","1","0","0","0","5","1","-1","3","500","500","hsl(225, 50%, 50%)","hsl(0, 50%, 50%)","[""hsl(0, 50%, 50%)"",""hsl(225, 50%, 50%)""]","10","10","circle","black","3","2","2","16.79032258064516","[13,17,17,17,17,17,17,17,17,17,17,16,17,17,17,17,17,16,17,17,17,16,17,17,17,17,17,17,17,17,17,17,17,16,16,17,17,17,17,17,17,17,17,17,17,17,17,16,17,17,17,16,17,17,17,16,17,17,17,16,17,17]","62","600","250","false","20","20","black","1","false","1","1","1200","660","response","f","yes","self",""
"","","","","","html-keyboard-response","182","1115482","0.0-5.0-1.0-0.0-3.0-1.0-0.0-4.0-0.9","null","fixation","null","<p style='font-size: 48px; color: white'>+</p >","","","","","","","","","","","","","","","","","","","","","","","","","","","","","","","","","","","","","","","","","","","","","","",""
"","","","","","rdk","183","1118093","0.0-5.0-1.0-0.0-3.0-1.0-0.0-4.0-1.9","1594","match_RDK","f","","true","[""f"",""j""]","[""f""]","3000","true","2","[80,20]","1","0","0","0","5","1","-1","3","500","500","hsl(225, 50%, 50%)","hsl(0, 50%, 50%)","[""hsl(0, 50%, 50%)"",""hsl(225, 50%, 50%)""]","10","10","circle","black","3","2","2","16.842105263157894","[13,17,17,17,17,17,16,17,17,17,17,17,17,17,17,17,17,17,17,16,17,17,17,17,17,17,16,17,17,17,17,17,17,17,17,17,17,17,17,17,17,17,17,16,17,17,16,16,17,17,17,17,16,17,17,17,17,17,17,16,17,17,17,16,16,17,17,17,17,17,17,17,17,17,17,17,17,17,17,17,17,17,17,17,17,17,16,17,17,17,17,17,17,17,17]","95","600","250","false","20","20","black","1","false","1","1","1200","660","response","f","yes","other",""
"","","","","","html-keyboard-response","184","1119115","0.0-5.0-1.0-0.0-3.0-1.0-0.0-4.0-0.10","null","fixation","null","<p style='font-size: 48px; color: white'>+</p >","","","","","","","","","","","","","","","","","","","","","","","","","","","","","","","","","","","","","","","","","","","","","","",""
"","","","","","rdk","185","1121200","0.0-5.0-1.0-0.0-3.0-1.0-0.0-4.0-1.10","1083","match_RDK","j","","true","[""f"",""j""]","[""j""]","3000","true","2","[80,20]","1","0","0","0","5","1","-1","3","500","500","hsl(225, 50%, 50%)","hsl(0, 50%, 50%)","[""hsl(0, 50%, 50%)"",""hsl(225, 50%, 50%)""]","10","10","circle","black","3","2","2","16.83076923076923","[11,17,17,17,17,17,17,16,16,17,17,17,17,16,17,17,17,17,17,17,17,17,17,17,17,17,17,17,17,17,17,17,17,17,17,17,17,17,17,17,17,17,17,17,17,16,16,17,17,17,17,17,16,17,17,17,17,17,17,17,17,17,17,17,18]","65","600","250","false","20","20","black","1","false","1","1","1200","660","response","j","no","self",""
"","","","","","html-keyboard-response","186","1122215","0.0-5.0-1.0-0.0-3.0-1.0-0.0-4.0-0.11","null","fixation","null","<p style='font-size: 48px; color: white'>+</p >","","","","","","","","","","","","","","","","","","","","","","","","","","","","","","","","","","","","","","","","","","","","","","",""
"","","","","","rdk","187","1124286","0.0-5.0-1.0-0.0-3.0-1.0-0.0-4.0-1.11","1068","match_RDK","j","","true","[""f"",""j""]","[""j""]","3000","true","2","[80,20]","1","0","0","0","5","1","-1","3","500","500","hsl(225, 50%, 50%)","hsl(0, 50%, 50%)","[""hsl(225, 50%, 50%)"",""hsl(0, 50%, 50%)""]","10","10","circle","black","3","2","2","16.734375","[10,17,17,17,17,17,17,16,17,17,17,16,17,17,17,16,17,17,17,17,17,16,17,16,17,17,17,17,17,17,17,17,17,17,17,17,17,16,17,16,17,16,17,17,17,17,16,16,17,17,17,17,17,17,17,17,17,17,17,17,17,17,17,17]","64","600","250","false","20","20","black","1","false","1","1","1200","660","response","j","no","other",""
"","","","","","html-keyboard-response","188","1125316","0.0-5.0-1.0-0.0-3.0-1.0-0.0-4.0-0.12","null","fixation","null","<p style='font-size: 48px; color: white'>+</p >","","","","","","","","","","","","","","","","","","","","","","","","","","","","","","","","","","","","","","","","","","","","","","",""
"","","","","","rdk","189","1127278","0.0-5.0-1.0-0.0-3.0-1.0-0.0-4.0-1.12","960","match_RDK","j","","true","[""f"",""j""]","[""j""]","3000","true","2","[80,20]","1","0","0","0","5","1","-1","3","500","500","hsl(225, 50%, 50%)","hsl(0, 50%, 50%)","[""hsl(0, 50%, 50%)"",""hsl(225, 50%, 50%)""]","10","10","circle","black","3","2","2","16.719298245614034","[10,17,17,17,17,17,17,17,17,17,16,17,17,17,17,17,17,17,16,17,17,17,17,17,17,17,17,16,17,16,17,17,16,17,17,16,17,17,17,17,17,16,17,17,16,16,17,17,17,17,17,17,17,17,17,17,17]","57","600","250","false","20","20","black","1","false","1","1","1200","660","response","j","no","self",""
"","","","","","html-keyboard-response","190","1128299","0.0-5.0-1.0-0.0-3.0-1.0-0.0-4.0-0.13","null","fixation","null","<p style='font-size: 48px; color: white'>+</p >","","","","","","","","","","","","","","","","","","","","","","","","","","","","","","","","","","","","","","","","","","","","","","",""
"","","","","","rdk","191","1130399","0.0-5.0-1.0-0.0-3.0-1.0-0.0-4.0-1.13","1098","match_RDK","f","","true","[""f"",""j""]","[""f""]","3000","true","2","[20,80]","1","0","0","0","5","1","-1","3","500","500","hsl(225, 50%, 50%)","hsl(0, 50%, 50%)","[""hsl(0, 50%, 50%)"",""hsl(225, 50%, 50%)""]","10","10","circle","black","3","2","2","16.772727272727273","[10,17,17,17,17,17,17,16,17,17,17,17,17,17,17,17,17,17,17,16,17,17,16,17,17,16,17,17,17,17,17,17,17,17,17,16,17,17,17,17,17,17,16,17,17,17,17,17,17,17,17,17,17,16,17,17,17,17,17,17,17,17,16,17,16,18]","66","600","250","false","20","20","black","1","false","1","1","1200","660","response","f","yes","self",""
"","","","","","html-keyboard-response","192","1131416","0.0-5.0-1.0-0.0-3.0-1.0-0.0-4.0-0.14","null","fixation","null","<p style='font-size: 48px; color: white'>+</p >","","","","","","","","","","","","","","","","","","","","","","","","","","","","","","","","","","","","","","","","","","","","","","",""
"","","","","","rdk","193","1133789","0.0-5.0-1.0-0.0-3.0-1.0-0.0-4.0-1.14","1371","match_RDK","f","","true","[""f"",""j""]","[""f""]","3000","true","2","[80,20]","1","0","0","0","5","1","-1","3","500","500","hsl(225, 50%, 50%)","hsl(0, 50%, 50%)","[""hsl(0, 50%, 50%)"",""hsl(225, 50%, 50%)""]","10","10","circle","black","3","2","2","16.70731707317073","[10,17,17,17,17,18,15,17,17,17,17,17,17,17,17,16,17,17,17,16,16,17,17,16,16,17,17,17,17,16,17,17,17,17,17,16,17,17,17,16,17,16,17,17,16,17,16,17,17,17,16,17,16,17,17,17,16,17,16,17,17,17,17,17,17,17,17,17,17,17,17,17,17,17,17,17,17,17,17,17,17,16]","82","600","250","false","20","20","black","1","false","1","1","1200","660","response","f","yes","other",""
"","","","","","html-keyboard-response","194","1134816","0.0-5.0-1.0-0.0-3.0-1.0-0.0-4.0-0.15","null","fixation","null","<p style='font-size: 48px; color: white'>+</p >","","","","","","","","","","","","","","","","","","","","","","","","","","","","","","","","","","","","","","","","","","","","","","",""
"","","","","","rdk","195","1136910","0.0-5.0-1.0-0.0-3.0-1.0-0.0-4.0-1.15","1091","match_RDK","j","","true","[""f"",""j""]","[""j""]","3000","true","2","[80,20]","1","0","0","0","5","1","-1","3","500","500","hsl(225, 50%, 50%)","hsl(0, 50%, 50%)","[""hsl(225, 50%, 50%)"",""hsl(0, 50%, 50%)""]","10","10","circle","black","3","2","2","16.784615384615385","[10,16,17,17,17,18,16,17,17,17,17,17,17,17,17,15,17,17,17,16,17,17,17,17,17,17,17,17,17,17,17,17,17,17,17,16,17,17,17,17,17,16,17,17,16,17,17,17,17,17,17,17,17,17,17,17,17,17,17,17,17,17,17,17,17]","65","600","250","false","20","20","black","1","false","1","1","1200","660","response","j","no","other",""
"","","","","","html-keyboard-response","196","1137932","0.0-5.0-1.0-0.0-3.0-1.0-0.0-4.0-0.16","null","fixation","null","<p style='font-size: 48px; color: white'>+</p >","","","","","","","","","","","","","","","","","","","","","","","","","","","","","","","","","","","","","","","","","","","","","","",""
"","","","","","rdk","197","1140030","0.0-5.0-1.0-0.0-3.0-1.0-0.0-4.0-1.16","1095","match_RDK","j","","true","[""f"",""j""]","[""j""]","3000","true","2","[80,20]","1","0","0","0","5","1","-1","3","500","500","hsl(225, 50%, 50%)","hsl(0, 50%, 50%)","[""hsl(225, 50%, 50%)"",""hsl(0, 50%, 50%)""]","10","10","circle","black","3","2","2","16.73846153846154","[10,17,17,17,17,17,17,16,17,16,17,17,17,16,17,17,16,17,17,17,17,17,17,17,17,17,17,17,16,17,17,17,17,17,17,17,16,17,17,17,17,17,16,17,17,17,16,17,17,17,17,17,16,17,17,17,17,17,17,17,17,16,17,17,17]","65","600","250","false","20","20","black","1","false","1","1","1200","660","response","j","no","other",""
"","","","","","html-keyboard-response","198","1141049","0.0-5.0-1.0-0.0-3.0-1.0-0.0-4.0-0.17","null","fixation","null","<p style='font-size: 48px; color: white'>+</p >","","","","","","","","","","","","","","","","","","","","","","","","","","","","","","","","","","","","","","","","","","","","","","",""
"","","","","","rdk","199","1143262","0.0-5.0-1.0-0.0-3.0-1.0-0.0-4.0-1.17","1210","match_RDK","f","","true","[""f"",""j""]","[""f""]","3000","true","2","[80,20]","1","0","0","0","5","1","-1","3","500","500","hsl(225, 50%, 50%)","hsl(0, 50%, 50%)","[""hsl(0, 50%, 50%)"",""hsl(225, 50%, 50%)""]","10","10","circle","black","3","2","2","16.819444444444443","[10,17,17,17,17,17,17,17,17,16,17,17,17,17,16,17,17,17,17,17,17,17,17,17,17,17,17,17,17,17,17,17,17,16,17,16,17,17,17,17,16,17,17,17,17,16,17,17,17,17,17,17,17,17,17,17,17,17,17,17,17,17,17,17,17,17,17,17,17,17,17,17]","72","600","250","false","20","20","black","1","false","1","1","1200","660","response","f","yes","other",""
"","","","","","html-keyboard-response","200","1144282","0.0-5.0-1.0-0.0-3.0-1.0-0.0-4.0-0.18","null","fixation","null","<p style='font-size: 48px; color: white'>+</p >","","","","","","","","","","","","","","","","","","","","","","","","","","","","","","","","","","","","","","","","","","","","","","",""
