"success","rt","trial_type","trial_index","plugin_version","time_elapsed","subj_id","stimulus","response","trail_tag","task","ismatch","target","correct_key","correct","response_key"
"true","1127824","fullscreen","0","2.0.0","1128837","2","","","","","","","","",""
"","29297","html-keynbutton-response","1","2.0.0","1158139","2","
        <div class=""jp px-2 xxs:px-5 mx-auto"">
        <p class=""text-center text-red-600 text-[1.2em] pb-5"">欢迎您参加知觉
          <strong>判断实验。</strong>
        </p>
        <p>接下来的任务中您将看到一排图形。</p>
        <p>(圆形●或方形■)</p><p>您的任务是<strong>忽略两侧的图形，专注于中间的图形</strong>。</p>
        <p>如果中间的图形是方，请按“q”；</p>
        <p>如果是圆，请按“p”。</p><p>请尽量又快又准地做出反应。</p>
      <p>请按空格键开始练习。</p>
      </div>"," ","","","","","","",""
"","null","html-keynbutton-response","2","2.0.0","1161355","2","<count-down title=""""></count-down>","null","countDown_trial","","","","","",""
"","null","html-keynbutton-response","3","2.0.0","1161859","2","<div class=""pb-14 text-7xl"">+</div>","null","fixation","","","","","",""
"","1024","html-keynbutton-response","4","2.0.0","1162884","2","<div class=""flex flex-row stim-length pb-8 md:pd-20 justify-evenly items-center""><div class=""circle""></div><div class=""circle""></div><div class=""circle""></div></div>","p","","shape_practice","match","圆","p","true","圆"
"","null","html-keynbutton-response","5","2.0.0","1163391","2","<span class='text-green-400 text-4xl md:text-5xl lg:text-6xl'>正确!</span>","null","trial_feedback","","","","","",""
"","null","html-keynbutton-response","6","2.0.0","1163906","2","<div class=""pb-14 text-7xl"">+</div>","null","fixation","","","","","",""
"","496","html-keynbutton-response","7","2.0.0","1164403","2","<div class=""flex flex-row stim-length pb-8 md:pd-20 justify-evenly items-center""><div class=""square""></div><div class=""circle""></div><div class=""square""></div></div>","p","","shape_practice","mismatch","圆","p","true","圆"
"","null","html-keynbutton-response","8","2.0.0","1164908","2","<span class='text-green-400 text-4xl md:text-5xl lg:text-6xl'>正确!</span>","null","trial_feedback","","","","","",""
"","null","html-keynbutton-response","9","2.0.0","1165424","2","<div class=""pb-14 text-7xl"">+</div>","null","fixation","","","","","",""
"","546","html-keynbutton-response","10","2.0.0","1165971","2","<div class=""flex flex-row stim-length pb-8 md:pd-20 justify-evenly items-center""><div class=""square""></div><div class=""square""></div><div class=""square""></div></div>","q","","shape_practice","match","方","q","true","方"
"","null","html-keynbutton-response","11","2.0.0","1166475","2","<span class='text-green-400 text-4xl md:text-5xl lg:text-6xl'>正确!</span>","null","trial_feedback","","","","","",""
"","null","html-keynbutton-response","12","2.0.0","1166990","2","<div class=""pb-14 text-7xl"">+</div>","null","fixation","","","","","",""
"","516","html-keynbutton-response","13","2.0.0","1167507","2","<div class=""flex flex-row stim-length pb-8 md:pd-20 justify-evenly items-center""><div class=""circle""></div><div class=""square""></div><div class=""circle""></div></div>","q","","shape_practice","mismatch","方","q","true","方"
"","null","html-keynbutton-response","14","2.0.0","1168023","2","<span class='text-green-400 text-4xl md:text-5xl lg:text-6xl'>正确!</span>","null","trial_feedback","","","","","",""
"","null","html-keynbutton-response","15","2.0.0","1168525","2","<div class=""pb-14 text-7xl"">+</div>","null","fixation","","","","","",""
"","341","html-keynbutton-response","16","2.0.0","1168867","2","<div class=""flex flex-row stim-length pb-8 md:pd-20 justify-evenly items-center""><div class=""square""></div><div class=""circle""></div><div class=""square""></div></div>","p","","shape_practice","mismatch","圆","p","true","圆"
"","null","html-keynbutton-response","17","2.0.0","1169374","2","<span class='text-green-400 text-4xl md:text-5xl lg:text-6xl'>正确!</span>","null","trial_feedback","","","","","",""
"","null","html-keynbutton-response","18","2.0.0","1169890","2","<div class=""pb-14 text-7xl"">+</div>","null","fixation","","","","","",""
"","592","html-keynbutton-response","19","2.0.0","1170483","2","<div class=""flex flex-row stim-length pb-8 md:pd-20 justify-evenly items-center""><div class=""circle""></div><div class=""circle""></div><div class=""circle""></div></div>","p","","shape_practice","match","圆","p","true","圆"
"","null","html-keynbutton-response","20","2.0.0","1170991","2","<span class='text-green-400 text-4xl md:text-5xl lg:text-6xl'>正确!</span>","null","trial_feedback","","","","","",""
"","null","html-keynbutton-response","21","2.0.0","1171507","2","<div class=""pb-14 text-7xl"">+</div>","null","fixation","","","","","",""
"","543","html-keynbutton-response","22","2.0.0","1172051","2","<div class=""flex flex-row stim-length pb-8 md:pd-20 justify-evenly items-center""><div class=""square""></div><div class=""square""></div><div class=""square""></div></div>","q","","shape_practice","match","方","q","true","方"
"","null","html-keynbutton-response","23","2.0.0","1172557","2","<span class='text-green-400 text-4xl md:text-5xl lg:text-6xl'>正确!</span>","null","trial_feedback","","","","","",""
"","null","html-keynbutton-response","24","2.0.0","1173059","2","<div class=""pb-14 text-7xl"">+</div>","null","fixation","","","","","",""
"","351","html-keynbutton-response","25","2.0.0","1173411","2","<div class=""flex flex-row stim-length pb-8 md:pd-20 justify-evenly items-center""><div class=""circle""></div><div class=""square""></div><div class=""circle""></div></div>","q","","shape_practice","mismatch","方","q","true","方"
"","null","html-keynbutton-response","26","2.0.0","1173923","2","<span class='text-green-400 text-4xl md:text-5xl lg:text-6xl'>正确!</span>","null","trial_feedback","","","","","",""
"","null","html-keynbutton-response","27","2.0.0","1174425","2","<div class=""pb-14 text-7xl"">+</div>","null","fixation","","","","","",""
"","441","html-keynbutton-response","28","2.0.0","1174867","2","<div class=""flex flex-row stim-length pb-8 md:pd-20 justify-evenly items-center""><div class=""circle""></div><div class=""circle""></div><div class=""circle""></div></div>","p","","shape_practice","match","圆","p","true","圆"
"","null","html-keynbutton-response","29","2.0.0","1175374","2","<span class='text-green-400 text-4xl md:text-5xl lg:text-6xl'>正确!</span>","null","trial_feedback","","","","","",""
"","null","html-keynbutton-response","30","2.0.0","1175891","2","<div class=""pb-14 text-7xl"">+</div>","null","fixation","","","","","",""
"","319","html-keynbutton-response","31","2.0.0","1176210","2","<div class=""flex flex-row stim-length pb-8 md:pd-20 justify-evenly items-center""><div class=""square""></div><div class=""circle""></div><div class=""square""></div></div>","p","","shape_practice","mismatch","圆","p","true","圆"
"","null","html-keynbutton-response","32","2.0.0","1176723","2","<span class='text-green-400 text-4xl md:text-5xl lg:text-6xl'>正确!</span>","null","trial_feedback","","","","","",""
"","null","html-keynbutton-response","33","2.0.0","1177224","2","<div class=""pb-14 text-7xl"">+</div>","null","fixation","","","","","",""
"","426","html-keynbutton-response","34","2.0.0","1177651","2","<div class=""flex flex-row stim-length pb-8 md:pd-20 justify-evenly items-center""><div class=""square""></div><div class=""square""></div><div class=""square""></div></div>","q","","shape_practice","match","方","q","true","方"
"","null","html-keynbutton-response","35","2.0.0","1178158","2","<span class='text-green-400 text-4xl md:text-5xl lg:text-6xl'>正确!</span>","null","trial_feedback","","","","","",""
"","null","html-keynbutton-response","36","2.0.0","1178673","2","<div class=""pb-14 text-7xl"">+</div>","null","fixation","","","","","",""
"","353","html-keynbutton-response","37","2.0.0","1179027","2","<div class=""flex flex-row stim-length pb-8 md:pd-20 justify-evenly items-center""><div class=""circle""></div><div class=""square""></div><div class=""circle""></div></div>","q","","shape_practice","mismatch","方","q","true","方"
"","null","html-keynbutton-response","38","2.0.0","1179541","2","<span class='text-green-400 text-4xl md:text-5xl lg:text-6xl'>正确!</span>","null","trial_feedback","","","","","",""
"","null","html-keynbutton-response","39","2.0.0","1180057","2","<div class=""pb-14 text-7xl"">+</div>","null","fixation","","","","","",""
"","489","html-keynbutton-response","40","2.0.0","1180547","2","<div class=""flex flex-row stim-length pb-8 md:pd-20 justify-evenly items-center""><div class=""square""></div><div class=""square""></div><div class=""square""></div></div>","q","","shape_practice","match","方","q","true","方"
"","null","html-keynbutton-response","41","2.0.0","1181057","2","<span class='text-green-400 text-4xl md:text-5xl lg:text-6xl'>正确!</span>","null","trial_feedback","","","","","",""
"","null","html-keynbutton-response","42","2.0.0","1181573","2","<div class=""pb-14 text-7xl"">+</div>","null","fixation","","","","","",""
"","461","html-keynbutton-response","43","2.0.0","1182035","2","<div class=""flex flex-row stim-length pb-8 md:pd-20 justify-evenly items-center""><div class=""circle""></div><div class=""circle""></div><div class=""circle""></div></div>","p","","shape_practice","match","圆","p","true","圆"
"","null","html-keynbutton-response","44","2.0.0","1182542","2","<span class='text-green-400 text-4xl md:text-5xl lg:text-6xl'>正确!</span>","null","trial_feedback","","","","","",""
"","null","html-keynbutton-response","45","2.0.0","1183057","2","<div class=""pb-14 text-7xl"">+</div>","null","fixation","","","","","",""
"","594","html-keynbutton-response","46","2.0.0","1183651","2","<div class=""flex flex-row stim-length pb-8 md:pd-20 justify-evenly items-center""><div class=""circle""></div><div class=""square""></div><div class=""circle""></div></div>","q","","shape_practice","mismatch","方","q","true","方"
"","null","html-keynbutton-response","47","2.0.0","1184157","2","<span class='text-green-400 text-4xl md:text-5xl lg:text-6xl'>正确!</span>","null","trial_feedback","","","","","",""
"","null","html-keynbutton-response","48","2.0.0","1184674","2","<div class=""pb-14 text-7xl"">+</div>","null","fixation","","","","","",""
"","448","html-keynbutton-response","49","2.0.0","1185123","2","<div class=""flex flex-row stim-length pb-8 md:pd-20 justify-evenly items-center""><div class=""square""></div><div class=""circle""></div><div class=""square""></div></div>","p","","shape_practice","mismatch","圆","p","true","圆"
"","null","html-keynbutton-response","50","2.0.0","1185625","2","<span class='text-green-400 text-4xl md:text-5xl lg:text-6xl'>正确!</span>","null","trial_feedback","","","","","",""
"","null","html-keynbutton-response","51","2.0.0","1186140","2","<div class=""pb-14 text-7xl"">+</div>","null","fixation","","","","","",""
"","599","html-keynbutton-response","52","2.0.0","1186739","2","<div class=""flex flex-row stim-length pb-8 md:pd-20 justify-evenly items-center""><div class=""circle""></div><div class=""square""></div><div class=""circle""></div></div>","p","","shape_practice","mismatch","方","q","false","圆"
"","null","html-keynbutton-response","53","2.0.0","1187241","2","<span class='text-red-500 text-4xl md:text-5xl lg:text-6xl'>错误!</span>","null","trial_feedback","","","","","",""
"","null","html-keynbutton-response","54","2.0.0","1187757","2","<div class=""pb-14 text-7xl"">+</div>","null","fixation","","","","","",""
"","436","html-keynbutton-response","55","2.0.0","1188194","2","<div class=""flex flex-row stim-length pb-8 md:pd-20 justify-evenly items-center""><div class=""circle""></div><div class=""circle""></div><div class=""circle""></div></div>","p","","shape_practice","match","圆","p","true","圆"
"","null","html-keynbutton-response","56","2.0.0","1188706","2","<span class='text-green-400 text-4xl md:text-5xl lg:text-6xl'>正确!</span>","null","trial_feedback","","","","","",""
"","null","html-keynbutton-response","57","2.0.0","1189208","2","<div class=""pb-14 text-7xl"">+</div>","null","fixation","","","","","",""
"","395","html-keynbutton-response","58","2.0.0","1189603","2","<div class=""flex flex-row stim-length pb-8 md:pd-20 justify-evenly items-center""><div class=""square""></div><div class=""square""></div><div class=""square""></div></div>","q","","shape_practice","match","方","q","true","方"
"","null","html-keynbutton-response","59","2.0.0","1190107","2","<span class='text-green-400 text-4xl md:text-5xl lg:text-6xl'>正确!</span>","null","trial_feedback","","","","","",""
"","null","html-keynbutton-response","60","2.0.0","1190623","2","<div class=""pb-14 text-7xl"">+</div>","null","fixation","","","","","",""
"","803","html-keynbutton-response","61","2.0.0","1191427","2","<div class=""flex flex-row stim-length pb-8 md:pd-20 justify-evenly items-center""><div class=""square""></div><div class=""circle""></div><div class=""square""></div></div>","p","","shape_practice","mismatch","圆","p","true","圆"
"","null","html-keynbutton-response","62","2.0.0","1191940","2","<span class='text-green-400 text-4xl md:text-5xl lg:text-6xl'>正确!</span>","null","trial_feedback","","","","","",""
"","3141","html-keynbutton-response","64","2.0.0","1195083","2","<div class=""jp"">
    <p>您的正确率是：95%</p>
    <p>您的平均反应时间是：509毫秒</p></div>"," ","block_feedback","","","","","",""
"","2575","html-keynbutton-response","65","2.0.0","1197659","2","
        <div class=""jp px-2 xxs:px-5 mx-auto"">
        <p class=""text-center text-red-600 text-[1.2em] pb-5"">练习结束，现在开始正式实验</p>
        <p>请注意：正式实验中将不再会呈现反馈。</p>
        </div>
        "," ","","","","","","",""
"","null","html-keynbutton-response","66","2.0.0","1200871","2","<count-down title=""""></count-down>","null","countDown_trial","","","","","",""
"","null","html-keynbutton-response","67","2.0.0","1201374","2","<div class=""pb-14 text-7xl"">+</div>","null","fixation","","","","","",""
"","661","html-keynbutton-response","68","2.0.0","1202036","2","<div class=""flex flex-row stim-length pb-8 md:pd-20 justify-evenly items-center""><div class=""circle""></div><div class=""square""></div><div class=""circle""></div></div>","q","","shape_test","mismatch","方","q","true","方"
"","null","html-keynbutton-response","69","2.0.0","1202542","2","<div class=""pb-14 text-7xl"">+</div>","null","fixation","","","","","",""
"","468","html-keynbutton-response","70","2.0.0","1203011","2","<div class=""flex flex-row stim-length pb-8 md:pd-20 justify-evenly items-center""><div class=""square""></div><div class=""circle""></div><div class=""square""></div></div>","p","","shape_test","mismatch","圆","p","true","圆"
"","null","html-keynbutton-response","71","2.0.0","1203523","2","<div class=""pb-14 text-7xl"">+</div>","null","fixation","","","","","",""
"","495","html-keynbutton-response","72","2.0.0","1204018","2","<div class=""flex flex-row stim-length pb-8 md:pd-20 justify-evenly items-center""><div class=""square""></div><div class=""square""></div><div class=""square""></div></div>","q","","shape_test","match","方","q","true","方"
"","null","html-keynbutton-response","73","2.0.0","1204523","2","<div class=""pb-14 text-7xl"">+</div>","null","fixation","","","","","",""
"","312","html-keynbutton-response","74","2.0.0","1204835","2","<div class=""flex flex-row stim-length pb-8 md:pd-20 justify-evenly items-center""><div class=""circle""></div><div class=""circle""></div><div class=""circle""></div></div>","p","","shape_test","match","圆","p","true","圆"
"","null","html-keynbutton-response","75","2.0.0","1205342","2","<div class=""pb-14 text-7xl"">+</div>","null","fixation","","","","","",""
"","325","html-keynbutton-response","76","2.0.0","1205667","2","<div class=""flex flex-row stim-length pb-8 md:pd-20 justify-evenly items-center""><div class=""circle""></div><div class=""circle""></div><div class=""circle""></div></div>","p","","shape_test","match","圆","p","true","圆"
"","null","html-keynbutton-response","77","2.0.0","1206175","2","<div class=""pb-14 text-7xl"">+</div>","null","fixation","","","","","",""
"","371","html-keynbutton-response","78","2.0.0","1206547","2","<div class=""flex flex-row stim-length pb-8 md:pd-20 justify-evenly items-center""><div class=""square""></div><div class=""circle""></div><div class=""square""></div></div>","p","","shape_test","mismatch","圆","p","true","圆"
"","null","html-keynbutton-response","79","2.0.0","1207057","2","<div class=""pb-14 text-7xl"">+</div>","null","fixation","","","","","",""
"","401","html-keynbutton-response","80","2.0.0","1207458","2","<div class=""flex flex-row stim-length pb-8 md:pd-20 justify-evenly items-center""><div class=""square""></div><div class=""square""></div><div class=""square""></div></div>","q","","shape_test","match","方","q","true","方"
"","null","html-keynbutton-response","81","2.0.0","1207973","2","<div class=""pb-14 text-7xl"">+</div>","null","fixation","","","","","",""
"","284","html-keynbutton-response","82","2.0.0","1208258","2","<div class=""flex flex-row stim-length pb-8 md:pd-20 justify-evenly items-center""><div class=""circle""></div><div class=""square""></div><div class=""circle""></div></div>","q","","shape_test","mismatch","方","q","true","方"
"","null","html-keynbutton-response","83","2.0.0","1208774","2","<div class=""pb-14 text-7xl"">+</div>","null","fixation","","","","","",""
"","333","html-keynbutton-response","84","2.0.0","1209107","2","<div class=""flex flex-row stim-length pb-8 md:pd-20 justify-evenly items-center""><div class=""circle""></div><div class=""circle""></div><div class=""circle""></div></div>","p","","shape_test","match","圆","p","true","圆"
"","null","html-keynbutton-response","85","2.0.0","1209623","2","<div class=""pb-14 text-7xl"">+</div>","null","fixation","","","","","",""
"","475","html-keynbutton-response","86","2.0.0","1210099","2","<div class=""flex flex-row stim-length pb-8 md:pd-20 justify-evenly items-center""><div class=""circle""></div><div class=""square""></div><div class=""circle""></div></div>","q","","shape_test","mismatch","方","q","true","方"
"","null","html-keynbutton-response","87","2.0.0","1210606","2","<div class=""pb-14 text-7xl"">+</div>","null","fixation","","","","","",""
"","484","html-keynbutton-response","88","2.0.0","1211091","2","<div class=""flex flex-row stim-length pb-8 md:pd-20 justify-evenly items-center""><div class=""square""></div><div class=""square""></div><div class=""square""></div></div>","q","","shape_test","match","方","q","true","方"
"","null","html-keynbutton-response","89","2.0.0","1211607","2","<div class=""pb-14 text-7xl"">+</div>","null","fixation","","","","","",""
"","284","html-keynbutton-response","90","2.0.0","1211892","2","<div class=""flex flex-row stim-length pb-8 md:pd-20 justify-evenly items-center""><div class=""square""></div><div class=""circle""></div><div class=""square""></div></div>","p","","shape_test","mismatch","圆","p","true","圆"
"","null","html-keynbutton-response","91","2.0.0","1212407","2","<div class=""pb-14 text-7xl"">+</div>","null","fixation","","","","","",""
"","379","html-keynbutton-response","92","2.0.0","1212787","2","<div class=""flex flex-row stim-length pb-8 md:pd-20 justify-evenly items-center""><div class=""square""></div><div class=""circle""></div><div class=""square""></div></div>","p","","shape_test","mismatch","圆","p","true","圆"
"","null","html-keynbutton-response","93","2.0.0","1213292","2","<div class=""pb-14 text-7xl"">+</div>","null","fixation","","","","","",""
"","375","html-keynbutton-response","94","2.0.0","1213667","2","<div class=""flex flex-row stim-length pb-8 md:pd-20 justify-evenly items-center""><div class=""circle""></div><div class=""square""></div><div class=""circle""></div></div>","q","","shape_test","mismatch","方","q","true","方"
"","null","html-keynbutton-response","95","2.0.0","1214175","2","<div class=""pb-14 text-7xl"">+</div>","null","fixation","","","","","",""
"","340","html-keynbutton-response","96","2.0.0","1214515","2","<div class=""flex flex-row stim-length pb-8 md:pd-20 justify-evenly items-center""><div class=""square""></div><div class=""square""></div><div class=""square""></div></div>","q","","shape_test","match","方","q","true","方"
"","null","html-keynbutton-response","97","2.0.0","1215022","2","<div class=""pb-14 text-7xl"">+</div>","null","fixation","","","","","",""
"","324","html-keynbutton-response","98","2.0.0","1215347","2","<div class=""flex flex-row stim-length pb-8 md:pd-20 justify-evenly items-center""><div class=""circle""></div><div class=""circle""></div><div class=""circle""></div></div>","p","","shape_test","match","圆","p","true","圆"
"","null","html-keynbutton-response","99","2.0.0","1215857","2","<div class=""pb-14 text-7xl"">+</div>","null","fixation","","","","","",""
"","369","html-keynbutton-response","100","2.0.0","1216227","2","<div class=""flex flex-row stim-length pb-8 md:pd-20 justify-evenly items-center""><div class=""circle""></div><div class=""circle""></div><div class=""circle""></div></div>","p","","shape_test","match","圆","p","true","圆"
"","null","html-keynbutton-response","101","2.0.0","1216740","2","<div class=""pb-14 text-7xl"">+</div>","null","fixation","","","","","",""
"","590","html-keynbutton-response","102","2.0.0","1217331","2","<div class=""flex flex-row stim-length pb-8 md:pd-20 justify-evenly items-center""><div class=""circle""></div><div class=""square""></div><div class=""circle""></div></div>","q","","shape_test","mismatch","方","q","true","方"
"","null","html-keynbutton-response","103","2.0.0","1217840","2","<div class=""pb-14 text-7xl"">+</div>","null","fixation","","","","","",""
"","386","html-keynbutton-response","104","2.0.0","1218227","2","<div class=""flex flex-row stim-length pb-8 md:pd-20 justify-evenly items-center""><div class=""square""></div><div class=""circle""></div><div class=""square""></div></div>","p","","shape_test","mismatch","圆","p","true","圆"
"","null","html-keynbutton-response","105","2.0.0","1218741","2","<div class=""pb-14 text-7xl"">+</div>","null","fixation","","","","","",""
"","446","html-keynbutton-response","106","2.0.0","1219187","2","<div class=""flex flex-row stim-length pb-8 md:pd-20 justify-evenly items-center""><div class=""square""></div><div class=""square""></div><div class=""square""></div></div>","q","","shape_test","match","方","q","true","方"
"","null","html-keynbutton-response","107","2.0.0","1219691","2","<div class=""pb-14 text-7xl"">+</div>","null","fixation","","","","","",""
"","311","html-keynbutton-response","108","2.0.0","1220003","2","<div class=""flex flex-row stim-length pb-8 md:pd-20 justify-evenly items-center""><div class=""circle""></div><div class=""circle""></div><div class=""circle""></div></div>","p","","shape_test","match","圆","p","true","圆"
"","null","html-keynbutton-response","109","2.0.0","1220508","2","<div class=""pb-14 text-7xl"">+</div>","null","fixation","","","","","",""
"","311","html-keynbutton-response","110","2.0.0","1220819","2","<div class=""flex flex-row stim-length pb-8 md:pd-20 justify-evenly items-center""><div class=""circle""></div><div class=""square""></div><div class=""circle""></div></div>","q","","shape_test","mismatch","方","q","true","方"
"","null","html-keynbutton-response","111","2.0.0","1221326","2","<div class=""pb-14 text-7xl"">+</div>","null","fixation","","","","","",""
"","341","html-keynbutton-response","112","2.0.0","1221667","2","<div class=""flex flex-row stim-length pb-8 md:pd-20 justify-evenly items-center""><div class=""square""></div><div class=""square""></div><div class=""square""></div></div>","q","","shape_test","match","方","q","true","方"
"","null","html-keynbutton-response","113","2.0.0","1222175","2","<div class=""pb-14 text-7xl"">+</div>","null","fixation","","","","","",""
"","387","html-keynbutton-response","114","2.0.0","1222563","2","<div class=""flex flex-row stim-length pb-8 md:pd-20 justify-evenly items-center""><div class=""square""></div><div class=""circle""></div><div class=""square""></div></div>","p","","shape_test","mismatch","圆","p","true","圆"
"","null","html-keynbutton-response","115","2.0.0","1223073","2","<div class=""pb-14 text-7xl"">+</div>","null","fixation","","","","","",""
"","305","html-keynbutton-response","116","2.0.0","1223379","2","<div class=""flex flex-row stim-length pb-8 md:pd-20 justify-evenly items-center""><div class=""circle""></div><div class=""circle""></div><div class=""circle""></div></div>","p","","shape_test","match","圆","p","true","圆"
"","null","html-keynbutton-response","117","2.0.0","1223889","2","<div class=""pb-14 text-7xl"">+</div>","null","fixation","","","","","",""
"","336","html-keynbutton-response","118","2.0.0","1224226","2","<div class=""flex flex-row stim-length pb-8 md:pd-20 justify-evenly items-center""><div class=""square""></div><div class=""square""></div><div class=""square""></div></div>","q","","shape_test","match","方","q","true","方"
"","null","html-keynbutton-response","119","2.0.0","1224740","2","<div class=""pb-14 text-7xl"">+</div>","null","fixation","","","","","",""
"","334","html-keynbutton-response","120","2.0.0","1225075","2","<div class=""flex flex-row stim-length pb-8 md:pd-20 justify-evenly items-center""><div class=""circle""></div><div class=""square""></div><div class=""circle""></div></div>","q","","shape_test","mismatch","方","q","true","方"
"","null","html-keynbutton-response","121","2.0.0","1225590","2","<div class=""pb-14 text-7xl"">+</div>","null","fixation","","","","","",""
"","365","html-keynbutton-response","122","2.0.0","1225955","2","<div class=""flex flex-row stim-length pb-8 md:pd-20 justify-evenly items-center""><div class=""square""></div><div class=""circle""></div><div class=""square""></div></div>","p","","shape_test","mismatch","圆","p","true","圆"
"","null","html-keynbutton-response","123","2.0.0","1226458","2","<div class=""pb-14 text-7xl"">+</div>","null","fixation","","","","","",""
"","504","html-keynbutton-response","124","2.0.0","1226963","2","<div class=""flex flex-row stim-length pb-8 md:pd-20 justify-evenly items-center""><div class=""circle""></div><div class=""square""></div><div class=""circle""></div></div>","q","","shape_test","mismatch","方","q","true","方"
"","null","html-keynbutton-response","125","2.0.0","1227474","2","<div class=""pb-14 text-7xl"">+</div>","null","fixation","","","","","",""
"","529","html-keynbutton-response","126","2.0.0","1228003","2","<div class=""flex flex-row stim-length pb-8 md:pd-20 justify-evenly items-center""><div class=""square""></div><div class=""square""></div><div class=""square""></div></div>","q","","shape_test","match","方","q","true","方"
"","null","html-keynbutton-response","127","2.0.0","1228510","2","<div class=""pb-14 text-7xl"">+</div>","null","fixation","","","","","",""
"","293","html-keynbutton-response","128","2.0.0","1228803","2","<div class=""flex flex-row stim-length pb-8 md:pd-20 justify-evenly items-center""><div class=""square""></div><div class=""circle""></div><div class=""square""></div></div>","p","","shape_test","mismatch","圆","p","true","圆"
"","null","html-keynbutton-response","129","2.0.0","1229308","2","<div class=""pb-14 text-7xl"">+</div>","null","fixation","","","","","",""
"","309","html-keynbutton-response","130","2.0.0","1229618","2","<div class=""flex flex-row stim-length pb-8 md:pd-20 justify-evenly items-center""><div class=""circle""></div><div class=""circle""></div><div class=""circle""></div></div>","p","","shape_test","match","圆","p","true","圆"
"","null","html-keynbutton-response","131","2.0.0","1230125","2","<div class=""pb-14 text-7xl"">+</div>","null","fixation","","","","","",""
"","468","html-keynbutton-response","132","2.0.0","1230594","2","<div class=""flex flex-row stim-length pb-8 md:pd-20 justify-evenly items-center""><div class=""circle""></div><div class=""square""></div><div class=""circle""></div></div>","q","","shape_test","mismatch","方","q","true","方"
"","null","html-keynbutton-response","133","2.0.0","1231107","2","<div class=""pb-14 text-7xl"">+</div>","null","fixation","","","","","",""
"","399","html-keynbutton-response","134","2.0.0","1231507","2","<div class=""flex flex-row stim-length pb-8 md:pd-20 justify-evenly items-center""><div class=""square""></div><div class=""square""></div><div class=""square""></div></div>","q","","shape_test","match","方","q","true","方"
"","null","html-keynbutton-response","135","2.0.0","1232009","2","<div class=""pb-14 text-7xl"">+</div>","null","fixation","","","","","",""
"","330","html-keynbutton-response","136","2.0.0","1232339","2","<div class=""flex flex-row stim-length pb-8 md:pd-20 justify-evenly items-center""><div class=""circle""></div><div class=""circle""></div><div class=""circle""></div></div>","p","","shape_test","match","圆","p","true","圆"
"","null","html-keynbutton-response","137","2.0.0","1232842","2","<div class=""pb-14 text-7xl"">+</div>","null","fixation","","","","","",""
"","313","html-keynbutton-response","138","2.0.0","1233156","2","<div class=""flex flex-row stim-length pb-8 md:pd-20 justify-evenly items-center""><div class=""square""></div><div class=""circle""></div><div class=""square""></div></div>","p","","shape_test","mismatch","圆","p","true","圆"
"","null","html-keynbutton-response","139","2.0.0","1233658","2","<div class=""pb-14 text-7xl"">+</div>","null","fixation","","","","","",""
"","281","html-keynbutton-response","140","2.0.0","1233940","2","<div class=""flex flex-row stim-length pb-8 md:pd-20 justify-evenly items-center""><div class=""circle""></div><div class=""square""></div><div class=""circle""></div></div>","q","","shape_test","mismatch","方","q","true","方"
"","null","html-keynbutton-response","141","2.0.0","1234442","2","<div class=""pb-14 text-7xl"">+</div>","null","fixation","","","","","",""
"","393","html-keynbutton-response","142","2.0.0","1234835","2","<div class=""flex flex-row stim-length pb-8 md:pd-20 justify-evenly items-center""><div class=""circle""></div><div class=""circle""></div><div class=""circle""></div></div>","p","","shape_test","match","圆","p","true","圆"
"","null","html-keynbutton-response","143","2.0.0","1235342","2","<div class=""pb-14 text-7xl"">+</div>","null","fixation","","","","","",""
"","405","html-keynbutton-response","144","2.0.0","1235747","2","<div class=""flex flex-row stim-length pb-8 md:pd-20 justify-evenly items-center""><div class=""square""></div><div class=""square""></div><div class=""square""></div></div>","q","","shape_test","match","方","q","true","方"
"","null","html-keynbutton-response","145","2.0.0","1236256","2","<div class=""pb-14 text-7xl"">+</div>","null","fixation","","","","","",""
"","306","html-keynbutton-response","146","2.0.0","1236563","2","<div class=""flex flex-row stim-length pb-8 md:pd-20 justify-evenly items-center""><div class=""square""></div><div class=""circle""></div><div class=""square""></div></div>","p","","shape_test","mismatch","圆","p","true","圆"
"","5606","html-keynbutton-response","147","2.0.0","1242171","2","<div class=""jp""><p>您已完成1/10部分</p><p>请休息一会儿</p>
    <p>您的正确率是：100%</p>
    <p>您的平均反应时间是：383毫秒</p></div>"," ","block_feedback","","","","","",""
"","null","html-keynbutton-response","148","2.0.0","1245388","2","<count-down title=""""></count-down>","null","countDown_trial","","","","","",""
"","null","html-keynbutton-response","149","2.0.0","1245891","2","<div class=""pb-14 text-7xl"">+</div>","null","fixation","","","","","",""
"","592","html-keynbutton-response","150","2.0.0","1246483","2","<div class=""flex flex-row stim-length pb-8 md:pd-20 justify-evenly items-center""><div class=""circle""></div><div class=""square""></div><div class=""circle""></div></div>","q","","shape_test_1","mismatch","方","q","true","方"
"","null","html-keynbutton-response","151","2.0.0","1246991","2","<div class=""pb-14 text-7xl"">+</div>","null","fixation","","","","","",""
"","387","html-keynbutton-response","152","2.0.0","1247379","2","<div class=""flex flex-row stim-length pb-8 md:pd-20 justify-evenly items-center""><div class=""circle""></div><div class=""circle""></div><div class=""circle""></div></div>","p","","shape_test_1","match","圆","p","true","圆"
"","null","html-keynbutton-response","153","2.0.0","1247890","2","<div class=""pb-14 text-7xl"">+</div>","null","fixation","","","","","",""
"","448","html-keynbutton-response","154","2.0.0","1248339","2","<div class=""flex flex-row stim-length pb-8 md:pd-20 justify-evenly items-center""><div class=""square""></div><div class=""square""></div><div class=""square""></div></div>","q","","shape_test_1","match","方","q","true","方"
"","null","html-keynbutton-response","155","2.0.0","1248841","2","<div class=""pb-14 text-7xl"">+</div>","null","fixation","","","","","",""
"","425","html-keynbutton-response","156","2.0.0","1249267","2","<div class=""flex flex-row stim-length pb-8 md:pd-20 justify-evenly items-center""><div class=""square""></div><div class=""circle""></div><div class=""square""></div></div>","p","","shape_test_1","mismatch","圆","p","true","圆"
"","null","html-keynbutton-response","157","2.0.0","1249774","2","<div class=""pb-14 text-7xl"">+</div>","null","fixation","","","","","",""
"","373","html-keynbutton-response","158","2.0.0","1250147","2","<div class=""flex flex-row stim-length pb-8 md:pd-20 justify-evenly items-center""><div class=""circle""></div><div class=""circle""></div><div class=""circle""></div></div>","p","","shape_test_1","match","圆","p","true","圆"
"","null","html-keynbutton-response","159","2.0.0","1250657","2","<div class=""pb-14 text-7xl"">+</div>","null","fixation","","","","","",""
"","369","html-keynbutton-response","160","2.0.0","1251027","2","<div class=""flex flex-row stim-length pb-8 md:pd-20 justify-evenly items-center""><div class=""circle""></div><div class=""square""></div><div class=""circle""></div></div>","q","","shape_test_1","mismatch","方","q","true","方"
"","null","html-keynbutton-response","161","2.0.0","1251541","2","<div class=""pb-14 text-7xl"">+</div>","null","fixation","","","","","",""
"","334","html-keynbutton-response","162","2.0.0","1251875","2","<div class=""flex flex-row stim-length pb-8 md:pd-20 justify-evenly items-center""><div class=""square""></div><div class=""square""></div><div class=""square""></div></div>","q","","shape_test_1","match","方","q","true","方"
"","null","html-keynbutton-response","163","2.0.0","1252391","2","<div class=""pb-14 text-7xl"">+</div>","null","fixation","","","","","",""
"","332","html-keynbutton-response","164","2.0.0","1252723","2","<div class=""flex flex-row stim-length pb-8 md:pd-20 justify-evenly items-center""><div class=""square""></div><div class=""circle""></div><div class=""square""></div></div>","p","","shape_test_1","mismatch","圆","p","true","圆"
"","null","html-keynbutton-response","165","2.0.0","1253224","2","<div class=""pb-14 text-7xl"">+</div>","null","fixation","","","","","",""
"","363","html-keynbutton-response","166","2.0.0","1253587","2","<div class=""flex flex-row stim-length pb-8 md:pd-20 justify-evenly items-center""><div class=""square""></div><div class=""square""></div><div class=""square""></div></div>","q","","shape_test_1","match","方","q","true","方"
"","null","html-keynbutton-response","167","2.0.0","1254091","2","<div class=""pb-14 text-7xl"">+</div>","null","fixation","","","","","",""
"","376","html-keynbutton-response","168","2.0.0","1254467","2","<div class=""flex flex-row stim-length pb-8 md:pd-20 justify-evenly items-center""><div class=""circle""></div><div class=""square""></div><div class=""circle""></div></div>","q","","shape_test_1","mismatch","方","q","true","方"
"","null","html-keynbutton-response","169","2.0.0","1254975","2","<div class=""pb-14 text-7xl"">+</div>","null","fixation","","","","","",""
"","404","html-keynbutton-response","170","2.0.0","1255379","2","<div class=""flex flex-row stim-length pb-8 md:pd-20 justify-evenly items-center""><div class=""circle""></div><div class=""circle""></div><div class=""circle""></div></div>","q","","shape_test_1","match","圆","p","false","方"
"","null","html-keynbutton-response","171","2.0.0","1255891","2","<div class=""pb-14 text-7xl"">+</div>","null","fixation","","","","","",""
"","448","html-keynbutton-response","172","2.0.0","1256339","2","<div class=""flex flex-row stim-length pb-8 md:pd-20 justify-evenly items-center""><div class=""square""></div><div class=""circle""></div><div class=""square""></div></div>","q","","shape_test_1","mismatch","圆","p","false","方"
"","null","html-keynbutton-response","173","2.0.0","1256842","2","<div class=""pb-14 text-7xl"">+</div>","null","fixation","","","","","",""
"","489","html-keynbutton-response","174","2.0.0","1257331","2","<div class=""flex flex-row stim-length pb-8 md:pd-20 justify-evenly items-center""><div class=""circle""></div><div class=""circle""></div><div class=""circle""></div></div>","p","","shape_test_1","match","圆","p","true","圆"
"","null","html-keynbutton-response","175","2.0.0","1257840","2","<div class=""pb-14 text-7xl"">+</div>","null","fixation","","","","","",""
"","434","html-keynbutton-response","176","2.0.0","1258275","2","<div class=""flex flex-row stim-length pb-8 md:pd-20 justify-evenly items-center""><div class=""circle""></div><div class=""square""></div><div class=""circle""></div></div>","q","","shape_test_1","mismatch","方","q","true","方"
"","null","html-keynbutton-response","177","2.0.0","1258790","2","<div class=""pb-14 text-7xl"">+</div>","null","fixation","","","","","",""
"","588","html-keynbutton-response","178","2.0.0","1259379","2","<div class=""flex flex-row stim-length pb-8 md:pd-20 justify-evenly items-center""><div class=""square""></div><div class=""square""></div><div class=""square""></div></div>","q","","shape_test_1","match","方","q","true","方"
"","null","html-keynbutton-response","179","2.0.0","1259890","2","<div class=""pb-14 text-7xl"">+</div>","null","fixation","","","","","",""
"","497","html-keynbutton-response","180","2.0.0","1260387","2","<div class=""flex flex-row stim-length pb-8 md:pd-20 justify-evenly items-center""><div class=""square""></div><div class=""circle""></div><div class=""square""></div></div>","p","","shape_test_1","mismatch","圆","p","true","圆"
"","null","html-keynbutton-response","181","2.0.0","1260891","2","<div class=""pb-14 text-7xl"">+</div>","null","fixation","","","","","",""
"","423","html-keynbutton-response","182","2.0.0","1261315","2","<div class=""flex flex-row stim-length pb-8 md:pd-20 justify-evenly items-center""><div class=""square""></div><div class=""square""></div><div class=""square""></div></div>","q","","shape_test_1","match","方","q","true","方"
"","null","html-keynbutton-response","183","2.0.0","1261823","2","<div class=""pb-14 text-7xl"">+</div>","null","fixation","","","","","",""
"","355","html-keynbutton-response","184","2.0.0","1262179","2","<div class=""flex flex-row stim-length pb-8 md:pd-20 justify-evenly items-center""><div class=""circle""></div><div class=""square""></div><div class=""circle""></div></div>","q","","shape_test_1","mismatch","方","q","true","方"
"","null","html-keynbutton-response","185","2.0.0","1262690","2","<div class=""pb-14 text-7xl"">+</div>","null","fixation","","","","","",""
"","385","html-keynbutton-response","186","2.0.0","1263075","2","<div class=""flex flex-row stim-length pb-8 md:pd-20 justify-evenly items-center""><div class=""circle""></div><div class=""circle""></div><div class=""circle""></div></div>","p","","shape_test_1","match","圆","p","true","圆"
"","null","html-keynbutton-response","187","2.0.0","1263591","2","<div class=""pb-14 text-7xl"">+</div>","null","fixation","","","","","",""
"","490","html-keynbutton-response","188","2.0.0","1264082","2","<div class=""flex flex-row stim-length pb-8 md:pd-20 justify-evenly items-center""><div class=""square""></div><div class=""circle""></div><div class=""square""></div></div>","p","","shape_test_1","mismatch","圆","p","true","圆"
"","null","html-keynbutton-response","189","2.0.0","1264591","2","<div class=""pb-14 text-7xl"">+</div>","null","fixation","","","","","",""
"","451","html-keynbutton-response","190","2.0.0","1265043","2","<div class=""flex flex-row stim-length pb-8 md:pd-20 justify-evenly items-center""><div class=""circle""></div><div class=""circle""></div><div class=""circle""></div></div>","p","","shape_test_1","match","圆","p","true","圆"
"","null","html-keynbutton-response","191","2.0.0","1265557","2","<div class=""pb-14 text-7xl"">+</div>","null","fixation","","","","","",""
"","445","html-keynbutton-response","192","2.0.0","1266003","2","<div class=""flex flex-row stim-length pb-8 md:pd-20 justify-evenly items-center""><div class=""circle""></div><div class=""square""></div><div class=""circle""></div></div>","q","","shape_test_1","mismatch","方","q","true","方"
"","null","html-keynbutton-response","193","2.0.0","1266509","2","<div class=""pb-14 text-7xl"">+</div>","null","fixation","","","","","",""
"","405","html-keynbutton-response","194","2.0.0","1266915","2","<div class=""flex flex-row stim-length pb-8 md:pd-20 justify-evenly items-center""><div class=""square""></div><div class=""square""></div><div class=""square""></div></div>","q","","shape_test_1","match","方","q","true","方"
"","null","html-keynbutton-response","195","2.0.0","1267424","2","<div class=""pb-14 text-7xl"">+</div>","null","fixation","","","","","",""
"","354","html-keynbutton-response","196","2.0.0","1267779","2","<div class=""flex flex-row stim-length pb-8 md:pd-20 justify-evenly items-center""><div class=""square""></div><div class=""circle""></div><div class=""square""></div></div>","p","","shape_test_1","mismatch","圆","p","true","圆"
"","null","html-keynbutton-response","197","2.0.0","1268290","2","<div class=""pb-14 text-7xl"">+</div>","null","fixation","","","","","",""
"","368","html-keynbutton-response","198","2.0.0","1268659","2","<div class=""flex flex-row stim-length pb-8 md:pd-20 justify-evenly items-center""><div class=""square""></div><div class=""square""></div><div class=""square""></div></div>","q","","shape_test_1","match","方","q","true","方"
"","null","html-keynbutton-response","199","2.0.0","1269174","2","<div class=""pb-14 text-7xl"">+</div>","null","fixation","","","","","",""
"","333","html-keynbutton-response","200","2.0.0","1269507","2","<div class=""flex flex-row stim-length pb-8 md:pd-20 justify-evenly items-center""><div class=""square""></div><div class=""circle""></div><div class=""square""></div></div>","p","","shape_test_1","mismatch","圆","p","true","圆"
"","null","html-keynbutton-response","201","2.0.0","1270024","2","<div class=""pb-14 text-7xl"">+</div>","null","fixation","","","","","",""
"","459","html-keynbutton-response","202","2.0.0","1270483","2","<div class=""flex flex-row stim-length pb-8 md:pd-20 justify-evenly items-center""><div class=""circle""></div><div class=""square""></div><div class=""circle""></div></div>","q","","shape_test_1","mismatch","方","q","true","方"
"","null","html-keynbutton-response","203","2.0.0","1270992","2","<div class=""pb-14 text-7xl"">+</div>","null","fixation","","","","","",""
"","371","html-keynbutton-response","204","2.0.0","1271363","2","<div class=""flex flex-row stim-length pb-8 md:pd-20 justify-evenly items-center""><div class=""circle""></div><div class=""circle""></div><div class=""circle""></div></div>","p","","shape_test_1","match","圆","p","true","圆"
"","null","html-keynbutton-response","205","2.0.0","1271874","2","<div class=""pb-14 text-7xl"">+</div>","null","fixation","","","","","",""
"","352","html-keynbutton-response","206","2.0.0","1272227","2","<div class=""flex flex-row stim-length pb-8 md:pd-20 justify-evenly items-center""><div class=""square""></div><div class=""square""></div><div class=""square""></div></div>","q","","shape_test_1","match","方","q","true","方"
"","null","html-keynbutton-response","207","2.0.0","1272740","2","<div class=""pb-14 text-7xl"">+</div>","null","fixation","","","","","",""
"","525","html-keynbutton-response","208","2.0.0","1273266","2","<div class=""flex flex-row stim-length pb-8 md:pd-20 justify-evenly items-center""><div class=""circle""></div><div class=""square""></div><div class=""circle""></div></div>","q","","shape_test_1","mismatch","方","q","true","方"
"","null","html-keynbutton-response","209","2.0.0","1273774","2","<div class=""pb-14 text-7xl"">+</div>","null","fixation","","","","","",""
"","404","html-keynbutton-response","210","2.0.0","1274178","2","<div class=""flex flex-row stim-length pb-8 md:pd-20 justify-evenly items-center""><div class=""circle""></div><div class=""circle""></div><div class=""circle""></div></div>","p","","shape_test_1","match","圆","p","true","圆"
"","null","html-keynbutton-response","211","2.0.0","1274691","2","<div class=""pb-14 text-7xl"">+</div>","null","fixation","","","","","",""
"","351","html-keynbutton-response","212","2.0.0","1275042","2","<div class=""flex flex-row stim-length pb-8 md:pd-20 justify-evenly items-center""><div class=""square""></div><div class=""circle""></div><div class=""square""></div></div>","p","","shape_test_1","mismatch","圆","p","true","圆"
"","null","html-keynbutton-response","213","2.0.0","1275557","2","<div class=""pb-14 text-7xl"">+</div>","null","fixation","","","","","",""
"","413","html-keynbutton-response","214","2.0.0","1275971","2","<div class=""flex flex-row stim-length pb-8 md:pd-20 justify-evenly items-center""><div class=""square""></div><div class=""circle""></div><div class=""square""></div></div>","p","","shape_test_1","mismatch","圆","p","true","圆"
"","null","html-keynbutton-response","215","2.0.0","1276475","2","<div class=""pb-14 text-7xl"">+</div>","null","fixation","","","","","",""
"","407","html-keynbutton-response","216","2.0.0","1276883","2","<div class=""flex flex-row stim-length pb-8 md:pd-20 justify-evenly items-center""><div class=""circle""></div><div class=""square""></div><div class=""circle""></div></div>","q","","shape_test_1","mismatch","方","q","true","方"
"","null","html-keynbutton-response","217","2.0.0","1277391","2","<div class=""pb-14 text-7xl"">+</div>","null","fixation","","","","","",""
"","371","html-keynbutton-response","218","2.0.0","1277763","2","<div class=""flex flex-row stim-length pb-8 md:pd-20 justify-evenly items-center""><div class=""circle""></div><div class=""circle""></div><div class=""circle""></div></div>","p","","shape_test_1","match","圆","p","true","圆"
"","null","html-keynbutton-response","219","2.0.0","1278273","2","<div class=""pb-14 text-7xl"">+</div>","null","fixation","","","","","",""
"","465","html-keynbutton-response","220","2.0.0","1278739","2","<div class=""flex flex-row stim-length pb-8 md:pd-20 justify-evenly items-center""><div class=""square""></div><div class=""square""></div><div class=""square""></div></div>","q","","shape_test_1","match","方","q","true","方"
"","null","html-keynbutton-response","221","2.0.0","1279242","2","<div class=""pb-14 text-7xl"">+</div>","null","fixation","","","","","",""
"","393","html-keynbutton-response","222","2.0.0","1279635","2","<div class=""flex flex-row stim-length pb-8 md:pd-20 justify-evenly items-center""><div class=""circle""></div><div class=""square""></div><div class=""circle""></div></div>","q","","shape_test_1","mismatch","方","q","true","方"
"","null","html-keynbutton-response","223","2.0.0","1280141","2","<div class=""pb-14 text-7xl"">+</div>","null","fixation","","","","","",""
"","373","html-keynbutton-response","224","2.0.0","1280515","2","<div class=""flex flex-row stim-length pb-8 md:pd-20 justify-evenly items-center""><div class=""circle""></div><div class=""circle""></div><div class=""circle""></div></div>","p","","shape_test_1","match","圆","p","true","圆"
"","null","html-keynbutton-response","225","2.0.0","1281024","2","<div class=""pb-14 text-7xl"">+</div>","null","fixation","","","","","",""
"","418","html-keynbutton-response","226","2.0.0","1281443","2","<div class=""flex flex-row stim-length pb-8 md:pd-20 justify-evenly items-center""><div class=""square""></div><div class=""circle""></div><div class=""square""></div></div>","p","","shape_test_1","mismatch","圆","p","true","圆"
"","null","html-keynbutton-response","227","2.0.0","1281957","2","<div class=""pb-14 text-7xl"">+</div>","null","fixation","","","","","",""
"","413","html-keynbutton-response","228","2.0.0","1282364","2","<div class=""flex flex-row stim-length pb-8 md:pd-20 justify-evenly items-center""><div class=""square""></div><div class=""square""></div><div class=""square""></div></div>","q","","shape_test_1","match","方","q","true","方"
"","2101","html-keynbutton-response","229","2.0.0","1284467","2","<div class=""jp""><p>您已完成2/10部分</p><p>请休息一会儿</p>
    <p>您的正确率是：95%</p>
    <p>您的平均反应时间是：415毫秒</p></div>"," ","block_feedback","","","","","",""
"","null","html-keynbutton-response","230","2.0.0","1287680","2","<count-down title=""""></count-down>","null","countDown_trial","","","","","",""
"","null","html-keynbutton-response","231","2.0.0","1288184","2","<div class=""pb-14 text-7xl"">+</div>","null","fixation","","","","","",""
"","612","html-keynbutton-response","232","2.0.0","1288797","2","<div class=""flex flex-row stim-length pb-8 md:pd-20 justify-evenly items-center""><div class=""circle""></div><div class=""circle""></div><div class=""circle""></div></div>","q","","shape_test_2","match","圆","p","false","方"
"","null","html-keynbutton-response","233","2.0.0","1289302","2","<div class=""pb-14 text-7xl"">+</div>","null","fixation","","","","","",""
"","408","html-keynbutton-response","234","2.0.0","1289710","2","<div class=""flex flex-row stim-length pb-8 md:pd-20 justify-evenly items-center""><div class=""circle""></div><div class=""square""></div><div class=""circle""></div></div>","q","","shape_test_2","mismatch","方","q","true","方"
"","null","html-keynbutton-response","235","2.0.0","1290217","2","<div class=""pb-14 text-7xl"">+</div>","null","fixation","","","","","",""
"","515","html-keynbutton-response","236","2.0.0","1290732","2","<div class=""flex flex-row stim-length pb-8 md:pd-20 justify-evenly items-center""><div class=""square""></div><div class=""square""></div><div class=""square""></div></div>","q","","shape_test_2","match","方","q","true","方"
"","null","html-keynbutton-response","237","2.0.0","1291235","2","<div class=""pb-14 text-7xl"">+</div>","null","fixation","","","","","",""
"","330","html-keynbutton-response","238","2.0.0","1291566","2","<div class=""flex flex-row stim-length pb-8 md:pd-20 justify-evenly items-center""><div class=""square""></div><div class=""circle""></div><div class=""square""></div></div>","p","","shape_test_2","mismatch","圆","p","true","圆"
"","null","html-keynbutton-response","239","2.0.0","1292068","2","<div class=""pb-14 text-7xl"">+</div>","null","fixation","","","","","",""
"","486","html-keynbutton-response","240","2.0.0","1292555","2","<div class=""flex flex-row stim-length pb-8 md:pd-20 justify-evenly items-center""><div class=""square""></div><div class=""square""></div><div class=""square""></div></div>","q","","shape_test_2","match","方","q","true","方"
"","null","html-keynbutton-response","241","2.0.0","1293067","2","<div class=""pb-14 text-7xl"">+</div>","null","fixation","","","","","",""
"","464","html-keynbutton-response","242","2.0.0","1293531","2","<div class=""flex flex-row stim-length pb-8 md:pd-20 justify-evenly items-center""><div class=""square""></div><div class=""circle""></div><div class=""square""></div></div>","p","","shape_test_2","mismatch","圆","p","true","圆"
"","null","html-keynbutton-response","243","2.0.0","1294034","2","<div class=""pb-14 text-7xl"">+</div>","null","fixation","","","","","",""
"","522","html-keynbutton-response","244","2.0.0","1294556","2","<div class=""flex flex-row stim-length pb-8 md:pd-20 justify-evenly items-center""><div class=""circle""></div><div class=""square""></div><div class=""circle""></div></div>","q","","shape_test_2","mismatch","方","q","true","方"
"","null","html-keynbutton-response","245","2.0.0","1295066","2","<div class=""pb-14 text-7xl"">+</div>","null","fixation","","","","","",""
"","401","html-keynbutton-response","246","2.0.0","1295468","2","<div class=""flex flex-row stim-length pb-8 md:pd-20 justify-evenly items-center""><div class=""circle""></div><div class=""circle""></div><div class=""circle""></div></div>","p","","shape_test_2","match","圆","p","true","圆"
"","null","html-keynbutton-response","247","2.0.0","1295983","2","<div class=""pb-14 text-7xl"">+</div>","null","fixation","","","","","",""
"","428","html-keynbutton-response","248","2.0.0","1296412","2","<div class=""flex flex-row stim-length pb-8 md:pd-20 justify-evenly items-center""><div class=""square""></div><div class=""circle""></div><div class=""square""></div></div>","p","","shape_test_2","mismatch","圆","p","true","圆"
"","null","html-keynbutton-response","249","2.0.0","1296919","2","<div class=""pb-14 text-7xl"">+</div>","null","fixation","","","","","",""
"","422","html-keynbutton-response","250","2.0.0","1297341","2","<div class=""flex flex-row stim-length pb-8 md:pd-20 justify-evenly items-center""><div class=""circle""></div><div class=""circle""></div><div class=""circle""></div></div>","p","","shape_test_2","match","圆","p","true","圆"
"","null","html-keynbutton-response","251","2.0.0","1297850","2","<div class=""pb-14 text-7xl"">+</div>","null","fixation","","","","","",""
"","384","html-keynbutton-response","252","2.0.0","1298235","2","<div class=""flex flex-row stim-length pb-8 md:pd-20 justify-evenly items-center""><div class=""square""></div><div class=""square""></div><div class=""square""></div></div>","q","","shape_test_2","match","方","q","true","方"
"","null","html-keynbutton-response","253","2.0.0","1298750","2","<div class=""pb-14 text-7xl"">+</div>","null","fixation","","","","","",""
"","381","html-keynbutton-response","254","2.0.0","1299132","2","<div class=""flex flex-row stim-length pb-8 md:pd-20 justify-evenly items-center""><div class=""circle""></div><div class=""square""></div><div class=""circle""></div></div>","q","","shape_test_2","mismatch","方","q","true","方"
"","null","html-keynbutton-response","255","2.0.0","1299635","2","<div class=""pb-14 text-7xl"">+</div>","null","fixation","","","","","",""
"","440","html-keynbutton-response","256","2.0.0","1300076","2","<div class=""flex flex-row stim-length pb-8 md:pd-20 justify-evenly items-center""><div class=""square""></div><div class=""square""></div><div class=""square""></div></div>","q","","shape_test_2","match","方","q","true","方"
"","null","html-keynbutton-response","257","2.0.0","1300585","2","<div class=""pb-14 text-7xl"">+</div>","null","fixation","","","","","",""
"","387","html-keynbutton-response","258","2.0.0","1300972","2","<div class=""flex flex-row stim-length pb-8 md:pd-20 justify-evenly items-center""><div class=""circle""></div><div class=""circle""></div><div class=""circle""></div></div>","p","","shape_test_2","match","圆","p","true","圆"
"","null","html-keynbutton-response","259","2.0.0","1301484","2","<div class=""pb-14 text-7xl"">+</div>","null","fixation","","","","","",""
"","368","html-keynbutton-response","260","2.0.0","1301852","2","<div class=""flex flex-row stim-length pb-8 md:pd-20 justify-evenly items-center""><div class=""square""></div><div class=""circle""></div><div class=""square""></div></div>","p","","shape_test_2","mismatch","圆","p","true","圆"
"","null","html-keynbutton-response","261","2.0.0","1302367","2","<div class=""pb-14 text-7xl"">+</div>","null","fixation","","","","","",""
"","445","html-keynbutton-response","262","2.0.0","1302812","2","<div class=""flex flex-row stim-length pb-8 md:pd-20 justify-evenly items-center""><div class=""circle""></div><div class=""square""></div><div class=""circle""></div></div>","q","","shape_test_2","mismatch","方","q","true","方"
"","null","html-keynbutton-response","263","2.0.0","1303318","2","<div class=""pb-14 text-7xl"">+</div>","null","fixation","","","","","",""
"","421","html-keynbutton-response","264","2.0.0","1303741","2","<div class=""flex flex-row stim-length pb-8 md:pd-20 justify-evenly items-center""><div class=""circle""></div><div class=""square""></div><div class=""circle""></div></div>","q","","shape_test_2","mismatch","方","q","true","方"
"","null","html-keynbutton-response","265","2.0.0","1304249","2","<div class=""pb-14 text-7xl"">+</div>","null","fixation","","","","","",""
"","387","html-keynbutton-response","266","2.0.0","1304636","2","<div class=""flex flex-row stim-length pb-8 md:pd-20 justify-evenly items-center""><div class=""square""></div><div class=""circle""></div><div class=""square""></div></div>","p","","shape_test_2","mismatch","圆","p","true","圆"
"","null","html-keynbutton-response","267","2.0.0","1305150","2","<div class=""pb-14 text-7xl"">+</div>","null","fixation","","","","","",""
"","382","html-keynbutton-response","268","2.0.0","1305532","2","<div class=""flex flex-row stim-length pb-8 md:pd-20 justify-evenly items-center""><div class=""circle""></div><div class=""circle""></div><div class=""circle""></div></div>","p","","shape_test_2","match","圆","p","true","圆"
"","null","html-keynbutton-response","269","2.0.0","1306034","2","<div class=""pb-14 text-7xl"">+</div>","null","fixation","","","","","",""
"","441","html-keynbutton-response","270","2.0.0","1306476","2","<div class=""flex flex-row stim-length pb-8 md:pd-20 justify-evenly items-center""><div class=""square""></div><div class=""square""></div><div class=""square""></div></div>","q","","shape_test_2","match","方","q","true","方"
"","null","html-keynbutton-response","271","2.0.0","1306984","2","<div class=""pb-14 text-7xl"">+</div>","null","fixation","","","","","",""
"","435","html-keynbutton-response","272","2.0.0","1307420","2","<div class=""flex flex-row stim-length pb-8 md:pd-20 justify-evenly items-center""><div class=""square""></div><div class=""circle""></div><div class=""square""></div></div>","p","","shape_test_2","mismatch","圆","p","true","圆"
"","null","html-keynbutton-response","273","2.0.0","1307934","2","<div class=""pb-14 text-7xl"">+</div>","null","fixation","","","","","",""
"","461","html-keynbutton-response","274","2.0.0","1308396","2","<div class=""flex flex-row stim-length pb-8 md:pd-20 justify-evenly items-center""><div class=""circle""></div><div class=""circle""></div><div class=""circle""></div></div>","p","","shape_test_2","match","圆","p","true","圆"
"","null","html-keynbutton-response","275","2.0.0","1308902","2","<div class=""pb-14 text-7xl"">+</div>","null","fixation","","","","","",""
"","452","html-keynbutton-response","276","2.0.0","1309355","2","<div class=""flex flex-row stim-length pb-8 md:pd-20 justify-evenly items-center""><div class=""square""></div><div class=""square""></div><div class=""square""></div></div>","q","","shape_test_2","match","方","q","true","方"
"","null","html-keynbutton-response","277","2.0.0","1309867","2","<div class=""pb-14 text-7xl"">+</div>","null","fixation","","","","","",""
"","447","html-keynbutton-response","278","2.0.0","1310315","2","<div class=""flex flex-row stim-length pb-8 md:pd-20 justify-evenly items-center""><div class=""circle""></div><div class=""square""></div><div class=""circle""></div></div>","q","","shape_test_2","mismatch","方","q","true","方"
"","null","html-keynbutton-response","279","2.0.0","1310818","2","<div class=""pb-14 text-7xl"">+</div>","null","fixation","","","","","",""
"","442","html-keynbutton-response","280","2.0.0","1311260","2","<div class=""flex flex-row stim-length pb-8 md:pd-20 justify-evenly items-center""><div class=""square""></div><div class=""circle""></div><div class=""square""></div></div>","p","","shape_test_2","mismatch","圆","p","true","圆"
"","null","html-keynbutton-response","281","2.0.0","1311767","2","<div class=""pb-14 text-7xl"">+</div>","null","fixation","","","","","",""
"","468","html-keynbutton-response","282","2.0.0","1312236","2","<div class=""flex flex-row stim-length pb-8 md:pd-20 justify-evenly items-center""><div class=""circle""></div><div class=""square""></div><div class=""circle""></div></div>","q","","shape_test_2","mismatch","方","q","true","方"
"","null","html-keynbutton-response","283","2.0.0","1312751","2","<div class=""pb-14 text-7xl"">+</div>","null","fixation","","","","","",""
"","365","html-keynbutton-response","284","2.0.0","1313116","2","<div class=""flex flex-row stim-length pb-8 md:pd-20 justify-evenly items-center""><div class=""circle""></div><div class=""circle""></div><div class=""circle""></div></div>","p","","shape_test_2","match","圆","p","true","圆"
"","null","html-keynbutton-response","285","2.0.0","1313618","2","<div class=""pb-14 text-7xl"">+</div>","null","fixation","","","","","",""
"","456","html-keynbutton-response","286","2.0.0","1314075","2","<div class=""flex flex-row stim-length pb-8 md:pd-20 justify-evenly items-center""><div class=""square""></div><div class=""square""></div><div class=""square""></div></div>","q","","shape_test_2","match","方","q","true","方"
"","null","html-keynbutton-response","287","2.0.0","1314584","2","<div class=""pb-14 text-7xl"">+</div>","null","fixation","","","","","",""
"","484","html-keynbutton-response","288","2.0.0","1315068","2","<div class=""flex flex-row stim-length pb-8 md:pd-20 justify-evenly items-center""><div class=""circle""></div><div class=""circle""></div><div class=""circle""></div></div>","p","","shape_test_2","match","圆","p","true","圆"
"","null","html-keynbutton-response","289","2.0.0","1315583","2","<div class=""pb-14 text-7xl"">+</div>","null","fixation","","","","","",""
"","397","html-keynbutton-response","290","2.0.0","1315980","2","<div class=""flex flex-row stim-length pb-8 md:pd-20 justify-evenly items-center""><div class=""circle""></div><div class=""square""></div><div class=""circle""></div></div>","q","","shape_test_2","mismatch","方","q","true","方"
"","null","html-keynbutton-response","291","2.0.0","1316485","2","<div class=""pb-14 text-7xl"">+</div>","null","fixation","","","","","",""
"","359","html-keynbutton-response","292","2.0.0","1316844","2","<div class=""flex flex-row stim-length pb-8 md:pd-20 justify-evenly items-center""><div class=""square""></div><div class=""circle""></div><div class=""square""></div></div>","p","","shape_test_2","mismatch","圆","p","true","圆"
"","null","html-keynbutton-response","293","2.0.0","1317351","2","<div class=""pb-14 text-7xl"">+</div>","null","fixation","","","","","",""
"","341","html-keynbutton-response","294","2.0.0","1317692","2","<div class=""flex flex-row stim-length pb-8 md:pd-20 justify-evenly items-center""><div class=""square""></div><div class=""square""></div><div class=""square""></div></div>","q","","shape_test_2","match","方","q","true","方"
"","null","html-keynbutton-response","295","2.0.0","1318199","2","<div class=""pb-14 text-7xl"">+</div>","null","fixation","","","","","",""
"","420","html-keynbutton-response","296","2.0.0","1318621","2","<div class=""flex flex-row stim-length pb-8 md:pd-20 justify-evenly items-center""><div class=""square""></div><div class=""circle""></div><div class=""square""></div></div>","p","","shape_test_2","mismatch","圆","p","true","圆"
"","null","html-keynbutton-response","297","2.0.0","1319134","2","<div class=""pb-14 text-7xl"">+</div>","null","fixation","","","","","",""
"","317","html-keynbutton-response","298","2.0.0","1319452","2","<div class=""flex flex-row stim-length pb-8 md:pd-20 justify-evenly items-center""><div class=""square""></div><div class=""square""></div><div class=""square""></div></div>","q","","shape_test_2","match","方","q","true","方"
"","null","html-keynbutton-response","299","2.0.0","1319966","2","<div class=""pb-14 text-7xl"">+</div>","null","fixation","","","","","",""
"","524","html-keynbutton-response","300","2.0.0","1320492","2","<div class=""flex flex-row stim-length pb-8 md:pd-20 justify-evenly items-center""><div class=""circle""></div><div class=""circle""></div><div class=""circle""></div></div>","p","","shape_test_2","match","圆","p","true","圆"
"","null","html-keynbutton-response","301","2.0.0","1321001","2","<div class=""pb-14 text-7xl"">+</div>","null","fixation","","","","","",""
"","418","html-keynbutton-response","302","2.0.0","1321419","2","<div class=""flex flex-row stim-length pb-8 md:pd-20 justify-evenly items-center""><div class=""circle""></div><div class=""square""></div><div class=""circle""></div></div>","q","","shape_test_2","mismatch","方","q","true","方"
"","null","html-keynbutton-response","303","2.0.0","1321934","2","<div class=""pb-14 text-7xl"">+</div>","null","fixation","","","","","",""
"","414","html-keynbutton-response","304","2.0.0","1322348","2","<div class=""flex flex-row stim-length pb-8 md:pd-20 justify-evenly items-center""><div class=""circle""></div><div class=""circle""></div><div class=""circle""></div></div>","p","","shape_test_2","match","圆","p","true","圆"
"","null","html-keynbutton-response","305","2.0.0","1322852","2","<div class=""pb-14 text-7xl"">+</div>","null","fixation","","","","","",""
"","456","html-keynbutton-response","306","2.0.0","1323308","2","<div class=""flex flex-row stim-length pb-8 md:pd-20 justify-evenly items-center""><div class=""square""></div><div class=""square""></div><div class=""square""></div></div>","q","","shape_test_2","match","方","q","true","方"
"","null","html-keynbutton-response","307","2.0.0","1323815","2","<div class=""pb-14 text-7xl"">+</div>","null","fixation","","","","","",""
"","501","html-keynbutton-response","308","2.0.0","1324316","2","<div class=""flex flex-row stim-length pb-8 md:pd-20 justify-evenly items-center""><div class=""circle""></div><div class=""square""></div><div class=""circle""></div></div>","q","","shape_test_2","mismatch","方","q","true","方"
"","null","html-keynbutton-response","309","2.0.0","1324818","2","<div class=""pb-14 text-7xl"">+</div>","null","fixation","","","","","",""
"","329","html-keynbutton-response","310","2.0.0","1325148","2","<div class=""flex flex-row stim-length pb-8 md:pd-20 justify-evenly items-center""><div class=""square""></div><div class=""circle""></div><div class=""square""></div></div>","p","","shape_test_2","mismatch","圆","p","true","圆"
"","2919","html-keynbutton-response","311","2.0.0","1328068","2","<div class=""jp""><p>您已完成3/10部分</p><p>请休息一会儿</p>
    <p>您的正确率是：98%</p>
    <p>您的平均反应时间是：428毫秒</p></div>"," ","block_feedback","","","","","",""
"","null","html-keynbutton-response","312","2.0.0","1331281","2","<count-down title=""""></count-down>","null","countDown_trial","","","","","",""
"","null","html-keynbutton-response","313","2.0.0","1331784","2","<div class=""pb-14 text-7xl"">+</div>","null","fixation","","","","","",""
"","403","html-keynbutton-response","314","2.0.0","1332188","2","<div class=""flex flex-row stim-length pb-8 md:pd-20 justify-evenly items-center""><div class=""circle""></div><div class=""circle""></div><div class=""circle""></div></div>","p","","shape_test_3","match","圆","p","true","圆"
"","null","html-keynbutton-response","315","2.0.0","1332700","2","<div class=""pb-14 text-7xl"">+</div>","null","fixation","","","","","",""
"","415","html-keynbutton-response","316","2.0.0","1333116","2","<div class=""flex flex-row stim-length pb-8 md:pd-20 justify-evenly items-center""><div class=""square""></div><div class=""square""></div><div class=""square""></div></div>","q","","shape_test_3","match","方","q","true","方"
"","null","html-keynbutton-response","317","2.0.0","1333618","2","<div class=""pb-14 text-7xl"">+</div>","null","fixation","","","","","",""
"","330","html-keynbutton-response","318","2.0.0","1333948","2","<div class=""flex flex-row stim-length pb-8 md:pd-20 justify-evenly items-center""><div class=""square""></div><div class=""circle""></div><div class=""square""></div></div>","p","","shape_test_3","mismatch","圆","p","true","圆"
"","null","html-keynbutton-response","319","2.0.0","1334451","2","<div class=""pb-14 text-7xl"">+</div>","null","fixation","","","","","",""
"","344","html-keynbutton-response","320","2.0.0","1334796","2","<div class=""flex flex-row stim-length pb-8 md:pd-20 justify-evenly items-center""><div class=""circle""></div><div class=""square""></div><div class=""circle""></div></div>","q","","shape_test_3","mismatch","方","q","true","方"
"","null","html-keynbutton-response","321","2.0.0","1335302","2","<div class=""pb-14 text-7xl"">+</div>","null","fixation","","","","","",""
"","373","html-keynbutton-response","322","2.0.0","1335676","2","<div class=""flex flex-row stim-length pb-8 md:pd-20 justify-evenly items-center""><div class=""square""></div><div class=""circle""></div><div class=""square""></div></div>","p","","shape_test_3","mismatch","圆","p","true","圆"
"","null","html-keynbutton-response","323","2.0.0","1336185","2","<div class=""pb-14 text-7xl"">+</div>","null","fixation","","","","","",""
"","355","html-keynbutton-response","324","2.0.0","1336540","2","<div class=""flex flex-row stim-length pb-8 md:pd-20 justify-evenly items-center""><div class=""square""></div><div class=""square""></div><div class=""square""></div></div>","q","","shape_test_3","match","方","q","true","方"
"","null","html-keynbutton-response","325","2.0.0","1337051","2","<div class=""pb-14 text-7xl"">+</div>","null","fixation","","","","","",""
"","433","html-keynbutton-response","326","2.0.0","1337484","2","<div class=""flex flex-row stim-length pb-8 md:pd-20 justify-evenly items-center""><div class=""circle""></div><div class=""square""></div><div class=""circle""></div></div>","q","","shape_test_3","mismatch","方","q","true","方"
"","null","html-keynbutton-response","327","2.0.0","1338001","2","<div class=""pb-14 text-7xl"">+</div>","null","fixation","","","","","",""
"","459","html-keynbutton-response","328","2.0.0","1338460","2","<div class=""flex flex-row stim-length pb-8 md:pd-20 justify-evenly items-center""><div class=""circle""></div><div class=""circle""></div><div class=""circle""></div></div>","p","","shape_test_3","match","圆","p","true","圆"
"","null","html-keynbutton-response","329","2.0.0","1338968","2","<div class=""pb-14 text-7xl"">+</div>","null","fixation","","","","","",""
"","404","html-keynbutton-response","330","2.0.0","1339372","2","<div class=""flex flex-row stim-length pb-8 md:pd-20 justify-evenly items-center""><div class=""circle""></div><div class=""square""></div><div class=""circle""></div></div>","q","","shape_test_3","mismatch","方","q","true","方"
"","null","html-keynbutton-response","331","2.0.0","1339883","2","<div class=""pb-14 text-7xl"">+</div>","null","fixation","","","","","",""
"","400","html-keynbutton-response","332","2.0.0","1340284","2","<div class=""flex flex-row stim-length pb-8 md:pd-20 justify-evenly items-center""><div class=""circle""></div><div class=""circle""></div><div class=""circle""></div></div>","q","","shape_test_3","match","圆","p","false","方"
"","null","html-keynbutton-response","333","2.0.0","1340800","2","<div class=""pb-14 text-7xl"">+</div>","null","fixation","","","","","",""
"","411","html-keynbutton-response","334","2.0.0","1341212","2","<div class=""flex flex-row stim-length pb-8 md:pd-20 justify-evenly items-center""><div class=""square""></div><div class=""square""></div><div class=""square""></div></div>","q","","shape_test_3","match","方","q","true","方"
"","null","html-keynbutton-response","335","2.0.0","1341719","2","<div class=""pb-14 text-7xl"">+</div>","null","fixation","","","","","",""
"","388","html-keynbutton-response","336","2.0.0","1342107","2","<div class=""flex flex-row stim-length pb-8 md:pd-20 justify-evenly items-center""><div class=""square""></div><div class=""circle""></div><div class=""square""></div></div>","p","","shape_test_3","mismatch","圆","p","true","圆"
"","null","html-keynbutton-response","337","2.0.0","1342624","2","<div class=""pb-14 text-7xl"">+</div>","null","fixation","","","","","",""
"","387","html-keynbutton-response","338","2.0.0","1343012","2","<div class=""flex flex-row stim-length pb-8 md:pd-20 justify-evenly items-center""><div class=""circle""></div><div class=""square""></div><div class=""circle""></div></div>","q","","shape_test_3","mismatch","方","q","true","方"
"","null","html-keynbutton-response","339","2.0.0","1343524","2","<div class=""pb-14 text-7xl"">+</div>","null","fixation","","","","","",""
"","399","html-keynbutton-response","340","2.0.0","1343924","2","<div class=""flex flex-row stim-length pb-8 md:pd-20 justify-evenly items-center""><div class=""circle""></div><div class=""circle""></div><div class=""circle""></div></div>","p","","shape_test_3","match","圆","p","true","圆"
"","null","html-keynbutton-response","341","2.0.0","1344425","2","<div class=""pb-14 text-7xl"">+</div>","null","fixation","","","","","",""
"","296","html-keynbutton-response","342","2.0.0","1344722","2","<div class=""flex flex-row stim-length pb-8 md:pd-20 justify-evenly items-center""><div class=""square""></div><div class=""circle""></div><div class=""square""></div></div>","p","","shape_test_3","mismatch","圆","p","true","圆"
"","null","html-keynbutton-response","343","2.0.0","1345226","2","<div class=""pb-14 text-7xl"">+</div>","null","fixation","","","","","",""
"","329","html-keynbutton-response","344","2.0.0","1345556","2","<div class=""flex flex-row stim-length pb-8 md:pd-20 justify-evenly items-center""><div class=""square""></div><div class=""square""></div><div class=""square""></div></div>","q","","shape_test_3","match","方","q","true","方"
"","null","html-keynbutton-response","345","2.0.0","1346058","2","<div class=""pb-14 text-7xl"">+</div>","null","fixation","","","","","",""
"","360","html-keynbutton-response","346","2.0.0","1346420","2","<div class=""flex flex-row stim-length pb-8 md:pd-20 justify-evenly items-center""><div class=""square""></div><div class=""square""></div><div class=""square""></div></div>","q","","shape_test_3","match","方","q","true","方"
"","null","html-keynbutton-response","347","2.0.0","1346926","2","<div class=""pb-14 text-7xl"">+</div>","null","fixation","","","","","",""
"","357","html-keynbutton-response","348","2.0.0","1347284","2","<div class=""flex flex-row stim-length pb-8 md:pd-20 justify-evenly items-center""><div class=""circle""></div><div class=""circle""></div><div class=""circle""></div></div>","p","","shape_test_3","match","圆","p","true","圆"
"","null","html-keynbutton-response","349","2.0.0","1347792","2","<div class=""pb-14 text-7xl"">+</div>","null","fixation","","","","","",""
"","451","html-keynbutton-response","350","2.0.0","1348244","2","<div class=""flex flex-row stim-length pb-8 md:pd-20 justify-evenly items-center""><div class=""circle""></div><div class=""square""></div><div class=""circle""></div></div>","q","","shape_test_3","mismatch","方","q","true","方"
"","null","html-keynbutton-response","351","2.0.0","1348758","2","<div class=""pb-14 text-7xl"">+</div>","null","fixation","","","","","",""
"","365","html-keynbutton-response","352","2.0.0","1349124","2","<div class=""flex flex-row stim-length pb-8 md:pd-20 justify-evenly items-center""><div class=""square""></div><div class=""circle""></div><div class=""square""></div></div>","p","","shape_test_3","mismatch","圆","p","true","圆"
"","null","html-keynbutton-response","353","2.0.0","1349626","2","<div class=""pb-14 text-7xl"">+</div>","null","fixation","","","","","",""
"","473","html-keynbutton-response","354","2.0.0","1350100","2","<div class=""flex flex-row stim-length pb-8 md:pd-20 justify-evenly items-center""><div class=""circle""></div><div class=""circle""></div><div class=""circle""></div></div>","p","","shape_test_3","match","圆","p","true","圆"
"","null","html-keynbutton-response","355","2.0.0","1350607","2","<div class=""pb-14 text-7xl"">+</div>","null","fixation","","","","","",""
"","420","html-keynbutton-response","356","2.0.0","1351028","2","<div class=""flex flex-row stim-length pb-8 md:pd-20 justify-evenly items-center""><div class=""square""></div><div class=""circle""></div><div class=""square""></div></div>","p","","shape_test_3","mismatch","圆","p","true","圆"
"","null","html-keynbutton-response","357","2.0.0","1351541","2","<div class=""pb-14 text-7xl"">+</div>","null","fixation","","","","","",""
"","414","html-keynbutton-response","358","2.0.0","1351956","2","<div class=""flex flex-row stim-length pb-8 md:pd-20 justify-evenly items-center""><div class=""circle""></div><div class=""square""></div><div class=""circle""></div></div>","q","","shape_test_3","mismatch","方","q","true","方"
"","null","html-keynbutton-response","359","2.0.0","1352458","2","<div class=""pb-14 text-7xl"">+</div>","null","fixation","","","","","",""
"","392","html-keynbutton-response","360","2.0.0","1352852","2","<div class=""flex flex-row stim-length pb-8 md:pd-20 justify-evenly items-center""><div class=""square""></div><div class=""square""></div><div class=""square""></div></div>","q","","shape_test_3","match","方","q","true","方"
"","null","html-keynbutton-response","361","2.0.0","1353358","2","<div class=""pb-14 text-7xl"">+</div>","null","fixation","","","","","",""
"","420","html-keynbutton-response","362","2.0.0","1353779","2","<div class=""flex flex-row stim-length pb-8 md:pd-20 justify-evenly items-center""><div class=""square""></div><div class=""square""></div><div class=""square""></div></div>","q","","shape_test_3","match","方","q","true","方"
"","null","html-keynbutton-response","363","2.0.0","1354291","2","<div class=""pb-14 text-7xl"">+</div>","null","fixation","","","","","",""
"","447","html-keynbutton-response","364","2.0.0","1354739","2","<div class=""flex flex-row stim-length pb-8 md:pd-20 justify-evenly items-center""><div class=""circle""></div><div class=""circle""></div><div class=""circle""></div></div>","p","","shape_test_3","match","圆","p","true","圆"
"","null","html-keynbutton-response","365","2.0.0","1355242","2","<div class=""pb-14 text-7xl"">+</div>","null","fixation","","","","","",""
"","409","html-keynbutton-response","366","2.0.0","1355652","2","<div class=""flex flex-row stim-length pb-8 md:pd-20 justify-evenly items-center""><div class=""square""></div><div class=""circle""></div><div class=""square""></div></div>","p","","shape_test_3","mismatch","圆","p","true","圆"
"","null","html-keynbutton-response","367","2.0.0","1356158","2","<div class=""pb-14 text-7xl"">+</div>","null","fixation","","","","","",""
"","420","html-keynbutton-response","368","2.0.0","1356580","2","<div class=""flex flex-row stim-length pb-8 md:pd-20 justify-evenly items-center""><div class=""circle""></div><div class=""square""></div><div class=""circle""></div></div>","q","","shape_test_3","mismatch","方","q","true","方"
"","null","html-keynbutton-response","369","2.0.0","1357091","2","<div class=""pb-14 text-7xl"">+</div>","null","fixation","","","","","",""
"","400","html-keynbutton-response","370","2.0.0","1357492","2","<div class=""flex flex-row stim-length pb-8 md:pd-20 justify-evenly items-center""><div class=""circle""></div><div class=""circle""></div><div class=""circle""></div></div>","p","","shape_test_3","match","圆","p","true","圆"
"","null","html-keynbutton-response","371","2.0.0","1358008","2","<div class=""pb-14 text-7xl"">+</div>","null","fixation","","","","","",""
"","379","html-keynbutton-response","372","2.0.0","1358388","2","<div class=""flex flex-row stim-length pb-8 md:pd-20 justify-evenly items-center""><div class=""square""></div><div class=""square""></div><div class=""square""></div></div>","q","","shape_test_3","match","方","q","true","方"
"","null","html-keynbutton-response","373","2.0.0","1358892","2","<div class=""pb-14 text-7xl"">+</div>","null","fixation","","","","","",""
"","295","html-keynbutton-response","374","2.0.0","1359188","2","<div class=""flex flex-row stim-length pb-8 md:pd-20 justify-evenly items-center""><div class=""square""></div><div class=""circle""></div><div class=""square""></div></div>","p","","shape_test_3","mismatch","圆","p","true","圆"
"","null","html-keynbutton-response","375","2.0.0","1359692","2","<div class=""pb-14 text-7xl"">+</div>","null","fixation","","","","","",""
"","455","html-keynbutton-response","376","2.0.0","1360148","2","<div class=""flex flex-row stim-length pb-8 md:pd-20 justify-evenly items-center""><div class=""circle""></div><div class=""square""></div><div class=""circle""></div></div>","q","","shape_test_3","mismatch","方","q","true","方"
"","null","html-keynbutton-response","377","2.0.0","1360658","2","<div class=""pb-14 text-7xl"">+</div>","null","fixation","","","","","",""
"","529","html-keynbutton-response","378","2.0.0","1361188","2","<div class=""flex flex-row stim-length pb-8 md:pd-20 justify-evenly items-center""><div class=""square""></div><div class=""square""></div><div class=""square""></div></div>","q","","shape_test_3","match","方","q","true","方"
"","null","html-keynbutton-response","379","2.0.0","1361691","2","<div class=""pb-14 text-7xl"">+</div>","null","fixation","","","","","",""
"","409","html-keynbutton-response","380","2.0.0","1362101","2","<div class=""flex flex-row stim-length pb-8 md:pd-20 justify-evenly items-center""><div class=""circle""></div><div class=""square""></div><div class=""circle""></div></div>","q","","shape_test_3","mismatch","方","q","true","方"
"","null","html-keynbutton-response","381","2.0.0","1362608","2","<div class=""pb-14 text-7xl"">+</div>","null","fixation","","","","","",""
"","418","html-keynbutton-response","382","2.0.0","1363028","2","<div class=""flex flex-row stim-length pb-8 md:pd-20 justify-evenly items-center""><div class=""circle""></div><div class=""circle""></div><div class=""circle""></div></div>","p","","shape_test_3","match","圆","p","true","圆"
"","null","html-keynbutton-response","383","2.0.0","1363540","2","<div class=""pb-14 text-7xl"">+</div>","null","fixation","","","","","",""
"","590","html-keynbutton-response","384","2.0.0","1364131","2","<div class=""flex flex-row stim-length pb-8 md:pd-20 justify-evenly items-center""><div class=""square""></div><div class=""circle""></div><div class=""square""></div></div>","p","","shape_test_3","mismatch","圆","p","true","圆"
"","null","html-keynbutton-response","385","2.0.0","1364641","2","<div class=""pb-14 text-7xl"">+</div>","null","fixation","","","","","",""
"","402","html-keynbutton-response","386","2.0.0","1365044","2","<div class=""flex flex-row stim-length pb-8 md:pd-20 justify-evenly items-center""><div class=""square""></div><div class=""circle""></div><div class=""square""></div></div>","p","","shape_test_3","mismatch","圆","p","true","圆"
"","null","html-keynbutton-response","387","2.0.0","1365557","2","<div class=""pb-14 text-7xl"">+</div>","null","fixation","","","","","",""
"","526","html-keynbutton-response","388","2.0.0","1366084","2","<div class=""flex flex-row stim-length pb-8 md:pd-20 justify-evenly items-center""><div class=""circle""></div><div class=""circle""></div><div class=""circle""></div></div>","p","","shape_test_3","match","圆","p","true","圆"
"","null","html-keynbutton-response","389","2.0.0","1366592","2","<div class=""pb-14 text-7xl"">+</div>","null","fixation","","","","","",""
"","403","html-keynbutton-response","390","2.0.0","1366996","2","<div class=""flex flex-row stim-length pb-8 md:pd-20 justify-evenly items-center""><div class=""square""></div><div class=""square""></div><div class=""square""></div></div>","q","","shape_test_3","match","方","q","true","方"
"","null","html-keynbutton-response","391","2.0.0","1367507","2","<div class=""pb-14 text-7xl"">+</div>","null","fixation","","","","","",""
"","383","html-keynbutton-response","392","2.0.0","1367891","2","<div class=""flex flex-row stim-length pb-8 md:pd-20 justify-evenly items-center""><div class=""circle""></div><div class=""square""></div><div class=""circle""></div></div>","q","","shape_test_3","mismatch","方","q","true","方"
"","2383","html-keynbutton-response","393","2.0.0","1370275","2","<div class=""jp""><p>您已完成4/10部分</p><p>请休息一会儿</p>
    <p>您的正确率是：98%</p>
    <p>您的平均反应时间是：406毫秒</p></div>"," ","block_feedback","","","","","",""
"","null","html-keynbutton-response","394","2.0.0","1373488","2","<count-down title=""""></count-down>","null","countDown_trial","","","","","",""
"","null","html-keynbutton-response","395","2.0.0","1373992","2","<div class=""pb-14 text-7xl"">+</div>","null","fixation","","","","","",""
"","363","html-keynbutton-response","396","2.0.0","1374356","2","<div class=""flex flex-row stim-length pb-8 md:pd-20 justify-evenly items-center""><div class=""square""></div><div class=""circle""></div><div class=""square""></div></div>","p","","shape_test_4","mismatch","圆","p","true","圆"
"","null","html-keynbutton-response","397","2.0.0","1374860","2","<div class=""pb-14 text-7xl"">+</div>","null","fixation","","","","","",""
"","343","html-keynbutton-response","398","2.0.0","1375204","2","<div class=""flex flex-row stim-length pb-8 md:pd-20 justify-evenly items-center""><div class=""circle""></div><div class=""square""></div><div class=""circle""></div></div>","q","","shape_test_4","mismatch","方","q","true","方"
"","null","html-keynbutton-response","399","2.0.0","1375709","2","<div class=""pb-14 text-7xl"">+</div>","null","fixation","","","","","",""
"","309","html-keynbutton-response","400","2.0.0","1376019","2","<div class=""flex flex-row stim-length pb-8 md:pd-20 justify-evenly items-center""><div class=""circle""></div><div class=""circle""></div><div class=""circle""></div></div>","p","","shape_test_4","match","圆","p","true","圆"
"","null","html-keynbutton-response","401","2.0.0","1376525","2","<div class=""pb-14 text-7xl"">+</div>","null","fixation","","","","","",""
"","374","html-keynbutton-response","402","2.0.0","1376900","2","<div class=""flex flex-row stim-length pb-8 md:pd-20 justify-evenly items-center""><div class=""square""></div><div class=""square""></div><div class=""square""></div></div>","q","","shape_test_4","match","方","q","true","方"
"","null","html-keynbutton-response","403","2.0.0","1377406","2","<div class=""pb-14 text-7xl"">+</div>","null","fixation","","","","","",""
"","341","html-keynbutton-response","404","2.0.0","1377748","2","<div class=""flex flex-row stim-length pb-8 md:pd-20 justify-evenly items-center""><div class=""square""></div><div class=""circle""></div><div class=""square""></div></div>","p","","shape_test_4","mismatch","圆","p","true","圆"
"","null","html-keynbutton-response","405","2.0.0","1378257","2","<div class=""pb-14 text-7xl"">+</div>","null","fixation","","","","","",""
"","306","html-keynbutton-response","406","2.0.0","1378564","2","<div class=""flex flex-row stim-length pb-8 md:pd-20 justify-evenly items-center""><div class=""square""></div><div class=""square""></div><div class=""square""></div></div>","q","","shape_test_4","match","方","q","true","方"
"","null","html-keynbutton-response","407","2.0.0","1379074","2","<div class=""pb-14 text-7xl"">+</div>","null","fixation","","","","","",""
"","449","html-keynbutton-response","408","2.0.0","1379524","2","<div class=""flex flex-row stim-length pb-8 md:pd-20 justify-evenly items-center""><div class=""circle""></div><div class=""square""></div><div class=""circle""></div></div>","q","","shape_test_4","mismatch","方","q","true","方"
"","null","html-keynbutton-response","409","2.0.0","1380026","2","<div class=""pb-14 text-7xl"">+</div>","null","fixation","","","","","",""
"","441","html-keynbutton-response","410","2.0.0","1380468","2","<div class=""flex flex-row stim-length pb-8 md:pd-20 justify-evenly items-center""><div class=""circle""></div><div class=""circle""></div><div class=""circle""></div></div>","p","","shape_test_4","match","圆","p","true","圆"
"","null","html-keynbutton-response","411","2.0.0","1380976","2","<div class=""pb-14 text-7xl"">+</div>","null","fixation","","","","","",""
"","387","html-keynbutton-response","412","2.0.0","1381364","2","<div class=""flex flex-row stim-length pb-8 md:pd-20 justify-evenly items-center""><div class=""square""></div><div class=""square""></div><div class=""square""></div></div>","q","","shape_test_4","match","方","q","true","方"
"","null","html-keynbutton-response","413","2.0.0","1381874","2","<div class=""pb-14 text-7xl"">+</div>","null","fixation","","","","","",""
"","416","html-keynbutton-response","414","2.0.0","1382292","2","<div class=""flex flex-row stim-length pb-8 md:pd-20 justify-evenly items-center""><div class=""circle""></div><div class=""circle""></div><div class=""circle""></div></div>","p","","shape_test_4","match","圆","p","true","圆"
"","null","html-keynbutton-response","415","2.0.0","1382807","2","<div class=""pb-14 text-7xl"">+</div>","null","fixation","","","","","",""
"","427","html-keynbutton-response","416","2.0.0","1383235","2","<div class=""flex flex-row stim-length pb-8 md:pd-20 justify-evenly items-center""><div class=""square""></div><div class=""circle""></div><div class=""square""></div></div>","p","","shape_test_4","mismatch","圆","p","true","圆"
"","null","html-keynbutton-response","417","2.0.0","1383741","2","<div class=""pb-14 text-7xl"">+</div>","null","fixation","","","","","",""
"","503","html-keynbutton-response","418","2.0.0","1384244","2","<div class=""flex flex-row stim-length pb-8 md:pd-20 justify-evenly items-center""><div class=""circle""></div><div class=""square""></div><div class=""circle""></div></div>","q","","shape_test_4","mismatch","方","q","true","方"
"","null","html-keynbutton-response","419","2.0.0","1384757","2","<div class=""pb-14 text-7xl"">+</div>","null","fixation","","","","","",""
"","478","html-keynbutton-response","420","2.0.0","1385236","2","<div class=""flex flex-row stim-length pb-8 md:pd-20 justify-evenly items-center""><div class=""circle""></div><div class=""circle""></div><div class=""circle""></div></div>","p","","shape_test_4","match","圆","p","true","圆"
"","null","html-keynbutton-response","421","2.0.0","1385742","2","<div class=""pb-14 text-7xl"">+</div>","null","fixation","","","","","",""
"","437","html-keynbutton-response","422","2.0.0","1386180","2","<div class=""flex flex-row stim-length pb-8 md:pd-20 justify-evenly items-center""><div class=""square""></div><div class=""circle""></div><div class=""square""></div></div>","p","","shape_test_4","mismatch","圆","p","true","圆"
"","null","html-keynbutton-response","423","2.0.0","1386691","2","<div class=""pb-14 text-7xl"">+</div>","null","fixation","","","","","",""
"","448","html-keynbutton-response","424","2.0.0","1387139","2","<div class=""flex flex-row stim-length pb-8 md:pd-20 justify-evenly items-center""><div class=""square""></div><div class=""square""></div><div class=""square""></div></div>","q","","shape_test_4","match","方","q","true","方"
"","null","html-keynbutton-response","425","2.0.0","1387641","2","<div class=""pb-14 text-7xl"">+</div>","null","fixation","","","","","",""
"","362","html-keynbutton-response","426","2.0.0","1388004","2","<div class=""flex flex-row stim-length pb-8 md:pd-20 justify-evenly items-center""><div class=""circle""></div><div class=""square""></div><div class=""circle""></div></div>","p","","shape_test_4","mismatch","方","q","false","圆"
"","null","html-keynbutton-response","427","2.0.0","1388509","2","<div class=""pb-14 text-7xl"">+</div>","null","fixation","","","","","",""
"","597","html-keynbutton-response","428","2.0.0","1389107","2","<div class=""flex flex-row stim-length pb-8 md:pd-20 justify-evenly items-center""><div class=""square""></div><div class=""square""></div><div class=""square""></div></div>","q","","shape_test_4","match","方","q","true","方"
"","null","html-keynbutton-response","429","2.0.0","1389609","2","<div class=""pb-14 text-7xl"">+</div>","null","fixation","","","","","",""
"","394","html-keynbutton-response","430","2.0.0","1390004","2","<div class=""flex flex-row stim-length pb-8 md:pd-20 justify-evenly items-center""><div class=""circle""></div><div class=""square""></div><div class=""circle""></div></div>","q","","shape_test_4","mismatch","方","q","true","方"
"","null","html-keynbutton-response","431","2.0.0","1390509","2","<div class=""pb-14 text-7xl"">+</div>","null","fixation","","","","","",""
"","358","html-keynbutton-response","432","2.0.0","1390868","2","<div class=""flex flex-row stim-length pb-8 md:pd-20 justify-evenly items-center""><div class=""square""></div><div class=""circle""></div><div class=""square""></div></div>","p","","shape_test_4","mismatch","圆","p","true","圆"
"","null","html-keynbutton-response","433","2.0.0","1391375","2","<div class=""pb-14 text-7xl"">+</div>","null","fixation","","","","","",""
"","404","html-keynbutton-response","434","2.0.0","1391780","2","<div class=""flex flex-row stim-length pb-8 md:pd-20 justify-evenly items-center""><div class=""circle""></div><div class=""circle""></div><div class=""circle""></div></div>","p","","shape_test_4","match","圆","p","true","圆"
"","null","html-keynbutton-response","435","2.0.0","1392291","2","<div class=""pb-14 text-7xl"">+</div>","null","fixation","","","","","",""
"","415","html-keynbutton-response","436","2.0.0","1392708","2","<div class=""flex flex-row stim-length pb-8 md:pd-20 justify-evenly items-center""><div class=""circle""></div><div class=""circle""></div><div class=""circle""></div></div>","p","","shape_test_4","match","圆","p","true","圆"
"","null","html-keynbutton-response","437","2.0.0","1393209","2","<div class=""pb-14 text-7xl"">+</div>","null","fixation","","","","","",""
"","490","html-keynbutton-response","438","2.0.0","1393700","2","<div class=""flex flex-row stim-length pb-8 md:pd-20 justify-evenly items-center""><div class=""circle""></div><div class=""square""></div><div class=""circle""></div></div>","q","","shape_test_4","mismatch","方","q","true","方"
"","null","html-keynbutton-response","439","2.0.0","1394209","2","<div class=""pb-14 text-7xl"">+</div>","null","fixation","","","","","",""
"","482","html-keynbutton-response","440","2.0.0","1394692","2","<div class=""flex flex-row stim-length pb-8 md:pd-20 justify-evenly items-center""><div class=""square""></div><div class=""square""></div><div class=""square""></div></div>","q","","shape_test_4","match","方","q","true","方"
"","null","html-keynbutton-response","441","2.0.0","1395208","2","<div class=""pb-14 text-7xl"">+</div>","null","fixation","","","","","",""
"","507","html-keynbutton-response","442","2.0.0","1395716","2","<div class=""flex flex-row stim-length pb-8 md:pd-20 justify-evenly items-center""><div class=""square""></div><div class=""circle""></div><div class=""square""></div></div>","p","","shape_test_4","mismatch","圆","p","true","圆"
"","null","html-keynbutton-response","443","2.0.0","1396224","2","<div class=""pb-14 text-7xl"">+</div>","null","fixation","","","","","",""
"","1059","html-keynbutton-response","444","2.0.0","1397284","2","<div class=""flex flex-row stim-length pb-8 md:pd-20 justify-evenly items-center""><div class=""square""></div><div class=""square""></div><div class=""square""></div></div>","q","","shape_test_4","match","方","q","true","方"
"","null","html-keynbutton-response","445","2.0.0","1397791","2","<div class=""pb-14 text-7xl"">+</div>","null","fixation","","","","","",""
"","355","html-keynbutton-response","446","2.0.0","1398147","2","<div class=""flex flex-row stim-length pb-8 md:pd-20 justify-evenly items-center""><div class=""square""></div><div class=""circle""></div><div class=""square""></div></div>","p","","shape_test_4","mismatch","圆","p","true","圆"
"","null","html-keynbutton-response","447","2.0.0","1398658","2","<div class=""pb-14 text-7xl"">+</div>","null","fixation","","","","","",""
"","417","html-keynbutton-response","448","2.0.0","1399076","2","<div class=""flex flex-row stim-length pb-8 md:pd-20 justify-evenly items-center""><div class=""circle""></div><div class=""circle""></div><div class=""circle""></div></div>","p","","shape_test_4","match","圆","p","true","圆"
"","null","html-keynbutton-response","449","2.0.0","1399591","2","<div class=""pb-14 text-7xl"">+</div>","null","fixation","","","","","",""
"","524","html-keynbutton-response","450","2.0.0","1400116","2","<div class=""flex flex-row stim-length pb-8 md:pd-20 justify-evenly items-center""><div class=""circle""></div><div class=""square""></div><div class=""circle""></div></div>","q","","shape_test_4","mismatch","方","q","true","方"
"","null","html-keynbutton-response","451","2.0.0","1400623","2","<div class=""pb-14 text-7xl"">+</div>","null","fixation","","","","","",""
"","515","html-keynbutton-response","452","2.0.0","1401140","2","<div class=""flex flex-row stim-length pb-8 md:pd-20 justify-evenly items-center""><div class=""square""></div><div class=""square""></div><div class=""square""></div></div>","q","","shape_test_4","match","方","q","true","方"
"","null","html-keynbutton-response","453","2.0.0","1401642","2","<div class=""pb-14 text-7xl"">+</div>","null","fixation","","","","","",""
"","377","html-keynbutton-response","454","2.0.0","1402020","2","<div class=""flex flex-row stim-length pb-8 md:pd-20 justify-evenly items-center""><div class=""circle""></div><div class=""circle""></div><div class=""circle""></div></div>","p","","shape_test_4","match","圆","p","true","圆"
"","null","html-keynbutton-response","455","2.0.0","1402525","2","<div class=""pb-14 text-7xl"">+</div>","null","fixation","","","","","",""
"","454","html-keynbutton-response","456","2.0.0","1402978","2","<div class=""flex flex-row stim-length pb-8 md:pd-20 justify-evenly items-center""><div class=""square""></div><div class=""circle""></div><div class=""square""></div></div>","p","","shape_test_4","mismatch","圆","p","true","圆"
"","null","html-keynbutton-response","457","2.0.0","1403490","2","<div class=""pb-14 text-7xl"">+</div>","null","fixation","","","","","",""
"","352","html-keynbutton-response","458","2.0.0","1403842","2","<div class=""flex flex-row stim-length pb-8 md:pd-20 justify-evenly items-center""><div class=""circle""></div><div class=""square""></div><div class=""circle""></div></div>","q","","shape_test_4","mismatch","方","q","true","方"
"","null","html-keynbutton-response","459","2.0.0","1404356","2","<div class=""pb-14 text-7xl"">+</div>","null","fixation","","","","","",""
"","381","html-keynbutton-response","460","2.0.0","1404738","2","<div class=""flex flex-row stim-length pb-8 md:pd-20 justify-evenly items-center""><div class=""square""></div><div class=""circle""></div><div class=""square""></div></div>","p","","shape_test_4","mismatch","圆","p","true","圆"
"","null","html-keynbutton-response","461","2.0.0","1405241","2","<div class=""pb-14 text-7xl"">+</div>","null","fixation","","","","","",""
"","392","html-keynbutton-response","462","2.0.0","1405634","2","<div class=""flex flex-row stim-length pb-8 md:pd-20 justify-evenly items-center""><div class=""circle""></div><div class=""circle""></div><div class=""circle""></div></div>","p","","shape_test_4","match","圆","p","true","圆"
"","null","html-keynbutton-response","463","2.0.0","1406140","2","<div class=""pb-14 text-7xl"">+</div>","null","fixation","","","","","",""
"","389","html-keynbutton-response","464","2.0.0","1406530","2","<div class=""flex flex-row stim-length pb-8 md:pd-20 justify-evenly items-center""><div class=""circle""></div><div class=""square""></div><div class=""circle""></div></div>","q","","shape_test_4","mismatch","方","q","true","方"
"","null","html-keynbutton-response","465","2.0.0","1407039","2","<div class=""pb-14 text-7xl"">+</div>","null","fixation","","","","","",""
"","482","html-keynbutton-response","466","2.0.0","1407522","2","<div class=""flex flex-row stim-length pb-8 md:pd-20 justify-evenly items-center""><div class=""square""></div><div class=""square""></div><div class=""square""></div></div>","q","","shape_test_4","match","方","q","true","方"
"","null","html-keynbutton-response","467","2.0.0","1408023","2","<div class=""pb-14 text-7xl"">+</div>","null","fixation","","","","","",""
