"success","rt","trial_type","trial_index","plugin_version","time_elapsed","subj_id","stimulus","response","trail_tag","task","ismatch","target","correct_key","correct","response_key"
"true","3557782","fullscreen","0","2.0.0","3558781","21","","","","","","","","",""
"","17184","html-keynbutton-response","1","2.0.0","3575970","21","
        <div class=""jp px-2 xxs:px-5 mx-auto"">
        <p class=""text-center text-red-600 text-[1.2em] pb-5"">欢迎您参加知觉
          <strong>匹配实验。</strong>
        </p>
        <p>接下来的任务中您将看到一排图形。</p>
        <p>(圆形●或方形■)</p><p>您需要专注于中间的图形，判断中间的图形和两侧的图形<strong>是否匹配</strong>。</p>
        <p>如果图形不匹配，请按“q”；</p>
        <p>如果图形匹配，请按“p”。</p>
        <p>请尽量又快又准地做出反应。</p>
      <p>请按空格键开始练习。</p>
      </div>"," ","","","","","","",""
"","null","html-keynbutton-response","2","2.0.0","3579177","21","<count-down title=""""></count-down>","null","countDown_trial","","","","","",""
"","null","html-keynbutton-response","3","2.0.0","3579682","21","<div class=""pb-14 text-7xl"">+</div>","null","fixation","","","","","",""
"","1036","html-keynbutton-response","4","2.0.0","3580721","21","<div class=""flex flex-row stim-length pb-8 md:pd-20 justify-evenly items-center""><div class=""circle""></div><div class=""circle""></div><div class=""circle""></div></div>","p","","matchness_practice","match","圆","p","true","match"
"","null","html-keynbutton-response","5","2.0.0","3581230","21","<span class='text-green-400 text-4xl md:text-5xl lg:text-6xl'>正确!</span>","null","trial_feedback","","","","","",""
"","null","html-keynbutton-response","6","2.0.0","3581746","21","<div class=""pb-14 text-7xl"">+</div>","null","fixation","","","","","",""
"","765","html-keynbutton-response","7","2.0.0","3582513","21","<div class=""flex flex-row stim-length pb-8 md:pd-20 justify-evenly items-center""><div class=""square""></div><div class=""circle""></div><div class=""square""></div></div>","q","","matchness_practice","mismatch","圆","q","true","mismatch"
"","null","html-keynbutton-response","8","2.0.0","3583029","21","<span class='text-green-400 text-4xl md:text-5xl lg:text-6xl'>正确!</span>","null","trial_feedback","","","","","",""
"","null","html-keynbutton-response","9","2.0.0","3583546","21","<div class=""pb-14 text-7xl"">+</div>","null","fixation","","","","","",""
"","406","html-keynbutton-response","10","2.0.0","3583952","21","<div class=""flex flex-row stim-length pb-8 md:pd-20 justify-evenly items-center""><div class=""square""></div><div class=""square""></div><div class=""square""></div></div>","p","","matchness_practice","match","方","p","true","match"
"","null","html-keynbutton-response","11","2.0.0","3584462","21","<span class='text-green-400 text-4xl md:text-5xl lg:text-6xl'>正确!</span>","null","trial_feedback","","","","","",""
"","null","html-keynbutton-response","12","2.0.0","3584979","21","<div class=""pb-14 text-7xl"">+</div>","null","fixation","","","","","",""
"","428","html-keynbutton-response","13","2.0.0","3585408","21","<div class=""flex flex-row stim-length pb-8 md:pd-20 justify-evenly items-center""><div class=""circle""></div><div class=""square""></div><div class=""circle""></div></div>","q","","matchness_practice","mismatch","方","q","true","mismatch"
"","null","html-keynbutton-response","14","2.0.0","3585914","21","<span class='text-green-400 text-4xl md:text-5xl lg:text-6xl'>正确!</span>","null","trial_feedback","","","","","",""
"","null","html-keynbutton-response","15","2.0.0","3586429","21","<div class=""pb-14 text-7xl"">+</div>","null","fixation","","","","","",""
"","323","html-keynbutton-response","16","2.0.0","3586752","21","<div class=""flex flex-row stim-length pb-8 md:pd-20 justify-evenly items-center""><div class=""square""></div><div class=""circle""></div><div class=""square""></div></div>","p","","matchness_practice","mismatch","圆","q","false","match"
"","null","html-keynbutton-response","17","2.0.0","3587262","21","<span class='text-red-500 text-4xl md:text-5xl lg:text-6xl'>错误!</span>","null","trial_feedback","","","","","",""
"","null","html-keynbutton-response","18","2.0.0","3587764","21","<div class=""pb-14 text-7xl"">+</div>","null","fixation","","","","","",""
"","396","html-keynbutton-response","19","2.0.0","3588160","21","<div class=""flex flex-row stim-length pb-8 md:pd-20 justify-evenly items-center""><div class=""circle""></div><div class=""square""></div><div class=""circle""></div></div>","q","","matchness_practice","mismatch","方","q","true","mismatch"
"","null","html-keynbutton-response","20","2.0.0","3588664","21","<span class='text-green-400 text-4xl md:text-5xl lg:text-6xl'>正确!</span>","null","trial_feedback","","","","","",""
"","null","html-keynbutton-response","21","2.0.0","3589179","21","<div class=""pb-14 text-7xl"">+</div>","null","fixation","","","","","",""
"","341","html-keynbutton-response","22","2.0.0","3589521","21","<div class=""flex flex-row stim-length pb-8 md:pd-20 justify-evenly items-center""><div class=""square""></div><div class=""square""></div><div class=""square""></div></div>","p","","matchness_practice","match","方","p","true","match"
"","null","html-keynbutton-response","23","2.0.0","3590029","21","<span class='text-green-400 text-4xl md:text-5xl lg:text-6xl'>正确!</span>","null","trial_feedback","","","","","",""
"","null","html-keynbutton-response","24","2.0.0","3590530","21","<div class=""pb-14 text-7xl"">+</div>","null","fixation","","","","","",""
"","590","html-keynbutton-response","25","2.0.0","3591121","21","<div class=""flex flex-row stim-length pb-8 md:pd-20 justify-evenly items-center""><div class=""circle""></div><div class=""circle""></div><div class=""circle""></div></div>","p","","matchness_practice","match","圆","p","true","match"
"","null","html-keynbutton-response","26","2.0.0","3591628","21","<span class='text-green-400 text-4xl md:text-5xl lg:text-6xl'>正确!</span>","null","trial_feedback","","","","","",""
"","null","html-keynbutton-response","27","2.0.0","3592130","21","<div class=""pb-14 text-7xl"">+</div>","null","fixation","","","","","",""
"","525","html-keynbutton-response","28","2.0.0","3592656","21","<div class=""flex flex-row stim-length pb-8 md:pd-20 justify-evenly items-center""><div class=""circle""></div><div class=""square""></div><div class=""circle""></div></div>","q","","matchness_practice","mismatch","方","q","true","mismatch"
"","null","html-keynbutton-response","29","2.0.0","3593163","21","<span class='text-green-400 text-4xl md:text-5xl lg:text-6xl'>正确!</span>","null","trial_feedback","","","","","",""
"","null","html-keynbutton-response","30","2.0.0","3593679","21","<div class=""pb-14 text-7xl"">+</div>","null","fixation","","","","","",""
"","433","html-keynbutton-response","31","2.0.0","3594112","21","<div class=""flex flex-row stim-length pb-8 md:pd-20 justify-evenly items-center""><div class=""square""></div><div class=""circle""></div><div class=""square""></div></div>","q","","matchness_practice","mismatch","圆","q","true","mismatch"
"","null","html-keynbutton-response","32","2.0.0","3594614","21","<span class='text-green-400 text-4xl md:text-5xl lg:text-6xl'>正确!</span>","null","trial_feedback","","","","","",""
"","null","html-keynbutton-response","33","2.0.0","3595129","21","<div class=""pb-14 text-7xl"">+</div>","null","fixation","","","","","",""
"","295","html-keynbutton-response","34","2.0.0","3595425","21","<div class=""flex flex-row stim-length pb-8 md:pd-20 justify-evenly items-center""><div class=""circle""></div><div class=""circle""></div><div class=""circle""></div></div>","p","","matchness_practice","match","圆","p","true","match"
"","null","html-keynbutton-response","35","2.0.0","3595931","21","<span class='text-green-400 text-4xl md:text-5xl lg:text-6xl'>正确!</span>","null","trial_feedback","","","","","",""
"","null","html-keynbutton-response","36","2.0.0","3596446","21","<div class=""pb-14 text-7xl"">+</div>","null","fixation","","","","","",""
"","290","html-keynbutton-response","37","2.0.0","3596736","21","<div class=""flex flex-row stim-length pb-8 md:pd-20 justify-evenly items-center""><div class=""square""></div><div class=""square""></div><div class=""square""></div></div>","p","","matchness_practice","match","方","p","true","match"
"","null","html-keynbutton-response","38","2.0.0","3597244","21","<span class='text-green-400 text-4xl md:text-5xl lg:text-6xl'>正确!</span>","null","trial_feedback","","","","","",""
"","null","html-keynbutton-response","39","2.0.0","3597746","21","<div class=""pb-14 text-7xl"">+</div>","null","fixation","","","","","",""
"","365","html-keynbutton-response","40","2.0.0","3598112","21","<div class=""flex flex-row stim-length pb-8 md:pd-20 justify-evenly items-center""><div class=""square""></div><div class=""square""></div><div class=""square""></div></div>","p","","matchness_practice","match","方","p","true","match"
"","null","html-keynbutton-response","41","2.0.0","3598628","21","<span class='text-green-400 text-4xl md:text-5xl lg:text-6xl'>正确!</span>","null","trial_feedback","","","","","",""
"","null","html-keynbutton-response","42","2.0.0","3599130","21","<div class=""pb-14 text-7xl"">+</div>","null","fixation","","","","","",""
"","373","html-keynbutton-response","43","2.0.0","3599504","21","<div class=""flex flex-row stim-length pb-8 md:pd-20 justify-evenly items-center""><div class=""square""></div><div class=""circle""></div><div class=""square""></div></div>","p","","matchness_practice","mismatch","圆","q","false","match"
"","null","html-keynbutton-response","44","2.0.0","3600012","21","<span class='text-red-500 text-4xl md:text-5xl lg:text-6xl'>错误!</span>","null","trial_feedback","","","","","",""
"","null","html-keynbutton-response","45","2.0.0","3600514","21","<div class=""pb-14 text-7xl"">+</div>","null","fixation","","","","","",""
"","349","html-keynbutton-response","46","2.0.0","3600864","21","<div class=""flex flex-row stim-length pb-8 md:pd-20 justify-evenly items-center""><div class=""circle""></div><div class=""square""></div><div class=""circle""></div></div>","q","","matchness_practice","mismatch","方","q","true","mismatch"
"","null","html-keynbutton-response","47","2.0.0","3601380","21","<span class='text-green-400 text-4xl md:text-5xl lg:text-6xl'>正确!</span>","null","trial_feedback","","","","","",""
"","null","html-keynbutton-response","48","2.0.0","3601896","21","<div class=""pb-14 text-7xl"">+</div>","null","fixation","","","","","",""
"","264","html-keynbutton-response","49","2.0.0","3602160","21","<div class=""flex flex-row stim-length pb-8 md:pd-20 justify-evenly items-center""><div class=""circle""></div><div class=""circle""></div><div class=""circle""></div></div>","q","","matchness_practice","match","圆","p","false","mismatch"
"","null","html-keynbutton-response","50","2.0.0","3602663","21","<span class='text-red-500 text-4xl md:text-5xl lg:text-6xl'>错误!</span>","null","trial_feedback","","","","","",""
"","null","html-keynbutton-response","51","2.0.0","3603179","21","<div class=""pb-14 text-7xl"">+</div>","null","fixation","","","","","",""
"","309","html-keynbutton-response","52","2.0.0","3603488","21","<div class=""flex flex-row stim-length pb-8 md:pd-20 justify-evenly items-center""><div class=""square""></div><div class=""square""></div><div class=""square""></div></div>","p","","matchness_practice","match","方","p","true","match"
"","null","html-keynbutton-response","53","2.0.0","3603996","21","<span class='text-green-400 text-4xl md:text-5xl lg:text-6xl'>正确!</span>","null","trial_feedback","","","","","",""
"","null","html-keynbutton-response","54","2.0.0","3604512","21","<div class=""pb-14 text-7xl"">+</div>","null","fixation","","","","","",""
"","303","html-keynbutton-response","55","2.0.0","3604816","21","<div class=""flex flex-row stim-length pb-8 md:pd-20 justify-evenly items-center""><div class=""circle""></div><div class=""circle""></div><div class=""circle""></div></div>","p","","matchness_practice","match","圆","p","true","match"
"","null","html-keynbutton-response","56","2.0.0","3605329","21","<span class='text-green-400 text-4xl md:text-5xl lg:text-6xl'>正确!</span>","null","trial_feedback","","","","","",""
"","null","html-keynbutton-response","57","2.0.0","3605830","21","<div class=""pb-14 text-7xl"">+</div>","null","fixation","","","","","",""
"","409","html-keynbutton-response","58","2.0.0","3606240","21","<div class=""flex flex-row stim-length pb-8 md:pd-20 justify-evenly items-center""><div class=""circle""></div><div class=""square""></div><div class=""circle""></div></div>","q","","matchness_practice","mismatch","方","q","true","mismatch"
"","null","html-keynbutton-response","59","2.0.0","3606747","21","<span class='text-green-400 text-4xl md:text-5xl lg:text-6xl'>正确!</span>","null","trial_feedback","","","","","",""
"","null","html-keynbutton-response","60","2.0.0","3607263","21","<div class=""pb-14 text-7xl"">+</div>","null","fixation","","","","","",""
"","321","html-keynbutton-response","61","2.0.0","3607584","21","<div class=""flex flex-row stim-length pb-8 md:pd-20 justify-evenly items-center""><div class=""square""></div><div class=""circle""></div><div class=""square""></div></div>","q","","matchness_practice","mismatch","圆","q","true","mismatch"
"","null","html-keynbutton-response","62","2.0.0","3608096","21","<span class='text-green-400 text-4xl md:text-5xl lg:text-6xl'>正确!</span>","null","trial_feedback","","","","","",""
"","1836","html-keynbutton-response","64","2.0.0","3609937","21","<div class=""jp"">
    <p>您的正确率是：85%</p>
    <p>您的平均反应时间是：426毫秒</p></div>"," ","block_feedback","","","","","",""
"","2093","html-keynbutton-response","65","2.0.0","3612032","21","
        <div class=""jp px-2 xxs:px-5 mx-auto"">
        <p class=""text-center text-red-600 text-[1.2em] pb-5"">练习结束，现在开始正式实验</p>
        <p>请注意：正式实验中将不再会呈现反馈。</p>
        </div>
        "," ","","","","","","",""
"","null","html-keynbutton-response","66","2.0.0","3615243","21","<count-down title=""""></count-down>","null","countDown_trial","","","","","",""
"","null","html-keynbutton-response","67","2.0.0","3615755","21","<div class=""pb-14 text-7xl"">+</div>","null","fixation","","","","","",""
"","412","html-keynbutton-response","68","2.0.0","3616168","21","<div class=""flex flex-row stim-length pb-8 md:pd-20 justify-evenly items-center""><div class=""circle""></div><div class=""square""></div><div class=""circle""></div></div>","q","","matchness_test","mismatch","方","q","true","mismatch"
"","null","html-keynbutton-response","69","2.0.0","3616671","21","<div class=""pb-14 text-7xl"">+</div>","null","fixation","","","","","",""
"","377","html-keynbutton-response","70","2.0.0","3617049","21","<div class=""flex flex-row stim-length pb-8 md:pd-20 justify-evenly items-center""><div class=""square""></div><div class=""square""></div><div class=""square""></div></div>","q","","matchness_test","match","方","p","false","mismatch"
"","null","html-keynbutton-response","71","2.0.0","3617555","21","<div class=""pb-14 text-7xl"">+</div>","null","fixation","","","","","",""
"","499","html-keynbutton-response","72","2.0.0","3618055","21","<div class=""flex flex-row stim-length pb-8 md:pd-20 justify-evenly items-center""><div class=""square""></div><div class=""circle""></div><div class=""square""></div></div>","q","","matchness_test","mismatch","圆","q","true","mismatch"
"","null","html-keynbutton-response","73","2.0.0","3618570","21","<div class=""pb-14 text-7xl"">+</div>","null","fixation","","","","","",""
"","333","html-keynbutton-response","74","2.0.0","3618904","21","<div class=""flex flex-row stim-length pb-8 md:pd-20 justify-evenly items-center""><div class=""circle""></div><div class=""circle""></div><div class=""circle""></div></div>","p","","matchness_test","match","圆","p","true","match"
"","null","html-keynbutton-response","75","2.0.0","3619420","21","<div class=""pb-14 text-7xl"">+</div>","null","fixation","","","","","",""
"","428","html-keynbutton-response","76","2.0.0","3619848","21","<div class=""flex flex-row stim-length pb-8 md:pd-20 justify-evenly items-center""><div class=""square""></div><div class=""circle""></div><div class=""square""></div></div>","q","","matchness_test","mismatch","圆","q","true","mismatch"
"","null","html-keynbutton-response","77","2.0.0","3620354","21","<div class=""pb-14 text-7xl"">+</div>","null","fixation","","","","","",""
"","341","html-keynbutton-response","78","2.0.0","3620696","21","<div class=""flex flex-row stim-length pb-8 md:pd-20 justify-evenly items-center""><div class=""square""></div><div class=""square""></div><div class=""square""></div></div>","p","","matchness_test","match","方","p","true","match"
"","null","html-keynbutton-response","79","2.0.0","3621204","21","<div class=""pb-14 text-7xl"">+</div>","null","fixation","","","","","",""
"","419","html-keynbutton-response","80","2.0.0","3621624","21","<div class=""flex flex-row stim-length pb-8 md:pd-20 justify-evenly items-center""><div class=""circle""></div><div class=""square""></div><div class=""circle""></div></div>","q","","matchness_test","mismatch","方","q","true","mismatch"
"","null","html-keynbutton-response","81","2.0.0","3622136","21","<div class=""pb-14 text-7xl"">+</div>","null","fixation","","","","","",""
"","319","html-keynbutton-response","82","2.0.0","3622456","21","<div class=""flex flex-row stim-length pb-8 md:pd-20 justify-evenly items-center""><div class=""circle""></div><div class=""circle""></div><div class=""circle""></div></div>","p","","matchness_test","match","圆","p","true","match"
"","null","html-keynbutton-response","83","2.0.0","3622971","21","<div class=""pb-14 text-7xl"">+</div>","null","fixation","","","","","",""
"","269","html-keynbutton-response","84","2.0.0","3623240","21","<div class=""flex flex-row stim-length pb-8 md:pd-20 justify-evenly items-center""><div class=""square""></div><div class=""circle""></div><div class=""square""></div></div>","p","","matchness_test","mismatch","圆","q","false","match"
"","null","html-keynbutton-response","85","2.0.0","3623753","21","<div class=""pb-14 text-7xl"">+</div>","null","fixation","","","","","",""
"","430","html-keynbutton-response","86","2.0.0","3624183","21","<div class=""flex flex-row stim-length pb-8 md:pd-20 justify-evenly items-center""><div class=""circle""></div><div class=""square""></div><div class=""circle""></div></div>","q","","matchness_test","mismatch","方","q","true","mismatch"
"","null","html-keynbutton-response","87","2.0.0","3624688","21","<div class=""pb-14 text-7xl"">+</div>","null","fixation","","","","","",""
"","439","html-keynbutton-response","88","2.0.0","3625128","21","<div class=""flex flex-row stim-length pb-8 md:pd-20 justify-evenly items-center""><div class=""square""></div><div class=""square""></div><div class=""square""></div></div>","p","","matchness_test","match","方","p","true","match"
"","null","html-keynbutton-response","89","2.0.0","3625635","21","<div class=""pb-14 text-7xl"">+</div>","null","fixation","","","","","",""
"","388","html-keynbutton-response","90","2.0.0","3626024","21","<div class=""flex flex-row stim-length pb-8 md:pd-20 justify-evenly items-center""><div class=""circle""></div><div class=""circle""></div><div class=""circle""></div></div>","p","","matchness_test","match","圆","p","true","match"
"","null","html-keynbutton-response","91","2.0.0","3626536","21","<div class=""pb-14 text-7xl"">+</div>","null","fixation","","","","","",""
"","383","html-keynbutton-response","92","2.0.0","3626920","21","<div class=""flex flex-row stim-length pb-8 md:pd-20 justify-evenly items-center""><div class=""square""></div><div class=""square""></div><div class=""square""></div></div>","p","","matchness_test","match","方","p","true","match"
"","null","html-keynbutton-response","93","2.0.0","3627437","21","<div class=""pb-14 text-7xl"">+</div>","null","fixation","","","","","",""
"","379","html-keynbutton-response","94","2.0.0","3627816","21","<div class=""flex flex-row stim-length pb-8 md:pd-20 justify-evenly items-center""><div class=""circle""></div><div class=""circle""></div><div class=""circle""></div></div>","p","","matchness_test","match","圆","p","true","match"
"","null","html-keynbutton-response","95","2.0.0","3628322","21","<div class=""pb-14 text-7xl"">+</div>","null","fixation","","","","","",""
"","422","html-keynbutton-response","96","2.0.0","3628745","21","<div class=""flex flex-row stim-length pb-8 md:pd-20 justify-evenly items-center""><div class=""square""></div><div class=""circle""></div><div class=""square""></div></div>","q","","matchness_test","mismatch","圆","q","true","mismatch"
"","null","html-keynbutton-response","97","2.0.0","3629253","21","<div class=""pb-14 text-7xl"">+</div>","null","fixation","","","","","",""
"","403","html-keynbutton-response","98","2.0.0","3629656","21","<div class=""flex flex-row stim-length pb-8 md:pd-20 justify-evenly items-center""><div class=""circle""></div><div class=""square""></div><div class=""circle""></div></div>","q","","matchness_test","mismatch","方","q","true","mismatch"
"","null","html-keynbutton-response","99","2.0.0","3630170","21","<div class=""pb-14 text-7xl"">+</div>","null","fixation","","","","","",""
"","397","html-keynbutton-response","100","2.0.0","3630568","21","<div class=""flex flex-row stim-length pb-8 md:pd-20 justify-evenly items-center""><div class=""square""></div><div class=""square""></div><div class=""square""></div></div>","p","","matchness_test","match","方","p","true","match"
"","null","html-keynbutton-response","101","2.0.0","3631071","21","<div class=""pb-14 text-7xl"">+</div>","null","fixation","","","","","",""
"","425","html-keynbutton-response","102","2.0.0","3631496","21","<div class=""flex flex-row stim-length pb-8 md:pd-20 justify-evenly items-center""><div class=""square""></div><div class=""circle""></div><div class=""square""></div></div>","q","","matchness_test","mismatch","圆","q","true","mismatch"
"","null","html-keynbutton-response","103","2.0.0","3632004","21","<div class=""pb-14 text-7xl"">+</div>","null","fixation","","","","","",""
"","419","html-keynbutton-response","104","2.0.0","3632424","21","<div class=""flex flex-row stim-length pb-8 md:pd-20 justify-evenly items-center""><div class=""circle""></div><div class=""circle""></div><div class=""circle""></div></div>","p","","matchness_test","match","圆","p","true","match"
"","null","html-keynbutton-response","105","2.0.0","3632937","21","<div class=""pb-14 text-7xl"">+</div>","null","fixation","","","","","",""
"","462","html-keynbutton-response","106","2.0.0","3633399","21","<div class=""flex flex-row stim-length pb-8 md:pd-20 justify-evenly items-center""><div class=""circle""></div><div class=""square""></div><div class=""circle""></div></div>","q","","matchness_test","mismatch","方","q","true","mismatch"
"","null","html-keynbutton-response","107","2.0.0","3633906","21","<div class=""pb-14 text-7xl"">+</div>","null","fixation","","","","","",""
"","453","html-keynbutton-response","108","2.0.0","3634360","21","<div class=""flex flex-row stim-length pb-8 md:pd-20 justify-evenly items-center""><div class=""square""></div><div class=""square""></div><div class=""square""></div></div>","p","","matchness_test","match","方","p","true","match"
"","null","html-keynbutton-response","109","2.0.0","3634871","21","<div class=""pb-14 text-7xl"">+</div>","null","fixation","","","","","",""
"","385","html-keynbutton-response","110","2.0.0","3635256","21","<div class=""flex flex-row stim-length pb-8 md:pd-20 justify-evenly items-center""><div class=""circle""></div><div class=""square""></div><div class=""circle""></div></div>","q","","matchness_test","mismatch","方","q","true","mismatch"
"","null","html-keynbutton-response","111","2.0.0","3635770","21","<div class=""pb-14 text-7xl"">+</div>","null","fixation","","","","","",""
"","333","html-keynbutton-response","112","2.0.0","3636104","21","<div class=""flex flex-row stim-length pb-8 md:pd-20 justify-evenly items-center""><div class=""square""></div><div class=""circle""></div><div class=""square""></div></div>","q","","matchness_test","mismatch","圆","q","true","mismatch"
"","null","html-keynbutton-response","113","2.0.0","3636620","21","<div class=""pb-14 text-7xl"">+</div>","null","fixation","","","","","",""
"","331","html-keynbutton-response","114","2.0.0","3636952","21","<div class=""flex flex-row stim-length pb-8 md:pd-20 justify-evenly items-center""><div class=""circle""></div><div class=""circle""></div><div class=""circle""></div></div>","q","","matchness_test","match","圆","p","false","mismatch"
"","null","html-keynbutton-response","115","2.0.0","3637454","21","<div class=""pb-14 text-7xl"">+</div>","null","fixation","","","","","",""
"","489","html-keynbutton-response","116","2.0.0","3637943","21","<div class=""flex flex-row stim-length pb-8 md:pd-20 justify-evenly items-center""><div class=""circle""></div><div class=""square""></div><div class=""circle""></div></div>","q","","matchness_test","mismatch","方","q","true","mismatch"
"","null","html-keynbutton-response","117","2.0.0","3638454","21","<div class=""pb-14 text-7xl"">+</div>","null","fixation","","","","","",""
"","369","html-keynbutton-response","118","2.0.0","3638824","21","<div class=""flex flex-row stim-length pb-8 md:pd-20 justify-evenly items-center""><div class=""square""></div><div class=""square""></div><div class=""square""></div></div>","p","","matchness_test","match","方","p","true","match"
"","null","html-keynbutton-response","119","2.0.0","3639337","21","<div class=""pb-14 text-7xl"">+</div>","null","fixation","","","","","",""
"","318","html-keynbutton-response","120","2.0.0","3639656","21","<div class=""flex flex-row stim-length pb-8 md:pd-20 justify-evenly items-center""><div class=""circle""></div><div class=""circle""></div><div class=""circle""></div></div>","p","","matchness_test","match","圆","p","true","match"
"","null","html-keynbutton-response","121","2.0.0","3640171","21","<div class=""pb-14 text-7xl"">+</div>","null","fixation","","","","","",""
"","397","html-keynbutton-response","122","2.0.0","3640568","21","<div class=""flex flex-row stim-length pb-8 md:pd-20 justify-evenly items-center""><div class=""square""></div><div class=""circle""></div><div class=""square""></div></div>","q","","matchness_test","mismatch","圆","q","true","mismatch"
"","null","html-keynbutton-response","123","2.0.0","3641071","21","<div class=""pb-14 text-7xl"">+</div>","null","fixation","","","","","",""
"","407","html-keynbutton-response","124","2.0.0","3641479","21","<div class=""flex flex-row stim-length pb-8 md:pd-20 justify-evenly items-center""><div class=""circle""></div><div class=""circle""></div><div class=""circle""></div></div>","p","","matchness_test","match","圆","p","true","match"
"","null","html-keynbutton-response","125","2.0.0","3641988","21","<div class=""pb-14 text-7xl"">+</div>","null","fixation","","","","","",""
"","466","html-keynbutton-response","126","2.0.0","3642455","21","<div class=""flex flex-row stim-length pb-8 md:pd-20 justify-evenly items-center""><div class=""square""></div><div class=""circle""></div><div class=""square""></div></div>","q","","matchness_test","mismatch","圆","q","true","mismatch"
"","null","html-keynbutton-response","127","2.0.0","3642970","21","<div class=""pb-14 text-7xl"">+</div>","null","fixation","","","","","",""
"","381","html-keynbutton-response","128","2.0.0","3643352","21","<div class=""flex flex-row stim-length pb-8 md:pd-20 justify-evenly items-center""><div class=""square""></div><div class=""square""></div><div class=""square""></div></div>","p","","matchness_test","match","方","p","true","match"
"","null","html-keynbutton-response","129","2.0.0","3643855","21","<div class=""pb-14 text-7xl"">+</div>","null","fixation","","","","","",""
"","376","html-keynbutton-response","130","2.0.0","3644232","21","<div class=""flex flex-row stim-length pb-8 md:pd-20 justify-evenly items-center""><div class=""circle""></div><div class=""square""></div><div class=""circle""></div></div>","q","","matchness_test","mismatch","方","q","true","mismatch"
"","null","html-keynbutton-response","131","2.0.0","3644739","21","<div class=""pb-14 text-7xl"">+</div>","null","fixation","","","","","",""
"","436","html-keynbutton-response","132","2.0.0","3645176","21","<div class=""flex flex-row stim-length pb-8 md:pd-20 justify-evenly items-center""><div class=""square""></div><div class=""square""></div><div class=""square""></div></div>","p","","matchness_test","match","方","p","true","match"
"","null","html-keynbutton-response","133","2.0.0","3645687","21","<div class=""pb-14 text-7xl"">+</div>","null","fixation","","","","","",""
"","384","html-keynbutton-response","134","2.0.0","3646071","21","<div class=""flex flex-row stim-length pb-8 md:pd-20 justify-evenly items-center""><div class=""circle""></div><div class=""square""></div><div class=""circle""></div></div>","q","","matchness_test","mismatch","方","q","true","mismatch"
"","null","html-keynbutton-response","135","2.0.0","3646578","21","<div class=""pb-14 text-7xl"">+</div>","null","fixation","","","","","",""
"","294","html-keynbutton-response","136","2.0.0","3646872","21","<div class=""flex flex-row stim-length pb-8 md:pd-20 justify-evenly items-center""><div class=""circle""></div><div class=""circle""></div><div class=""circle""></div></div>","p","","matchness_test","match","圆","p","true","match"
"","null","html-keynbutton-response","137","2.0.0","3647386","21","<div class=""pb-14 text-7xl"">+</div>","null","fixation","","","","","",""
"","462","html-keynbutton-response","138","2.0.0","3647848","21","<div class=""flex flex-row stim-length pb-8 md:pd-20 justify-evenly items-center""><div class=""square""></div><div class=""circle""></div><div class=""square""></div></div>","q","","matchness_test","mismatch","圆","q","true","mismatch"
"","null","html-keynbutton-response","139","2.0.0","3648354","21","<div class=""pb-14 text-7xl"">+</div>","null","fixation","","","","","",""
"","309","html-keynbutton-response","140","2.0.0","3648664","21","<div class=""flex flex-row stim-length pb-8 md:pd-20 justify-evenly items-center""><div class=""circle""></div><div class=""circle""></div><div class=""circle""></div></div>","p","","matchness_test","match","圆","p","true","match"
"","null","html-keynbutton-response","141","2.0.0","3649171","21","<div class=""pb-14 text-7xl"">+</div>","null","fixation","","","","","",""
"","404","html-keynbutton-response","142","2.0.0","3649576","21","<div class=""flex flex-row stim-length pb-8 md:pd-20 justify-evenly items-center""><div class=""square""></div><div class=""circle""></div><div class=""square""></div></div>","q","","matchness_test","mismatch","圆","q","true","mismatch"
"","null","html-keynbutton-response","143","2.0.0","3650087","21","<div class=""pb-14 text-7xl"">+</div>","null","fixation","","","","","",""
"","256","html-keynbutton-response","144","2.0.0","3650344","21","<div class=""flex flex-row stim-length pb-8 md:pd-20 justify-evenly items-center""><div class=""square""></div><div class=""square""></div><div class=""square""></div></div>","p","","matchness_test","match","方","p","true","match"
"","null","html-keynbutton-response","145","2.0.0","3650853","21","<div class=""pb-14 text-7xl"">+</div>","null","fixation","","","","","",""
"","274","html-keynbutton-response","146","2.0.0","3651128","21","<div class=""flex flex-row stim-length pb-8 md:pd-20 justify-evenly items-center""><div class=""circle""></div><div class=""square""></div><div class=""circle""></div></div>","p","","matchness_test","mismatch","方","q","false","match"
"","1982","html-keynbutton-response","147","2.0.0","3653112","21","<div class=""jp""><p>您已完成1/10部分</p><p>请休息一会儿</p>
    <p>您的正确率是：90%</p>
    <p>您的平均反应时间是：387毫秒</p></div>"," ","block_feedback","","","","","",""
"","null","html-keynbutton-response","148","2.0.0","3656318","21","<count-down title=""""></count-down>","null","countDown_trial","","","","","",""
"","null","html-keynbutton-response","149","2.0.0","3656821","21","<div class=""pb-14 text-7xl"">+</div>","null","fixation","","","","","",""
"","387","html-keynbutton-response","150","2.0.0","3657208","21","<div class=""flex flex-row stim-length pb-8 md:pd-20 justify-evenly items-center""><div class=""circle""></div><div class=""square""></div><div class=""circle""></div></div>","q","","matchness_test_1","mismatch","方","q","true","mismatch"
"","null","html-keynbutton-response","151","2.0.0","3657720","21","<div class=""pb-14 text-7xl"">+</div>","null","fixation","","","","","",""
"","271","html-keynbutton-response","152","2.0.0","3657991","21","<div class=""flex flex-row stim-length pb-8 md:pd-20 justify-evenly items-center""><div class=""square""></div><div class=""square""></div><div class=""square""></div></div>","p","","matchness_test_1","match","方","p","true","match"
"","null","html-keynbutton-response","153","2.0.0","3658505","21","<div class=""pb-14 text-7xl"">+</div>","null","fixation","","","","","",""
"","382","html-keynbutton-response","154","2.0.0","3658887","21","<div class=""flex flex-row stim-length pb-8 md:pd-20 justify-evenly items-center""><div class=""square""></div><div class=""circle""></div><div class=""square""></div></div>","q","","matchness_test_1","mismatch","圆","q","true","mismatch"
"","null","html-keynbutton-response","155","2.0.0","3659403","21","<div class=""pb-14 text-7xl"">+</div>","null","fixation","","","","","",""
"","316","html-keynbutton-response","156","2.0.0","3659720","21","<div class=""flex flex-row stim-length pb-8 md:pd-20 justify-evenly items-center""><div class=""circle""></div><div class=""circle""></div><div class=""circle""></div></div>","p","","matchness_test_1","match","圆","p","true","match"
"","null","html-keynbutton-response","157","2.0.0","3660221","21","<div class=""pb-14 text-7xl"">+</div>","null","fixation","","","","","",""
"","282","html-keynbutton-response","158","2.0.0","3660505","21","<div class=""flex flex-row stim-length pb-8 md:pd-20 justify-evenly items-center""><div class=""circle""></div><div class=""circle""></div><div class=""circle""></div></div>","q","","matchness_test_1","match","圆","p","false","mismatch"
"","null","html-keynbutton-response","159","2.0.0","3661021","21","<div class=""pb-14 text-7xl"">+</div>","null","fixation","","","","","",""
"","411","html-keynbutton-response","160","2.0.0","3661432","21","<div class=""flex flex-row stim-length pb-8 md:pd-20 justify-evenly items-center""><div class=""circle""></div><div class=""square""></div><div class=""circle""></div></div>","q","","matchness_test_1","mismatch","方","q","true","mismatch"
"","null","html-keynbutton-response","161","2.0.0","3661939","21","<div class=""pb-14 text-7xl"">+</div>","null","fixation","","","","","",""
"","340","html-keynbutton-response","162","2.0.0","3662280","21","<div class=""flex flex-row stim-length pb-8 md:pd-20 justify-evenly items-center""><div class=""square""></div><div class=""circle""></div><div class=""square""></div></div>","q","","matchness_test_1","mismatch","圆","q","true","mismatch"
"","null","html-keynbutton-response","163","2.0.0","3662788","21","<div class=""pb-14 text-7xl"">+</div>","null","fixation","","","","","",""
"","324","html-keynbutton-response","164","2.0.0","3663112","21","<div class=""flex flex-row stim-length pb-8 md:pd-20 justify-evenly items-center""><div class=""square""></div><div class=""square""></div><div class=""square""></div></div>","p","","matchness_test_1","match","方","p","true","match"
"","null","html-keynbutton-response","165","2.0.0","3663620","21","<div class=""pb-14 text-7xl"">+</div>","null","fixation","","","","","",""
"","436","html-keynbutton-response","166","2.0.0","3664056","21","<div class=""flex flex-row stim-length pb-8 md:pd-20 justify-evenly items-center""><div class=""circle""></div><div class=""circle""></div><div class=""circle""></div></div>","p","","matchness_test_1","match","圆","p","true","match"
"","null","html-keynbutton-response","167","2.0.0","3664570","21","<div class=""pb-14 text-7xl"">+</div>","null","fixation","","","","","",""
"","429","html-keynbutton-response","168","2.0.0","3665000","21","<div class=""flex flex-row stim-length pb-8 md:pd-20 justify-evenly items-center""><div class=""square""></div><div class=""circle""></div><div class=""square""></div></div>","q","","matchness_test_1","mismatch","圆","q","true","mismatch"
"","null","html-keynbutton-response","169","2.0.0","3665505","21","<div class=""pb-14 text-7xl"">+</div>","null","fixation","","","","","",""
"","358","html-keynbutton-response","170","2.0.0","3665864","21","<div class=""flex flex-row stim-length pb-8 md:pd-20 justify-evenly items-center""><div class=""square""></div><div class=""square""></div><div class=""square""></div></div>","p","","matchness_test_1","match","方","p","true","match"
"","null","html-keynbutton-response","171","2.0.0","3666372","21","<div class=""pb-14 text-7xl"">+</div>","null","fixation","","","","","",""
"","308","html-keynbutton-response","172","2.0.0","3666680","21","<div class=""flex flex-row stim-length pb-8 md:pd-20 justify-evenly items-center""><div class=""circle""></div><div class=""square""></div><div class=""circle""></div></div>","p","","matchness_test_1","mismatch","方","q","false","match"
"","null","html-keynbutton-response","173","2.0.0","3667188","21","<div class=""pb-14 text-7xl"">+</div>","null","fixation","","","","","",""
"","436","html-keynbutton-response","174","2.0.0","3667624","21","<div class=""flex flex-row stim-length pb-8 md:pd-20 justify-evenly items-center""><div class=""square""></div><div class=""circle""></div><div class=""square""></div></div>","q","","matchness_test_1","mismatch","圆","q","true","mismatch"
"","null","html-keynbutton-response","175","2.0.0","3668137","21","<div class=""pb-14 text-7xl"">+</div>","null","fixation","","","","","",""
"","415","html-keynbutton-response","176","2.0.0","3668552","21","<div class=""flex flex-row stim-length pb-8 md:pd-20 justify-evenly items-center""><div class=""circle""></div><div class=""circle""></div><div class=""circle""></div></div>","p","","matchness_test_1","match","圆","p","true","match"
"","null","html-keynbutton-response","177","2.0.0","3669054","21","<div class=""pb-14 text-7xl"">+</div>","null","fixation","","","","","",""
"","441","html-keynbutton-response","178","2.0.0","3669496","21","<div class=""flex flex-row stim-length pb-8 md:pd-20 justify-evenly items-center""><div class=""circle""></div><div class=""square""></div><div class=""circle""></div></div>","p","","matchness_test_1","mismatch","方","q","false","match"
"","null","html-keynbutton-response","179","2.0.0","3670004","21","<div class=""pb-14 text-7xl"">+</div>","null","fixation","","","","","",""
"","387","html-keynbutton-response","180","2.0.0","3670392","21","<div class=""flex flex-row stim-length pb-8 md:pd-20 justify-evenly items-center""><div class=""square""></div><div class=""square""></div><div class=""square""></div></div>","p","","matchness_test_1","match","方","p","true","match"
"","null","html-keynbutton-response","181","2.0.0","3670903","21","<div class=""pb-14 text-7xl"">+</div>","null","fixation","","","","","",""
"","336","html-keynbutton-response","182","2.0.0","3671240","21","<div class=""flex flex-row stim-length pb-8 md:pd-20 justify-evenly items-center""><div class=""circle""></div><div class=""circle""></div><div class=""circle""></div></div>","q","","matchness_test_1","match","圆","p","false","mismatch"
"","null","html-keynbutton-response","183","2.0.0","3671753","21","<div class=""pb-14 text-7xl"">+</div>","null","fixation","","","","","",""
"","446","html-keynbutton-response","184","2.0.0","3672200","21","<div class=""flex flex-row stim-length pb-8 md:pd-20 justify-evenly items-center""><div class=""square""></div><div class=""circle""></div><div class=""square""></div></div>","q","","matchness_test_1","mismatch","圆","q","true","mismatch"
"","null","html-keynbutton-response","185","2.0.0","3672704","21","<div class=""pb-14 text-7xl"">+</div>","null","fixation","","","","","",""
"","359","html-keynbutton-response","186","2.0.0","3673064","21","<div class=""flex flex-row stim-length pb-8 md:pd-20 justify-evenly items-center""><div class=""square""></div><div class=""square""></div><div class=""square""></div></div>","p","","matchness_test_1","match","方","p","true","match"
"","null","html-keynbutton-response","187","2.0.0","3673571","21","<div class=""pb-14 text-7xl"">+</div>","null","fixation","","","","","",""
"","403","html-keynbutton-response","188","2.0.0","3673975","21","<div class=""flex flex-row stim-length pb-8 md:pd-20 justify-evenly items-center""><div class=""circle""></div><div class=""square""></div><div class=""circle""></div></div>","q","","matchness_test_1","mismatch","方","q","true","mismatch"
"","null","html-keynbutton-response","189","2.0.0","3674487","21","<div class=""pb-14 text-7xl"">+</div>","null","fixation","","","","","",""
"","449","html-keynbutton-response","190","2.0.0","3674936","21","<div class=""flex flex-row stim-length pb-8 md:pd-20 justify-evenly items-center""><div class=""circle""></div><div class=""circle""></div><div class=""circle""></div></div>","p","","matchness_test_1","match","圆","p","true","match"
"","null","html-keynbutton-response","191","2.0.0","3675438","21","<div class=""pb-14 text-7xl"">+</div>","null","fixation","","","","","",""
"","393","html-keynbutton-response","192","2.0.0","3675829","21","<div class=""flex flex-row stim-length pb-8 md:pd-20 justify-evenly items-center""><div class=""circle""></div><div class=""square""></div><div class=""circle""></div></div>","q","","matchness_test_1","mismatch","方","q","true","mismatch"
"","null","html-keynbutton-response","193","2.0.0","3676335","21","<div class=""pb-14 text-7xl"">+</div>","null","fixation","","","","","",""
"","389","html-keynbutton-response","194","2.0.0","3676725","21","<div class=""flex flex-row stim-length pb-8 md:pd-20 justify-evenly items-center""><div class=""square""></div><div class=""circle""></div><div class=""square""></div></div>","q","","matchness_test_1","mismatch","圆","q","true","mismatch"
"","null","html-keynbutton-response","195","2.0.0","3677236","21","<div class=""pb-14 text-7xl"">+</div>","null","fixation","","","","","",""
"","415","html-keynbutton-response","196","2.0.0","3677652","21","<div class=""flex flex-row stim-length pb-8 md:pd-20 justify-evenly items-center""><div class=""square""></div><div class=""square""></div><div class=""square""></div></div>","p","","matchness_test_1","match","方","p","true","match"
"","null","html-keynbutton-response","197","2.0.0","3678154","21","<div class=""pb-14 text-7xl"">+</div>","null","fixation","","","","","",""
"","394","html-keynbutton-response","198","2.0.0","3678549","21","<div class=""flex flex-row stim-length pb-8 md:pd-20 justify-evenly items-center""><div class=""square""></div><div class=""circle""></div><div class=""square""></div></div>","q","","matchness_test_1","mismatch","圆","q","true","mismatch"
"","null","html-keynbutton-response","199","2.0.0","3679051","21","<div class=""pb-14 text-7xl"">+</div>","null","fixation","","","","","",""
"","393","html-keynbutton-response","200","2.0.0","3679445","21","<div class=""flex flex-row stim-length pb-8 md:pd-20 justify-evenly items-center""><div class=""circle""></div><div class=""square""></div><div class=""circle""></div></div>","q","","matchness_test_1","mismatch","方","q","true","mismatch"
"","null","html-keynbutton-response","201","2.0.0","3679951","21","<div class=""pb-14 text-7xl"">+</div>","null","fixation","","","","","",""
"","405","html-keynbutton-response","202","2.0.0","3680357","21","<div class=""flex flex-row stim-length pb-8 md:pd-20 justify-evenly items-center""><div class=""square""></div><div class=""square""></div><div class=""square""></div></div>","p","","matchness_test_1","match","方","p","true","match"
"","null","html-keynbutton-response","203","2.0.0","3680867","21","<div class=""pb-14 text-7xl"">+</div>","null","fixation","","","","","",""
"","305","html-keynbutton-response","204","2.0.0","3681173","21","<div class=""flex flex-row stim-length pb-8 md:pd-20 justify-evenly items-center""><div class=""circle""></div><div class=""circle""></div><div class=""circle""></div></div>","p","","matchness_test_1","match","圆","p","true","match"
"","null","html-keynbutton-response","205","2.0.0","3681683","21","<div class=""pb-14 text-7xl"">+</div>","null","fixation","","","","","",""
"","289","html-keynbutton-response","206","2.0.0","3681973","21","<div class=""flex flex-row stim-length pb-8 md:pd-20 justify-evenly items-center""><div class=""square""></div><div class=""circle""></div><div class=""square""></div></div>","q","","matchness_test_1","mismatch","圆","q","true","mismatch"
"","null","html-keynbutton-response","207","2.0.0","3682483","21","<div class=""pb-14 text-7xl"">+</div>","null","fixation","","","","","",""
"","353","html-keynbutton-response","208","2.0.0","3682837","21","<div class=""flex flex-row stim-length pb-8 md:pd-20 justify-evenly items-center""><div class=""circle""></div><div class=""circle""></div><div class=""circle""></div></div>","p","","matchness_test_1","match","圆","p","true","match"
"","null","html-keynbutton-response","209","2.0.0","3683350","21","<div class=""pb-14 text-7xl"">+</div>","null","fixation","","","","","",""
"","382","html-keynbutton-response","210","2.0.0","3683733","21","<div class=""flex flex-row stim-length pb-8 md:pd-20 justify-evenly items-center""><div class=""circle""></div><div class=""square""></div><div class=""circle""></div></div>","q","","matchness_test_1","mismatch","方","q","true","mismatch"
"","null","html-keynbutton-response","211","2.0.0","3684234","21","<div class=""pb-14 text-7xl"">+</div>","null","fixation","","","","","",""
"","329","html-keynbutton-response","212","2.0.0","3684564","21","<div class=""flex flex-row stim-length pb-8 md:pd-20 justify-evenly items-center""><div class=""square""></div><div class=""square""></div><div class=""square""></div></div>","p","","matchness_test_1","match","方","p","true","match"
"","null","html-keynbutton-response","213","2.0.0","3685067","21","<div class=""pb-14 text-7xl"">+</div>","null","fixation","","","","","",""
"","441","html-keynbutton-response","214","2.0.0","3685509","21","<div class=""flex flex-row stim-length pb-8 md:pd-20 justify-evenly items-center""><div class=""square""></div><div class=""square""></div><div class=""square""></div></div>","p","","matchness_test_1","match","方","p","true","match"
"","null","html-keynbutton-response","215","2.0.0","3686016","21","<div class=""pb-14 text-7xl"">+</div>","null","fixation","","","","","",""
"","419","html-keynbutton-response","216","2.0.0","3686437","21","<div class=""flex flex-row stim-length pb-8 md:pd-20 justify-evenly items-center""><div class=""circle""></div><div class=""circle""></div><div class=""circle""></div></div>","p","","matchness_test_1","match","圆","p","true","match"
"","null","html-keynbutton-response","217","2.0.0","3686950","21","<div class=""pb-14 text-7xl"">+</div>","null","fixation","","","","","",""
"","365","html-keynbutton-response","218","2.0.0","3687317","21","<div class=""flex flex-row stim-length pb-8 md:pd-20 justify-evenly items-center""><div class=""square""></div><div class=""circle""></div><div class=""square""></div></div>","q","","matchness_test_1","mismatch","圆","q","true","mismatch"
"","null","html-keynbutton-response","219","2.0.0","3687833","21","<div class=""pb-14 text-7xl"">+</div>","null","fixation","","","","","",""
"","411","html-keynbutton-response","220","2.0.0","3688245","21","<div class=""flex flex-row stim-length pb-8 md:pd-20 justify-evenly items-center""><div class=""circle""></div><div class=""square""></div><div class=""circle""></div></div>","q","","matchness_test_1","mismatch","方","q","true","mismatch"
"","null","html-keynbutton-response","221","2.0.0","3688751","21","<div class=""pb-14 text-7xl"">+</div>","null","fixation","","","","","",""
"","388","html-keynbutton-response","222","2.0.0","3689140","21","<div class=""flex flex-row stim-length pb-8 md:pd-20 justify-evenly items-center""><div class=""square""></div><div class=""square""></div><div class=""square""></div></div>","p","","matchness_test_1","match","方","p","true","match"
"","null","html-keynbutton-response","223","2.0.0","3689650","21","<div class=""pb-14 text-7xl"">+</div>","null","fixation","","","","","",""
"","338","html-keynbutton-response","224","2.0.0","3689989","21","<div class=""flex flex-row stim-length pb-8 md:pd-20 justify-evenly items-center""><div class=""circle""></div><div class=""circle""></div><div class=""circle""></div></div>","p","","matchness_test_1","match","圆","p","true","match"
"","null","html-keynbutton-response","225","2.0.0","3690500","21","<div class=""pb-14 text-7xl"">+</div>","null","fixation","","","","","",""
"","416","html-keynbutton-response","226","2.0.0","3690916","21","<div class=""flex flex-row stim-length pb-8 md:pd-20 justify-evenly items-center""><div class=""square""></div><div class=""circle""></div><div class=""square""></div></div>","q","","matchness_test_1","mismatch","圆","q","true","mismatch"
"","null","html-keynbutton-response","227","2.0.0","3691421","21","<div class=""pb-14 text-7xl"">+</div>","null","fixation","","","","","",""
"","294","html-keynbutton-response","228","2.0.0","3691716","21","<div class=""flex flex-row stim-length pb-8 md:pd-20 justify-evenly items-center""><div class=""circle""></div><div class=""square""></div><div class=""circle""></div></div>","q","","matchness_test_1","mismatch","方","q","true","mismatch"
"","2463","html-keynbutton-response","229","2.0.0","3694180","21","<div class=""jp""><p>您已完成2/10部分</p><p>请休息一会儿</p>
    <p>您的正确率是：90%</p>
    <p>您的平均反应时间是：376毫秒</p></div>"," ","block_feedback","","","","","",""
"","null","html-keynbutton-response","230","2.0.0","3697380","21","<count-down title=""""></count-down>","null","countDown_trial","","","","","",""
"","null","html-keynbutton-response","231","2.0.0","3697886","21","<div class=""pb-14 text-7xl"">+</div>","null","fixation","","","","","",""
"","341","html-keynbutton-response","232","2.0.0","3698228","21","<div class=""flex flex-row stim-length pb-8 md:pd-20 justify-evenly items-center""><div class=""circle""></div><div class=""circle""></div><div class=""circle""></div></div>","p","","matchness_test_2","match","圆","p","true","match"
"","null","html-keynbutton-response","233","2.0.0","3698733","21","<div class=""pb-14 text-7xl"">+</div>","null","fixation","","","","","",""
"","311","html-keynbutton-response","234","2.0.0","3699045","21","<div class=""flex flex-row stim-length pb-8 md:pd-20 justify-evenly items-center""><div class=""square""></div><div class=""square""></div><div class=""square""></div></div>","p","","matchness_test_2","match","方","p","true","match"
"","null","html-keynbutton-response","235","2.0.0","3699551","21","<div class=""pb-14 text-7xl"">+</div>","null","fixation","","","","","",""
"","277","html-keynbutton-response","236","2.0.0","3699829","21","<div class=""flex flex-row stim-length pb-8 md:pd-20 justify-evenly items-center""><div class=""circle""></div><div class=""square""></div><div class=""circle""></div></div>","q","","matchness_test_2","mismatch","方","q","true","mismatch"
"","null","html-keynbutton-response","237","2.0.0","3700335","21","<div class=""pb-14 text-7xl"">+</div>","null","fixation","","","","","",""
"","341","html-keynbutton-response","238","2.0.0","3700677","21","<div class=""flex flex-row stim-length pb-8 md:pd-20 justify-evenly items-center""><div class=""square""></div><div class=""circle""></div><div class=""square""></div></div>","q","","matchness_test_2","mismatch","圆","q","true","mismatch"
"","null","html-keynbutton-response","239","2.0.0","3701184","21","<div class=""pb-14 text-7xl"">+</div>","null","fixation","","","","","",""
"","484","html-keynbutton-response","240","2.0.0","3701669","21","<div class=""flex flex-row stim-length pb-8 md:pd-20 justify-evenly items-center""><div class=""circle""></div><div class=""square""></div><div class=""circle""></div></div>","q","","matchness_test_2","mismatch","方","q","true","mismatch"
"","null","html-keynbutton-response","241","2.0.0","3702183","21","<div class=""pb-14 text-7xl"">+</div>","null","fixation","","","","","",""
"","381","html-keynbutton-response","242","2.0.0","3702565","21","<div class=""flex flex-row stim-length pb-8 md:pd-20 justify-evenly items-center""><div class=""circle""></div><div class=""circle""></div><div class=""circle""></div></div>","p","","matchness_test_2","match","圆","p","true","match"
"","null","html-keynbutton-response","243","2.0.0","3703068","21","<div class=""pb-14 text-7xl"">+</div>","null","fixation","","","","","",""
"","312","html-keynbutton-response","244","2.0.0","3703381","21","<div class=""flex flex-row stim-length pb-8 md:pd-20 justify-evenly items-center""><div class=""square""></div><div class=""square""></div><div class=""square""></div></div>","p","","matchness_test_2","match","方","p","true","match"
"","null","html-keynbutton-response","245","2.0.0","3703884","21","<div class=""pb-14 text-7xl"">+</div>","null","fixation","","","","","",""
"","407","html-keynbutton-response","246","2.0.0","3704292","21","<div class=""flex flex-row stim-length pb-8 md:pd-20 justify-evenly items-center""><div class=""square""></div><div class=""circle""></div><div class=""square""></div></div>","q","","matchness_test_2","mismatch","圆","q","true","mismatch"
"","null","html-keynbutton-response","247","2.0.0","3704800","21","<div class=""pb-14 text-7xl"">+</div>","null","fixation","","","","","",""
"","260","html-keynbutton-response","248","2.0.0","3705061","21","<div class=""flex flex-row stim-length pb-8 md:pd-20 justify-evenly items-center""><div class=""square""></div><div class=""square""></div><div class=""square""></div></div>","q","","matchness_test_2","match","方","p","false","mismatch"
"","null","html-keynbutton-response","249","2.0.0","3705567","21","<div class=""pb-14 text-7xl"">+</div>","null","fixation","","","","","",""
"","341","html-keynbutton-response","250","2.0.0","3705909","21","<div class=""flex flex-row stim-length pb-8 md:pd-20 justify-evenly items-center""><div class=""square""></div><div class=""circle""></div><div class=""square""></div></div>","q","","matchness_test_2","mismatch","圆","q","true","mismatch"
"","null","html-keynbutton-response","251","2.0.0","3706416","21","<div class=""pb-14 text-7xl"">+</div>","null","fixation","","","","","",""
"","323","html-keynbutton-response","252","2.0.0","3706741","21","<div class=""flex flex-row stim-length pb-8 md:pd-20 justify-evenly items-center""><div class=""circle""></div><div class=""square""></div><div class=""circle""></div></div>","q","","matchness_test_2","mismatch","方","q","true","mismatch"
"","null","html-keynbutton-response","253","2.0.0","3707250","21","<div class=""pb-14 text-7xl"">+</div>","null","fixation","","","","","",""
"","450","html-keynbutton-response","254","2.0.0","3707701","21","<div class=""flex flex-row stim-length pb-8 md:pd-20 justify-evenly items-center""><div class=""circle""></div><div class=""circle""></div><div class=""circle""></div></div>","p","","matchness_test_2","match","圆","p","true","match"
"","null","html-keynbutton-response","255","2.0.0","3708216","21","<div class=""pb-14 text-7xl"">+</div>","null","fixation","","","","","",""
"","283","html-keynbutton-response","256","2.0.0","3708501","21","<div class=""flex flex-row stim-length pb-8 md:pd-20 justify-evenly items-center""><div class=""square""></div><div class=""circle""></div><div class=""square""></div></div>","p","","matchness_test_2","mismatch","圆","q","false","match"
"","null","html-keynbutton-response","257","2.0.0","3709002","21","<div class=""pb-14 text-7xl"">+</div>","null","fixation","","","","","",""
"","410","html-keynbutton-response","258","2.0.0","3709413","21","<div class=""flex flex-row stim-length pb-8 md:pd-20 justify-evenly items-center""><div class=""circle""></div><div class=""square""></div><div class=""circle""></div></div>","q","","matchness_test_2","mismatch","方","q","true","mismatch"
"","null","html-keynbutton-response","259","2.0.0","3709917","21","<div class=""pb-14 text-7xl"">+</div>","null","fixation","","","","","",""
"","518","html-keynbutton-response","260","2.0.0","3710437","21","<div class=""flex flex-row stim-length pb-8 md:pd-20 justify-evenly items-center""><div class=""square""></div><div class=""square""></div><div class=""square""></div></div>","p","","matchness_test_2","match","方","p","true","match"
"","null","html-keynbutton-response","261","2.0.0","3710950","21","<div class=""pb-14 text-7xl"">+</div>","null","fixation","","","","","",""
"","398","html-keynbutton-response","262","2.0.0","3711348","21","<div class=""flex flex-row stim-length pb-8 md:pd-20 justify-evenly items-center""><div class=""circle""></div><div class=""circle""></div><div class=""circle""></div></div>","q","","matchness_test_2","match","圆","p","false","mismatch"
"","null","html-keynbutton-response","263","2.0.0","3711851","21","<div class=""pb-14 text-7xl"">+</div>","null","fixation","","","","","",""
"","393","html-keynbutton-response","264","2.0.0","3712245","21","<div class=""flex flex-row stim-length pb-8 md:pd-20 justify-evenly items-center""><div class=""circle""></div><div class=""square""></div><div class=""circle""></div></div>","q","","matchness_test_2","mismatch","方","q","true","mismatch"
"","null","html-keynbutton-response","265","2.0.0","3712751","21","<div class=""pb-14 text-7xl"">+</div>","null","fixation","","","","","",""
"","341","html-keynbutton-response","266","2.0.0","3713093","21","<div class=""flex flex-row stim-length pb-8 md:pd-20 justify-evenly items-center""><div class=""circle""></div><div class=""circle""></div><div class=""circle""></div></div>","p","","matchness_test_2","match","圆","p","true","match"
"","null","html-keynbutton-response","267","2.0.0","3713601","21","<div class=""pb-14 text-7xl"">+</div>","null","fixation","","","","","",""
"","419","html-keynbutton-response","268","2.0.0","3714021","21","<div class=""flex flex-row stim-length pb-8 md:pd-20 justify-evenly items-center""><div class=""square""></div><div class=""circle""></div><div class=""square""></div></div>","q","","matchness_test_2","mismatch","圆","q","true","mismatch"
"","null","html-keynbutton-response","269","2.0.0","3714533","21","<div class=""pb-14 text-7xl"">+</div>","null","fixation","","","","","",""
"","334","html-keynbutton-response","270","2.0.0","3714869","21","<div class=""flex flex-row stim-length pb-8 md:pd-20 justify-evenly items-center""><div class=""square""></div><div class=""square""></div><div class=""square""></div></div>","p","","matchness_test_2","match","方","p","true","match"
"","null","html-keynbutton-response","271","2.0.0","3715383","21","<div class=""pb-14 text-7xl"">+</div>","null","fixation","","","","","",""
"","428","html-keynbutton-response","272","2.0.0","3715812","21","<div class=""flex flex-row stim-length pb-8 md:pd-20 justify-evenly items-center""><div class=""circle""></div><div class=""circle""></div><div class=""circle""></div></div>","p","","matchness_test_2","match","圆","p","true","match"
"","null","html-keynbutton-response","273","2.0.0","3716317","21","<div class=""pb-14 text-7xl"">+</div>","null","fixation","","","","","",""
"","374","html-keynbutton-response","274","2.0.0","3716693","21","<div class=""flex flex-row stim-length pb-8 md:pd-20 justify-evenly items-center""><div class=""square""></div><div class=""circle""></div><div class=""square""></div></div>","q","","matchness_test_2","mismatch","圆","q","true","mismatch"
"","null","html-keynbutton-response","275","2.0.0","3717201","21","<div class=""pb-14 text-7xl"">+</div>","null","fixation","","","","","",""
"","435","html-keynbutton-response","276","2.0.0","3717637","21","<div class=""flex flex-row stim-length pb-8 md:pd-20 justify-evenly items-center""><div class=""circle""></div><div class=""square""></div><div class=""circle""></div></div>","q","","matchness_test_2","mismatch","方","q","true","mismatch"
"","null","html-keynbutton-response","277","2.0.0","3718150","21","<div class=""pb-14 text-7xl"">+</div>","null","fixation","","","","","",""
"","365","html-keynbutton-response","278","2.0.0","3718517","21","<div class=""flex flex-row stim-length pb-8 md:pd-20 justify-evenly items-center""><div class=""square""></div><div class=""square""></div><div class=""square""></div></div>","p","","matchness_test_2","match","方","p","true","match"
"","null","html-keynbutton-response","279","2.0.0","3719033","21","<div class=""pb-14 text-7xl"">+</div>","null","fixation","","","","","",""
"","394","html-keynbutton-response","280","2.0.0","3719428","21","<div class=""flex flex-row stim-length pb-8 md:pd-20 justify-evenly items-center""><div class=""circle""></div><div class=""square""></div><div class=""circle""></div></div>","q","","matchness_test_2","mismatch","方","q","true","mismatch"
"","null","html-keynbutton-response","281","2.0.0","3719935","21","<div class=""pb-14 text-7xl"">+</div>","null","fixation","","","","","",""
"","341","html-keynbutton-response","282","2.0.0","3720277","21","<div class=""flex flex-row stim-length pb-8 md:pd-20 justify-evenly items-center""><div class=""square""></div><div class=""square""></div><div class=""square""></div></div>","p","","matchness_test_2","match","方","p","true","match"
"","null","html-keynbutton-response","283","2.0.0","3720791","21","<div class=""pb-14 text-7xl"">+</div>","null","fixation","","","","","",""
"","317","html-keynbutton-response","284","2.0.0","3721109","21","<div class=""flex flex-row stim-length pb-8 md:pd-20 justify-evenly items-center""><div class=""square""></div><div class=""circle""></div><div class=""square""></div></div>","q","","matchness_test_2","mismatch","圆","q","true","mismatch"
"","null","html-keynbutton-response","285","2.0.0","3721616","21","<div class=""pb-14 text-7xl"">+</div>","null","fixation","","","","","",""
"","324","html-keynbutton-response","286","2.0.0","3721941","21","<div class=""flex flex-row stim-length pb-8 md:pd-20 justify-evenly items-center""><div class=""circle""></div><div class=""circle""></div><div class=""circle""></div></div>","p","","matchness_test_2","match","圆","p","true","match"
"","null","html-keynbutton-response","287","2.0.0","3722449","21","<div class=""pb-14 text-7xl"">+</div>","null","fixation","","","","","",""
"","291","html-keynbutton-response","288","2.0.0","3722741","21","<div class=""flex flex-row stim-length pb-8 md:pd-20 justify-evenly items-center""><div class=""circle""></div><div class=""circle""></div><div class=""circle""></div></div>","p","","matchness_test_2","match","圆","p","true","match"
"","null","html-keynbutton-response","289","2.0.0","3723250","21","<div class=""pb-14 text-7xl"">+</div>","null","fixation","","","","","",""
"","274","html-keynbutton-response","290","2.0.0","3723525","21","<div class=""flex flex-row stim-length pb-8 md:pd-20 justify-evenly items-center""><div class=""circle""></div><div class=""square""></div><div class=""circle""></div></div>","p","","matchness_test_2","mismatch","方","q","false","match"
"","null","html-keynbutton-response","291","2.0.0","3724033","21","<div class=""pb-14 text-7xl"">+</div>","null","fixation","","","","","",""
"","418","html-keynbutton-response","292","2.0.0","3724452","21","<div class=""flex flex-row stim-length pb-8 md:pd-20 justify-evenly items-center""><div class=""square""></div><div class=""circle""></div><div class=""square""></div></div>","q","","matchness_test_2","mismatch","圆","q","true","mismatch"
"","null","html-keynbutton-response","293","2.0.0","3724967","21","<div class=""pb-14 text-7xl"">+</div>","null","fixation","","","","","",""
"","349","html-keynbutton-response","294","2.0.0","3725317","21","<div class=""flex flex-row stim-length pb-8 md:pd-20 justify-evenly items-center""><div class=""square""></div><div class=""square""></div><div class=""square""></div></div>","q","","matchness_test_2","match","方","p","false","mismatch"
"","null","html-keynbutton-response","295","2.0.0","3725833","21","<div class=""pb-14 text-7xl"">+</div>","null","fixation","","","","","",""
"","363","html-keynbutton-response","296","2.0.0","3726197","21","<div class=""flex flex-row stim-length pb-8 md:pd-20 justify-evenly items-center""><div class=""circle""></div><div class=""circle""></div><div class=""circle""></div></div>","q","","matchness_test_2","match","圆","p","false","mismatch"
"","null","html-keynbutton-response","297","2.0.0","3726701","21","<div class=""pb-14 text-7xl"">+</div>","null","fixation","","","","","",""
"","279","html-keynbutton-response","298","2.0.0","3726981","21","<div class=""flex flex-row stim-length pb-8 md:pd-20 justify-evenly items-center""><div class=""square""></div><div class=""square""></div><div class=""square""></div></div>","q","","matchness_test_2","match","方","p","false","mismatch"
"","null","html-keynbutton-response","299","2.0.0","3727485","21","<div class=""pb-14 text-7xl"">+</div>","null","fixation","","","","","",""
"","375","html-keynbutton-response","300","2.0.0","3727860","21","<div class=""flex flex-row stim-length pb-8 md:pd-20 justify-evenly items-center""><div class=""circle""></div><div class=""square""></div><div class=""circle""></div></div>","q","","matchness_test_2","mismatch","方","q","true","mismatch"
"","null","html-keynbutton-response","301","2.0.0","3728366","21","<div class=""pb-14 text-7xl"">+</div>","null","fixation","","","","","",""
"","374","html-keynbutton-response","302","2.0.0","3728741","21","<div class=""flex flex-row stim-length pb-8 md:pd-20 justify-evenly items-center""><div class=""square""></div><div class=""circle""></div><div class=""square""></div></div>","q","","matchness_test_2","mismatch","圆","q","true","mismatch"
"","null","html-keynbutton-response","303","2.0.0","3729250","21","<div class=""pb-14 text-7xl"">+</div>","null","fixation","","","","","",""
"","322","html-keynbutton-response","304","2.0.0","3729573","21","<div class=""flex flex-row stim-length pb-8 md:pd-20 justify-evenly items-center""><div class=""circle""></div><div class=""circle""></div><div class=""circle""></div></div>","q","","matchness_test_2","match","圆","p","false","mismatch"
"","null","html-keynbutton-response","305","2.0.0","3730083","21","<div class=""pb-14 text-7xl"">+</div>","null","fixation","","","","","",""
"","320","html-keynbutton-response","306","2.0.0","3730405","21","<div class=""flex flex-row stim-length pb-8 md:pd-20 justify-evenly items-center""><div class=""square""></div><div class=""square""></div><div class=""square""></div></div>","p","","matchness_test_2","match","方","p","true","match"
"","null","html-keynbutton-response","307","2.0.0","3730915","21","<div class=""pb-14 text-7xl"">+</div>","null","fixation","","","","","",""
"","449","html-keynbutton-response","308","2.0.0","3731365","21","<div class=""flex flex-row stim-length pb-8 md:pd-20 justify-evenly items-center""><div class=""square""></div><div class=""circle""></div><div class=""square""></div></div>","q","","matchness_test_2","mismatch","圆","q","true","mismatch"
"","null","html-keynbutton-response","309","2.0.0","3731868","21","<div class=""pb-14 text-7xl"">+</div>","null","fixation","","","","","",""
"","456","html-keynbutton-response","310","2.0.0","3732325","21","<div class=""flex flex-row stim-length pb-8 md:pd-20 justify-evenly items-center""><div class=""circle""></div><div class=""square""></div><div class=""circle""></div></div>","q","","matchness_test_2","mismatch","方","q","true","mismatch"
"","3022","html-keynbutton-response","311","2.0.0","3735349","21","<div class=""jp""><p>您已完成3/10部分</p><p>请休息一会儿</p>
    <p>您的正确率是：80%</p>
    <p>您的平均反应时间是：364毫秒</p></div>"," ","block_feedback","","","","","",""
"","null","html-keynbutton-response","312","2.0.0","3738567","21","<count-down title=""""></count-down>","null","countDown_trial","","","","","",""
"","null","html-keynbutton-response","313","2.0.0","3739071","21","<div class=""pb-14 text-7xl"">+</div>","null","fixation","","","","","",""
"","377","html-keynbutton-response","314","2.0.0","3739448","21","<div class=""flex flex-row stim-length pb-8 md:pd-20 justify-evenly items-center""><div class=""circle""></div><div class=""square""></div><div class=""circle""></div></div>","q","","matchness_test_3","mismatch","方","q","true","mismatch"
"","null","html-keynbutton-response","315","2.0.0","3739955","21","<div class=""pb-14 text-7xl"">+</div>","null","fixation","","","","","",""
"","325","html-keynbutton-response","316","2.0.0","3740280","21","<div class=""flex flex-row stim-length pb-8 md:pd-20 justify-evenly items-center""><div class=""square""></div><div class=""square""></div><div class=""square""></div></div>","p","","matchness_test_3","match","方","p","true","match"
"","null","html-keynbutton-response","317","2.0.0","3740788","21","<div class=""pb-14 text-7xl"">+</div>","null","fixation","","","","","",""
"","339","html-keynbutton-response","318","2.0.0","3741128","21","<div class=""flex flex-row stim-length pb-8 md:pd-20 justify-evenly items-center""><div class=""circle""></div><div class=""circle""></div><div class=""circle""></div></div>","p","","matchness_test_3","match","圆","p","true","match"
"","null","html-keynbutton-response","319","2.0.0","3741635","21","<div class=""pb-14 text-7xl"">+</div>","null","fixation","","","","","",""
"","372","html-keynbutton-response","320","2.0.0","3742008","21","<div class=""flex flex-row stim-length pb-8 md:pd-20 justify-evenly items-center""><div class=""square""></div><div class=""circle""></div><div class=""square""></div></div>","q","","matchness_test_3","mismatch","圆","q","true","mismatch"
"","null","html-keynbutton-response","321","2.0.0","3742520","21","<div class=""pb-14 text-7xl"">+</div>","null","fixation","","","","","",""
"","432","html-keynbutton-response","322","2.0.0","3742952","21","<div class=""flex flex-row stim-length pb-8 md:pd-20 justify-evenly items-center""><div class=""circle""></div><div class=""circle""></div><div class=""circle""></div></div>","p","","matchness_test_3","match","圆","p","true","match"
"","null","html-keynbutton-response","323","2.0.0","3743455","21","<div class=""pb-14 text-7xl"">+</div>","null","fixation","","","","","",""
"","329","html-keynbutton-response","324","2.0.0","3743785","21","<div class=""flex flex-row stim-length pb-8 md:pd-20 justify-evenly items-center""><div class=""square""></div><div class=""square""></div><div class=""square""></div></div>","p","","matchness_test_3","match","方","p","true","match"
"","null","html-keynbutton-response","325","2.0.0","3744288","21","<div class=""pb-14 text-7xl"">+</div>","null","fixation","","","","","",""
"","392","html-keynbutton-response","326","2.0.0","3744681","21","<div class=""flex flex-row stim-length pb-8 md:pd-20 justify-evenly items-center""><div class=""square""></div><div class=""circle""></div><div class=""square""></div></div>","p","","matchness_test_3","mismatch","圆","q","false","match"
"","null","html-keynbutton-response","327","2.0.0","3745188","21","<div class=""pb-14 text-7xl"">+</div>","null","fixation","","","","","",""
"","355","html-keynbutton-response","328","2.0.0","3745544","21","<div class=""flex flex-row stim-length pb-8 md:pd-20 justify-evenly items-center""><div class=""circle""></div><div class=""square""></div><div class=""circle""></div></div>","q","","matchness_test_3","mismatch","方","q","true","mismatch"
"","null","html-keynbutton-response","329","2.0.0","3746052","21","<div class=""pb-14 text-7xl"">+</div>","null","fixation","","","","","",""
"","307","html-keynbutton-response","330","2.0.0","3746360","21","<div class=""flex flex-row stim-length pb-8 md:pd-20 justify-evenly items-center""><div class=""square""></div><div class=""circle""></div><div class=""square""></div></div>","q","","matchness_test_3","mismatch","圆","q","true","mismatch"
"","null","html-keynbutton-response","331","2.0.0","3746874","21","<div class=""pb-14 text-7xl"">+</div>","null","fixation","","","","","",""
"","317","html-keynbutton-response","332","2.0.0","3747192","21","<div class=""flex flex-row stim-length pb-8 md:pd-20 justify-evenly items-center""><div class=""circle""></div><div class=""square""></div><div class=""circle""></div></div>","q","","matchness_test_3","mismatch","方","q","true","mismatch"
"","null","html-keynbutton-response","333","2.0.0","3747703","21","<div class=""pb-14 text-7xl"">+</div>","null","fixation","","","","","",""
"","368","html-keynbutton-response","334","2.0.0","3748072","21","<div class=""flex flex-row stim-length pb-8 md:pd-20 justify-evenly items-center""><div class=""square""></div><div class=""square""></div><div class=""square""></div></div>","p","","matchness_test_3","match","方","p","true","match"
"","null","html-keynbutton-response","335","2.0.0","3748587","21","<div class=""pb-14 text-7xl"">+</div>","null","fixation","","","","","",""
"","268","html-keynbutton-response","336","2.0.0","3748856","21","<div class=""flex flex-row stim-length pb-8 md:pd-20 justify-evenly items-center""><div class=""circle""></div><div class=""circle""></div><div class=""circle""></div></div>","p","","matchness_test_3","match","圆","p","true","match"
"","null","html-keynbutton-response","337","2.0.0","3749370","21","<div class=""pb-14 text-7xl"">+</div>","null","fixation","","","","","",""
"","300","html-keynbutton-response","338","2.0.0","3749671","21","<div class=""flex flex-row stim-length pb-8 md:pd-20 justify-evenly items-center""><div class=""square""></div><div class=""square""></div><div class=""square""></div></div>","p","","matchness_test_3","match","方","p","true","match"
"","null","html-keynbutton-response","339","2.0.0","3750187","21","<div class=""pb-14 text-7xl"">+</div>","null","fixation","","","","","",""
"","364","html-keynbutton-response","340","2.0.0","3750552","21","<div class=""flex flex-row stim-length pb-8 md:pd-20 justify-evenly items-center""><div class=""circle""></div><div class=""circle""></div><div class=""circle""></div></div>","p","","matchness_test_3","match","圆","p","true","match"
"","null","html-keynbutton-response","341","2.0.0","3751054","21","<div class=""pb-14 text-7xl"">+</div>","null","fixation","","","","","",""
"","346","html-keynbutton-response","342","2.0.0","3751401","21","<div class=""flex flex-row stim-length pb-8 md:pd-20 justify-evenly items-center""><div class=""circle""></div><div class=""square""></div><div class=""circle""></div></div>","p","","matchness_test_3","mismatch","方","q","false","match"
"","null","html-keynbutton-response","343","2.0.0","3751910","21","<div class=""pb-14 text-7xl"">+</div>","null","fixation","","","","","",""
"","322","html-keynbutton-response","344","2.0.0","3752232","21","<div class=""flex flex-row stim-length pb-8 md:pd-20 justify-evenly items-center""><div class=""square""></div><div class=""circle""></div><div class=""square""></div></div>","q","","matchness_test_3","mismatch","圆","q","true","mismatch"
"","null","html-keynbutton-response","345","2.0.0","3752739","21","<div class=""pb-14 text-7xl"">+</div>","null","fixation","","","","","",""
"","388","html-keynbutton-response","346","2.0.0","3753129","21","<div class=""flex flex-row stim-length pb-8 md:pd-20 justify-evenly items-center""><div class=""circle""></div><div class=""square""></div><div class=""circle""></div></div>","p","","matchness_test_3","mismatch","方","q","false","match"
"","null","html-keynbutton-response","347","2.0.0","3753636","21","<div class=""pb-14 text-7xl"">+</div>","null","fixation","","","","","",""
"","259","html-keynbutton-response","348","2.0.0","3753896","21","<div class=""flex flex-row stim-length pb-8 md:pd-20 justify-evenly items-center""><div class=""square""></div><div class=""square""></div><div class=""square""></div></div>","q","","matchness_test_3","match","方","p","false","mismatch"
"","null","html-keynbutton-response","349","2.0.0","3754403","21","<div class=""pb-14 text-7xl"">+</div>","null","fixation","","","","","",""
"","291","html-keynbutton-response","350","2.0.0","3754695","21","<div class=""flex flex-row stim-length pb-8 md:pd-20 justify-evenly items-center""><div class=""square""></div><div class=""circle""></div><div class=""square""></div></div>","p","","matchness_test_3","mismatch","圆","q","false","match"
"","null","html-keynbutton-response","351","2.0.0","3755204","21","<div class=""pb-14 text-7xl"">+</div>","null","fixation","","","","","",""
"","371","html-keynbutton-response","352","2.0.0","3755576","21","<div class=""flex flex-row stim-length pb-8 md:pd-20 justify-evenly items-center""><div class=""circle""></div><div class=""circle""></div><div class=""circle""></div></div>","p","","matchness_test_3","match","圆","p","true","match"
"","null","html-keynbutton-response","353","2.0.0","3756087","21","<div class=""pb-14 text-7xl"">+</div>","null","fixation","","","","","",""
"","257","html-keynbutton-response","354","2.0.0","3756344","21","<div class=""flex flex-row stim-length pb-8 md:pd-20 justify-evenly items-center""><div class=""circle""></div><div class=""square""></div><div class=""circle""></div></div>","p","","matchness_test_3","mismatch","方","q","false","match"
"","null","html-keynbutton-response","355","2.0.0","3756853","21","<div class=""pb-14 text-7xl"">+</div>","null","fixation","","","","","",""
"","386","html-keynbutton-response","356","2.0.0","3757240","21","<div class=""flex flex-row stim-length pb-8 md:pd-20 justify-evenly items-center""><div class=""circle""></div><div class=""circle""></div><div class=""circle""></div></div>","p","","matchness_test_3","match","圆","p","true","match"
"","null","html-keynbutton-response","357","2.0.0","3757753","21","<div class=""pb-14 text-7xl"">+</div>","null","fixation","","","","","",""
"","430","html-keynbutton-response","358","2.0.0","3758184","21","<div class=""flex flex-row stim-length pb-8 md:pd-20 justify-evenly items-center""><div class=""square""></div><div class=""circle""></div><div class=""square""></div></div>","q","","matchness_test_3","mismatch","圆","q","true","mismatch"
"","null","html-keynbutton-response","359","2.0.0","3758688","21","<div class=""pb-14 text-7xl"">+</div>","null","fixation","","","","","",""
"","280","html-keynbutton-response","360","2.0.0","3758968","21","<div class=""flex flex-row stim-length pb-8 md:pd-20 justify-evenly items-center""><div class=""square""></div><div class=""square""></div><div class=""square""></div></div>","p","","matchness_test_3","match","方","p","true","match"
"","null","html-keynbutton-response","361","2.0.0","3759472","21","<div class=""pb-14 text-7xl"">+</div>","null","fixation","","","","","",""
"","295","html-keynbutton-response","362","2.0.0","3759767","21","<div class=""flex flex-row stim-length pb-8 md:pd-20 justify-evenly items-center""><div class=""square""></div><div class=""square""></div><div class=""square""></div></div>","q","","matchness_test_3","match","方","p","false","mismatch"
"","null","html-keynbutton-response","363","2.0.0","3760272","21","<div class=""pb-14 text-7xl"">+</div>","null","fixation","","","","","",""
"","312","html-keynbutton-response","364","2.0.0","3760585","21","<div class=""flex flex-row stim-length pb-8 md:pd-20 justify-evenly items-center""><div class=""circle""></div><div class=""square""></div><div class=""circle""></div></div>","q","","matchness_test_3","mismatch","方","q","true","mismatch"
"","null","html-keynbutton-response","365","2.0.0","3761088","21","<div class=""pb-14 text-7xl"">+</div>","null","fixation","","","","","",""
"","296","html-keynbutton-response","366","2.0.0","3761385","21","<div class=""flex flex-row stim-length pb-8 md:pd-20 justify-evenly items-center""><div class=""circle""></div><div class=""circle""></div><div class=""circle""></div></div>","p","","matchness_test_3","match","圆","p","true","match"
"","null","html-keynbutton-response","367","2.0.0","3761888","21","<div class=""pb-14 text-7xl"">+</div>","null","fixation","","","","","",""
"","440","html-keynbutton-response","368","2.0.0","3762328","21","<div class=""flex flex-row stim-length pb-8 md:pd-20 justify-evenly items-center""><div class=""square""></div><div class=""circle""></div><div class=""square""></div></div>","q","","matchness_test_3","mismatch","圆","q","true","mismatch"
"","null","html-keynbutton-response","369","2.0.0","3762835","21","<div class=""pb-14 text-7xl"">+</div>","null","fixation","","","","","",""
"","724","html-keynbutton-response","370","2.0.0","3763560","21","<div class=""flex flex-row stim-length pb-8 md:pd-20 justify-evenly items-center""><div class=""square""></div><div class=""circle""></div><div class=""square""></div></div>","q","","matchness_test_3","mismatch","圆","q","true","mismatch"
"","null","html-keynbutton-response","371","2.0.0","3764069","21","<div class=""pb-14 text-7xl"">+</div>","null","fixation","","","","","",""
"","434","html-keynbutton-response","372","2.0.0","3764503","21","<div class=""flex flex-row stim-length pb-8 md:pd-20 justify-evenly items-center""><div class=""circle""></div><div class=""circle""></div><div class=""circle""></div></div>","p","","matchness_test_3","match","圆","p","true","match"
"","null","html-keynbutton-response","373","2.0.0","3765004","21","<div class=""pb-14 text-7xl"">+</div>","null","fixation","","","","","",""
"","491","html-keynbutton-response","374","2.0.0","3765496","21","<div class=""flex flex-row stim-length pb-8 md:pd-20 justify-evenly items-center""><div class=""square""></div><div class=""square""></div><div class=""square""></div></div>","p","","matchness_test_3","match","方","p","true","match"
"","null","html-keynbutton-response","375","2.0.0","3766002","21","<div class=""pb-14 text-7xl"">+</div>","null","fixation","","","","","",""
"","406","html-keynbutton-response","376","2.0.0","3766408","21","<div class=""flex flex-row stim-length pb-8 md:pd-20 justify-evenly items-center""><div class=""circle""></div><div class=""square""></div><div class=""circle""></div></div>","q","","matchness_test_3","mismatch","方","q","true","mismatch"
"","null","html-keynbutton-response","377","2.0.0","3766920","21","<div class=""pb-14 text-7xl"">+</div>","null","fixation","","","","","",""
"","462","html-keynbutton-response","378","2.0.0","3767383","21","<div class=""flex flex-row stim-length pb-8 md:pd-20 justify-evenly items-center""><div class=""square""></div><div class=""circle""></div><div class=""square""></div></div>","q","","matchness_test_3","mismatch","圆","q","true","mismatch"
"","null","html-keynbutton-response","379","2.0.0","3767890","21","<div class=""pb-14 text-7xl"">+</div>","null","fixation","","","","","",""
"","293","html-keynbutton-response","380","2.0.0","3768183","21","<div class=""flex flex-row stim-length pb-8 md:pd-20 justify-evenly items-center""><div class=""square""></div><div class=""square""></div><div class=""square""></div></div>","q","","matchness_test_3","match","方","p","false","mismatch"
"","null","html-keynbutton-response","381","2.0.0","3768690","21","<div class=""pb-14 text-7xl"">+</div>","null","fixation","","","","","",""
"","359","html-keynbutton-response","382","2.0.0","3769050","21","<div class=""flex flex-row stim-length pb-8 md:pd-20 justify-evenly items-center""><div class=""circle""></div><div class=""circle""></div><div class=""circle""></div></div>","p","","matchness_test_3","match","圆","p","true","match"
"","null","html-keynbutton-response","383","2.0.0","3769556","21","<div class=""pb-14 text-7xl"">+</div>","null","fixation","","","","","",""
"","371","html-keynbutton-response","384","2.0.0","3769928","21","<div class=""flex flex-row stim-length pb-8 md:pd-20 justify-evenly items-center""><div class=""circle""></div><div class=""square""></div><div class=""circle""></div></div>","q","","matchness_test_3","mismatch","方","q","true","mismatch"
"","null","html-keynbutton-response","385","2.0.0","3770437","21","<div class=""pb-14 text-7xl"">+</div>","null","fixation","","","","","",""
"","385","html-keynbutton-response","386","2.0.0","3770823","21","<div class=""flex flex-row stim-length pb-8 md:pd-20 justify-evenly items-center""><div class=""circle""></div><div class=""square""></div><div class=""circle""></div></div>","q","","matchness_test_3","mismatch","方","q","true","mismatch"
"","null","html-keynbutton-response","387","2.0.0","3771337","21","<div class=""pb-14 text-7xl"">+</div>","null","fixation","","","","","",""
"","302","html-keynbutton-response","388","2.0.0","3771640","21","<div class=""flex flex-row stim-length pb-8 md:pd-20 justify-evenly items-center""><div class=""circle""></div><div class=""circle""></div><div class=""circle""></div></div>","q","","matchness_test_3","match","圆","p","false","mismatch"
"","null","html-keynbutton-response","389","2.0.0","3772153","21","<div class=""pb-14 text-7xl"">+</div>","null","fixation","","","","","",""
"","302","html-keynbutton-response","390","2.0.0","3772456","21","<div class=""flex flex-row stim-length pb-8 md:pd-20 justify-evenly items-center""><div class=""square""></div><div class=""square""></div><div class=""square""></div></div>","p","","matchness_test_3","match","方","p","true","match"
"","null","html-keynbutton-response","391","2.0.0","3772970","21","<div class=""pb-14 text-7xl"">+</div>","null","fixation","","","","","",""
"","365","html-keynbutton-response","392","2.0.0","3773336","21","<div class=""flex flex-row stim-length pb-8 md:pd-20 justify-evenly items-center""><div class=""square""></div><div class=""circle""></div><div class=""square""></div></div>","q","","matchness_test_3","mismatch","圆","q","true","mismatch"
"","1262","html-keynbutton-response","393","2.0.0","3774601","21","<div class=""jp""><p>您已完成4/10部分</p><p>请休息一会儿</p>
    <p>您的正确率是：78%</p>
    <p>您的平均反应时间是：360毫秒</p></div>"," ","block_feedback","","","","","",""
"","null","html-keynbutton-response","394","2.0.0","3777802","21","<count-down title=""""></count-down>","null","countDown_trial","","","","","",""
"","null","html-keynbutton-response","395","2.0.0","3778306","21","<div class=""pb-14 text-7xl"">+</div>","null","fixation","","","","","",""
"","629","html-keynbutton-response","396","2.0.0","3778935","21","<div class=""flex flex-row stim-length pb-8 md:pd-20 justify-evenly items-center""><div class=""circle""></div><div class=""square""></div><div class=""circle""></div></div>","q","","matchness_test_4","mismatch","方","q","true","mismatch"
"","null","html-keynbutton-response","397","2.0.0","3779438","21","<div class=""pb-14 text-7xl"">+</div>","null","fixation","","","","","",""
"","282","html-keynbutton-response","398","2.0.0","3779721","21","<div class=""flex flex-row stim-length pb-8 md:pd-20 justify-evenly items-center""><div class=""square""></div><div class=""circle""></div><div class=""square""></div></div>","q","","matchness_test_4","mismatch","圆","q","true","mismatch"
"","null","html-keynbutton-response","399","2.0.0","3780237","21","<div class=""pb-14 text-7xl"">+</div>","null","fixation","","","","","",""
"","378","html-keynbutton-response","400","2.0.0","3780616","21","<div class=""flex flex-row stim-length pb-8 md:pd-20 justify-evenly items-center""><div class=""square""></div><div class=""square""></div><div class=""square""></div></div>","p","","matchness_test_4","match","方","p","true","match"
"","null","html-keynbutton-response","401","2.0.0","3781122","21","<div class=""pb-14 text-7xl"">+</div>","null","fixation","","","","","",""
"","389","html-keynbutton-response","402","2.0.0","3781513","21","<div class=""flex flex-row stim-length pb-8 md:pd-20 justify-evenly items-center""><div class=""circle""></div><div class=""circle""></div><div class=""circle""></div></div>","p","","matchness_test_4","match","圆","p","true","match"
"","null","html-keynbutton-response","403","2.0.0","3782020","21","<div class=""pb-14 text-7xl"">+</div>","null","fixation","","","","","",""
"","276","html-keynbutton-response","404","2.0.0","3782296","21","<div class=""flex flex-row stim-length pb-8 md:pd-20 justify-evenly items-center""><div class=""circle""></div><div class=""circle""></div><div class=""circle""></div></div>","q","","matchness_test_4","match","圆","p","false","mismatch"
"","null","html-keynbutton-response","405","2.0.0","3782803","21","<div class=""pb-14 text-7xl"">+</div>","null","fixation","","","","","",""
"","436","html-keynbutton-response","406","2.0.0","3783240","21","<div class=""flex flex-row stim-length pb-8 md:pd-20 justify-evenly items-center""><div class=""square""></div><div class=""square""></div><div class=""square""></div></div>","p","","matchness_test_4","match","方","p","true","match"
"","null","html-keynbutton-response","407","2.0.0","3783754","21","<div class=""pb-14 text-7xl"">+</div>","null","fixation","","","","","",""
"","349","html-keynbutton-response","408","2.0.0","3784104","21","<div class=""flex flex-row stim-length pb-8 md:pd-20 justify-evenly items-center""><div class=""square""></div><div class=""circle""></div><div class=""square""></div></div>","q","","matchness_test_4","mismatch","圆","q","true","mismatch"
"","null","html-keynbutton-response","409","2.0.0","3784605","21","<div class=""pb-14 text-7xl"">+</div>","null","fixation","","","","","",""
"","443","html-keynbutton-response","410","2.0.0","3785049","21","<div class=""flex flex-row stim-length pb-8 md:pd-20 justify-evenly items-center""><div class=""circle""></div><div class=""square""></div><div class=""circle""></div></div>","q","","matchness_test_4","mismatch","方","q","true","mismatch"
"","null","html-keynbutton-response","411","2.0.0","3785555","21","<div class=""pb-14 text-7xl"">+</div>","null","fixation","","","","","",""
"","325","html-keynbutton-response","412","2.0.0","3785880","21","<div class=""flex flex-row stim-length pb-8 md:pd-20 justify-evenly items-center""><div class=""square""></div><div class=""circle""></div><div class=""square""></div></div>","q","","matchness_test_4","mismatch","圆","q","true","mismatch"
"","null","html-keynbutton-response","413","2.0.0","3786388","21","<div class=""pb-14 text-7xl"">+</div>","null","fixation","","","","","",""
"","292","html-keynbutton-response","414","2.0.0","3786680","21","<div class=""flex flex-row stim-length pb-8 md:pd-20 justify-evenly items-center""><div class=""square""></div><div class=""square""></div><div class=""square""></div></div>","q","","matchness_test_4","match","方","p","false","mismatch"
"","null","html-keynbutton-response","415","2.0.0","3787188","21","<div class=""pb-14 text-7xl"">+</div>","null","fixation","","","","","",""
"","372","html-keynbutton-response","416","2.0.0","3787560","21","<div class=""flex flex-row stim-length pb-8 md:pd-20 justify-evenly items-center""><div class=""circle""></div><div class=""circle""></div><div class=""circle""></div></div>","p","","matchness_test_4","match","圆","p","true","match"
"","null","html-keynbutton-response","417","2.0.0","3788070","21","<div class=""pb-14 text-7xl"">+</div>","null","fixation","","","","","",""
"","417","html-keynbutton-response","418","2.0.0","3788489","21","<div class=""flex flex-row stim-length pb-8 md:pd-20 justify-evenly items-center""><div class=""circle""></div><div class=""square""></div><div class=""circle""></div></div>","q","","matchness_test_4","mismatch","方","q","true","mismatch"
"","null","html-keynbutton-response","419","2.0.0","3789003","21","<div class=""pb-14 text-7xl"">+</div>","null","fixation","","","","","",""
"","349","html-keynbutton-response","420","2.0.0","3789352","21","<div class=""flex flex-row stim-length pb-8 md:pd-20 justify-evenly items-center""><div class=""square""></div><div class=""circle""></div><div class=""square""></div></div>","q","","matchness_test_4","mismatch","圆","q","true","mismatch"
"","null","html-keynbutton-response","421","2.0.0","3789855","21","<div class=""pb-14 text-7xl"">+</div>","null","fixation","","","","","",""
"","425","html-keynbutton-response","422","2.0.0","3790280","21","<div class=""flex flex-row stim-length pb-8 md:pd-20 justify-evenly items-center""><div class=""circle""></div><div class=""circle""></div><div class=""circle""></div></div>","p","","matchness_test_4","match","圆","p","true","match"
"","null","html-keynbutton-response","423","2.0.0","3790789","21","<div class=""pb-14 text-7xl"">+</div>","null","fixation","","","","","",""
"","258","html-keynbutton-response","424","2.0.0","3791048","21","<div class=""flex flex-row stim-length pb-8 md:pd-20 justify-evenly items-center""><div class=""square""></div><div class=""square""></div><div class=""square""></div></div>","p","","matchness_test_4","match","方","p","true","match"
"","null","html-keynbutton-response","425","2.0.0","3791555","21","<div class=""pb-14 text-7xl"">+</div>","null","fixation","","","","","",""
"","405","html-keynbutton-response","426","2.0.0","3791961","21","<div class=""flex flex-row stim-length pb-8 md:pd-20 justify-evenly items-center""><div class=""circle""></div><div class=""square""></div><div class=""circle""></div></div>","q","","matchness_test_4","mismatch","方","q","true","mismatch"
"","null","html-keynbutton-response","427","2.0.0","3792471","21","<div class=""pb-14 text-7xl"">+</div>","null","fixation","","","","","",""
"","416","html-keynbutton-response","428","2.0.0","3792888","21","<div class=""flex flex-row stim-length pb-8 md:pd-20 justify-evenly items-center""><div class=""circle""></div><div class=""square""></div><div class=""circle""></div></div>","q","","matchness_test_4","mismatch","方","q","true","mismatch"
"","null","html-keynbutton-response","429","2.0.0","3793403","21","<div class=""pb-14 text-7xl"">+</div>","null","fixation","","","","","",""
"","236","html-keynbutton-response","430","2.0.0","3793641","21","<div class=""flex flex-row stim-length pb-8 md:pd-20 justify-evenly items-center""><div class=""circle""></div><div class=""circle""></div><div class=""circle""></div></div>","q","","matchness_test_4","match","圆","p","false","mismatch"
"","null","html-keynbutton-response","431","2.0.0","3794154","21","<div class=""pb-14 text-7xl"">+</div>","null","fixation","","","","","",""
"","254","html-keynbutton-response","432","2.0.0","3794408","21","<div class=""flex flex-row stim-length pb-8 md:pd-20 justify-evenly items-center""><div class=""square""></div><div class=""circle""></div><div class=""square""></div></div>","p","","matchness_test_4","mismatch","圆","q","false","match"
"","null","html-keynbutton-response","433","2.0.0","3794920","21","<div class=""pb-14 text-7xl"">+</div>","null","fixation","","","","","",""
"","671","html-keynbutton-response","434","2.0.0","3795593","21","<div class=""flex flex-row stim-length pb-8 md:pd-20 justify-evenly items-center""><div class=""square""></div><div class=""square""></div><div class=""square""></div></div>","p","","matchness_test_4","match","方","p","true","match"
"","null","html-keynbutton-response","435","2.0.0","3796104","21","<div class=""pb-14 text-7xl"">+</div>","null","fixation","","","","","",""
"","400","html-keynbutton-response","436","2.0.0","3796505","21","<div class=""flex flex-row stim-length pb-8 md:pd-20 justify-evenly items-center""><div class=""circle""></div><div class=""circle""></div><div class=""circle""></div></div>","p","","matchness_test_4","match","圆","p","true","match"
"","null","html-keynbutton-response","437","2.0.0","3797021","21","<div class=""pb-14 text-7xl"">+</div>","null","fixation","","","","","",""
"","315","html-keynbutton-response","438","2.0.0","3797337","21","<div class=""flex flex-row stim-length pb-8 md:pd-20 justify-evenly items-center""><div class=""square""></div><div class=""square""></div><div class=""square""></div></div>","p","","matchness_test_4","match","方","p","true","match"
"","null","html-keynbutton-response","439","2.0.0","3797839","21","<div class=""pb-14 text-7xl"">+</div>","null","fixation","","","","","",""
"","281","html-keynbutton-response","440","2.0.0","3798121","21","<div class=""flex flex-row stim-length pb-8 md:pd-20 justify-evenly items-center""><div class=""circle""></div><div class=""square""></div><div class=""circle""></div></div>","p","","matchness_test_4","mismatch","方","q","false","match"
"","null","html-keynbutton-response","441","2.0.0","3798623","21","<div class=""pb-14 text-7xl"">+</div>","null","fixation","","","","","",""
"","329","html-keynbutton-response","442","2.0.0","3798953","21","<div class=""flex flex-row stim-length pb-8 md:pd-20 justify-evenly items-center""><div class=""square""></div><div class=""circle""></div><div class=""square""></div></div>","q","","matchness_test_4","mismatch","圆","q","true","mismatch"
"","null","html-keynbutton-response","443","2.0.0","3799455","21","<div class=""pb-14 text-7xl"">+</div>","null","fixation","","","","","",""
"","441","html-keynbutton-response","444","2.0.0","3799897","21","<div class=""flex flex-row stim-length pb-8 md:pd-20 justify-evenly items-center""><div class=""circle""></div><div class=""square""></div><div class=""circle""></div></div>","q","","matchness_test_4","mismatch","方","q","true","mismatch"
"","null","html-keynbutton-response","445","2.0.0","3800404","21","<div class=""pb-14 text-7xl"">+</div>","null","fixation","","","","","",""
"","372","html-keynbutton-response","446","2.0.0","3800777","21","<div class=""flex flex-row stim-length pb-8 md:pd-20 justify-evenly items-center""><div class=""square""></div><div class=""square""></div><div class=""square""></div></div>","p","","matchness_test_4","match","方","p","true","match"
"","null","html-keynbutton-response","447","2.0.0","3801288","21","<div class=""pb-14 text-7xl"">+</div>","null","fixation","","","","","",""
"","320","html-keynbutton-response","448","2.0.0","3801609","21","<div class=""flex flex-row stim-length pb-8 md:pd-20 justify-evenly items-center""><div class=""circle""></div><div class=""circle""></div><div class=""circle""></div></div>","p","","matchness_test_4","match","圆","p","true","match"
"","null","html-keynbutton-response","449","2.0.0","3802121","21","<div class=""pb-14 text-7xl"">+</div>","null","fixation","","","","","",""
"","415","html-keynbutton-response","450","2.0.0","3802537","21","<div class=""flex flex-row stim-length pb-8 md:pd-20 justify-evenly items-center""><div class=""square""></div><div class=""circle""></div><div class=""square""></div></div>","q","","matchness_test_4","mismatch","圆","q","true","mismatch"
"","null","html-keynbutton-response","451","2.0.0","3803038","21","<div class=""pb-14 text-7xl"">+</div>","null","fixation","","","","","",""
"","249","html-keynbutton-response","452","2.0.0","3803289","21","<div class=""flex flex-row stim-length pb-8 md:pd-20 justify-evenly items-center""><div class=""square""></div><div class=""square""></div><div class=""square""></div></div>","q","","matchness_test_4","match","方","p","false","mismatch"
"","null","html-keynbutton-response","453","2.0.0","3803804","21","<div class=""pb-14 text-7xl"">+</div>","null","fixation","","","","","",""
"","268","html-keynbutton-response","454","2.0.0","3804073","21","<div class=""flex flex-row stim-length pb-8 md:pd-20 justify-evenly items-center""><div class=""circle""></div><div class=""square""></div><div class=""circle""></div></div>","q","","matchness_test_4","mismatch","方","q","true","mismatch"
"","null","html-keynbutton-response","455","2.0.0","3804588","21","<div class=""pb-14 text-7xl"">+</div>","null","fixation","","","","","",""
"","285","html-keynbutton-response","456","2.0.0","3804873","21","<div class=""flex flex-row stim-length pb-8 md:pd-20 justify-evenly items-center""><div class=""circle""></div><div class=""circle""></div><div class=""circle""></div></div>","p","","matchness_test_4","match","圆","p","true","match"
