"success","rt","trial_type","trial_index","plugin_version","time_elapsed","subj_id","stimulus","response","trail_tag","task","ismatch","target","correct_key","correct","response_key"
"true","2656","fullscreen","0","2.0.0","3670","18","","","","","","","","",""
"","7373","html-keynbutton-response","1","2.0.0","11046","18","
        <div class=""jp px-2 xxs:px-5 mx-auto"">
        <p class=""text-center text-red-600 text-[1.2em] pb-5"">欢迎您参加知觉
          <strong>判断实验。</strong>
        </p>
        <p>接下来的任务中您将看到一排图形。</p>
        <p>(圆形●或方形■)</p><p>您的任务是<strong>忽略两侧的图形，专注于中间的图形</strong>。</p>
        <p>如果中间的图形是方，请按“q”；</p>
        <p>如果是圆，请按“p”。</p><p>请尽量又快又准地做出反应。</p>
      <p>请按空格键开始练习。</p>
      </div>"," ","","","","","","",""
"","null","html-keynbutton-response","2","2.0.0","14258","18","<count-down title=""""></count-down>","null","countDown_trial","","","","","",""
"","null","html-keynbutton-response","3","2.0.0","14763","18","<div class=""pb-14 text-7xl"">+</div>","null","fixation","","","","","",""
"","727","html-keynbutton-response","4","2.0.0","15492","18","<div class=""flex flex-row stim-length pb-8 md:pd-20 justify-evenly items-center""><div class=""circle""></div><div class=""circle""></div><div class=""circle""></div></div>","p","","shape_practice","match","圆","p","true","圆"
"","null","html-keynbutton-response","5","2.0.0","15996","18","<span class='text-green-400 text-4xl md:text-5xl lg:text-6xl'>正确!</span>","null","trial_feedback","","","","","",""
"","null","html-keynbutton-response","6","2.0.0","16510","18","<div class=""pb-14 text-7xl"">+</div>","null","fixation","","","","","",""
"","612","html-keynbutton-response","7","2.0.0","17124","18","<div class=""flex flex-row stim-length pb-8 md:pd-20 justify-evenly items-center""><div class=""circle""></div><div class=""square""></div><div class=""circle""></div></div>","q","","shape_practice","mismatch","方","q","true","方"
"","null","html-keynbutton-response","8","2.0.0","17628","18","<span class='text-green-400 text-4xl md:text-5xl lg:text-6xl'>正确!</span>","null","trial_feedback","","","","","",""
"","null","html-keynbutton-response","9","2.0.0","18144","18","<div class=""pb-14 text-7xl"">+</div>","null","fixation","","","","","",""
"","419","html-keynbutton-response","10","2.0.0","18564","18","<div class=""flex flex-row stim-length pb-8 md:pd-20 justify-evenly items-center""><div class=""square""></div><div class=""circle""></div><div class=""square""></div></div>","p","","shape_practice","mismatch","圆","p","true","圆"
"","null","html-keynbutton-response","11","2.0.0","19077","18","<span class='text-green-400 text-4xl md:text-5xl lg:text-6xl'>正确!</span>","null","trial_feedback","","","","","",""
"","null","html-keynbutton-response","12","2.0.0","19578","18","<div class=""pb-14 text-7xl"">+</div>","null","fixation","","","","","",""
"","473","html-keynbutton-response","13","2.0.0","20052","18","<div class=""flex flex-row stim-length pb-8 md:pd-20 justify-evenly items-center""><div class=""square""></div><div class=""square""></div><div class=""square""></div></div>","q","","shape_practice","match","方","q","true","方"
"","null","html-keynbutton-response","14","2.0.0","20560","18","<span class='text-green-400 text-4xl md:text-5xl lg:text-6xl'>正确!</span>","null","trial_feedback","","","","","",""
"","null","html-keynbutton-response","15","2.0.0","21077","18","<div class=""pb-14 text-7xl"">+</div>","null","fixation","","","","","",""
"","445","html-keynbutton-response","16","2.0.0","21523","18","<div class=""flex flex-row stim-length pb-8 md:pd-20 justify-evenly items-center""><div class=""square""></div><div class=""circle""></div><div class=""square""></div></div>","p","","shape_practice","mismatch","圆","p","true","圆"
"","null","html-keynbutton-response","17","2.0.0","22029","18","<span class='text-green-400 text-4xl md:text-5xl lg:text-6xl'>正确!</span>","null","trial_feedback","","","","","",""
"","null","html-keynbutton-response","18","2.0.0","22543","18","<div class=""pb-14 text-7xl"">+</div>","null","fixation","","","","","",""
"","419","html-keynbutton-response","19","2.0.0","22963","18","<div class=""flex flex-row stim-length pb-8 md:pd-20 justify-evenly items-center""><div class=""circle""></div><div class=""square""></div><div class=""circle""></div></div>","q","","shape_practice","mismatch","方","q","true","方"
"","null","html-keynbutton-response","20","2.0.0","23477","18","<span class='text-green-400 text-4xl md:text-5xl lg:text-6xl'>正确!</span>","null","trial_feedback","","","","","",""
"","null","html-keynbutton-response","21","2.0.0","23994","18","<div class=""pb-14 text-7xl"">+</div>","null","fixation","","","","","",""
"","360","html-keynbutton-response","22","2.0.0","24354","18","<div class=""flex flex-row stim-length pb-8 md:pd-20 justify-evenly items-center""><div class=""circle""></div><div class=""circle""></div><div class=""circle""></div></div>","p","","shape_practice","match","圆","p","true","圆"
"","null","html-keynbutton-response","23","2.0.0","24861","18","<span class='text-green-400 text-4xl md:text-5xl lg:text-6xl'>正确!</span>","null","trial_feedback","","","","","",""
"","null","html-keynbutton-response","24","2.0.0","25376","18","<div class=""pb-14 text-7xl"">+</div>","null","fixation","","","","","",""
"","466","html-keynbutton-response","25","2.0.0","25843","18","<div class=""flex flex-row stim-length pb-8 md:pd-20 justify-evenly items-center""><div class=""square""></div><div class=""square""></div><div class=""square""></div></div>","q","","shape_practice","match","方","q","true","方"
"","null","html-keynbutton-response","26","2.0.0","26360","18","<span class='text-green-400 text-4xl md:text-5xl lg:text-6xl'>正确!</span>","null","trial_feedback","","","","","",""
"","null","html-keynbutton-response","27","2.0.0","26862","18","<div class=""pb-14 text-7xl"">+</div>","null","fixation","","","","","",""
"","500","html-keynbutton-response","28","2.0.0","27363","18","<div class=""flex flex-row stim-length pb-8 md:pd-20 justify-evenly items-center""><div class=""square""></div><div class=""circle""></div><div class=""square""></div></div>","p","","shape_practice","mismatch","圆","p","true","圆"
"","null","html-keynbutton-response","29","2.0.0","27877","18","<span class='text-green-400 text-4xl md:text-5xl lg:text-6xl'>正确!</span>","null","trial_feedback","","","","","",""
"","null","html-keynbutton-response","30","2.0.0","28393","18","<div class=""pb-14 text-7xl"">+</div>","null","fixation","","","","","",""
"","601","html-keynbutton-response","31","2.0.0","28995","18","<div class=""flex flex-row stim-length pb-8 md:pd-20 justify-evenly items-center""><div class=""circle""></div><div class=""square""></div><div class=""circle""></div></div>","q","","shape_practice","mismatch","方","q","true","方"
"","null","html-keynbutton-response","32","2.0.0","29510","18","<span class='text-green-400 text-4xl md:text-5xl lg:text-6xl'>正确!</span>","null","trial_feedback","","","","","",""
"","null","html-keynbutton-response","33","2.0.0","30027","18","<div class=""pb-14 text-7xl"">+</div>","null","fixation","","","","","",""
"","552","html-keynbutton-response","34","2.0.0","30580","18","<div class=""flex flex-row stim-length pb-8 md:pd-20 justify-evenly items-center""><div class=""circle""></div><div class=""circle""></div><div class=""circle""></div></div>","p","","shape_practice","match","圆","p","true","圆"
"","null","html-keynbutton-response","35","2.0.0","31094","18","<span class='text-green-400 text-4xl md:text-5xl lg:text-6xl'>正确!</span>","null","trial_feedback","","","","","",""
"","null","html-keynbutton-response","36","2.0.0","31610","18","<div class=""pb-14 text-7xl"">+</div>","null","fixation","","","","","",""
"","632","html-keynbutton-response","37","2.0.0","32243","18","<div class=""flex flex-row stim-length pb-8 md:pd-20 justify-evenly items-center""><div class=""square""></div><div class=""square""></div><div class=""square""></div></div>","q","","shape_practice","match","方","q","true","方"
"","null","html-keynbutton-response","38","2.0.0","32745","18","<span class='text-green-400 text-4xl md:text-5xl lg:text-6xl'>正确!</span>","null","trial_feedback","","","","","",""
"","null","html-keynbutton-response","39","2.0.0","33260","18","<div class=""pb-14 text-7xl"">+</div>","null","fixation","","","","","",""
"","375","html-keynbutton-response","40","2.0.0","33636","18","<div class=""flex flex-row stim-length pb-8 md:pd-20 justify-evenly items-center""><div class=""square""></div><div class=""square""></div><div class=""square""></div></div>","q","","shape_practice","match","方","q","true","方"
"","null","html-keynbutton-response","41","2.0.0","34144","18","<span class='text-green-400 text-4xl md:text-5xl lg:text-6xl'>正确!</span>","null","trial_feedback","","","","","",""
"","null","html-keynbutton-response","42","2.0.0","34660","18","<div class=""pb-14 text-7xl"">+</div>","null","fixation","","","","","",""
"","478","html-keynbutton-response","43","2.0.0","35140","18","<div class=""flex flex-row stim-length pb-8 md:pd-20 justify-evenly items-center""><div class=""circle""></div><div class=""circle""></div><div class=""circle""></div></div>","p","","shape_practice","match","圆","p","true","圆"
"","null","html-keynbutton-response","44","2.0.0","35645","18","<span class='text-green-400 text-4xl md:text-5xl lg:text-6xl'>正确!</span>","null","trial_feedback","","","","","",""
"","null","html-keynbutton-response","45","2.0.0","36161","18","<div class=""pb-14 text-7xl"">+</div>","null","fixation","","","","","",""
"","786","html-keynbutton-response","46","2.0.0","36948","18","<div class=""flex flex-row stim-length pb-8 md:pd-20 justify-evenly items-center""><div class=""circle""></div><div class=""square""></div><div class=""circle""></div></div>","q","","shape_practice","mismatch","方","q","true","方"
"","null","html-keynbutton-response","47","2.0.0","37461","18","<span class='text-green-400 text-4xl md:text-5xl lg:text-6xl'>正确!</span>","null","trial_feedback","","","","","",""
"","null","html-keynbutton-response","48","2.0.0","37977","18","<div class=""pb-14 text-7xl"">+</div>","null","fixation","","","","","",""
"","538","html-keynbutton-response","49","2.0.0","38516","18","<div class=""flex flex-row stim-length pb-8 md:pd-20 justify-evenly items-center""><div class=""square""></div><div class=""circle""></div><div class=""square""></div></div>","p","","shape_practice","mismatch","圆","p","true","圆"
"","null","html-keynbutton-response","50","2.0.0","39027","18","<span class='text-green-400 text-4xl md:text-5xl lg:text-6xl'>正确!</span>","null","trial_feedback","","","","","",""
"","null","html-keynbutton-response","51","2.0.0","39543","18","<div class=""pb-14 text-7xl"">+</div>","null","fixation","","","","","",""
"","507","html-keynbutton-response","52","2.0.0","40052","18","<div class=""flex flex-row stim-length pb-8 md:pd-20 justify-evenly items-center""><div class=""circle""></div><div class=""circle""></div><div class=""circle""></div></div>","p","","shape_practice","match","圆","p","true","圆"
"","null","html-keynbutton-response","53","2.0.0","40559","18","<span class='text-green-400 text-4xl md:text-5xl lg:text-6xl'>正确!</span>","null","trial_feedback","","","","","",""
"","null","html-keynbutton-response","54","2.0.0","41061","18","<div class=""pb-14 text-7xl"">+</div>","null","fixation","","","","","",""
"","396","html-keynbutton-response","55","2.0.0","41459","18","<div class=""flex flex-row stim-length pb-8 md:pd-20 justify-evenly items-center""><div class=""square""></div><div class=""square""></div><div class=""square""></div></div>","q","","shape_practice","match","方","q","true","方"
"","null","html-keynbutton-response","56","2.0.0","41962","18","<span class='text-green-400 text-4xl md:text-5xl lg:text-6xl'>正确!</span>","null","trial_feedback","","","","","",""
"","null","html-keynbutton-response","57","2.0.0","42477","18","<div class=""pb-14 text-7xl"">+</div>","null","fixation","","","","","",""
"","742","html-keynbutton-response","58","2.0.0","43220","18","<div class=""flex flex-row stim-length pb-8 md:pd-20 justify-evenly items-center""><div class=""circle""></div><div class=""square""></div><div class=""circle""></div></div>","q","","shape_practice","mismatch","方","q","true","方"
"","null","html-keynbutton-response","59","2.0.0","43726","18","<span class='text-green-400 text-4xl md:text-5xl lg:text-6xl'>正确!</span>","null","trial_feedback","","","","","",""
"","null","html-keynbutton-response","60","2.0.0","44228","18","<div class=""pb-14 text-7xl"">+</div>","null","fixation","","","","","",""
"","542","html-keynbutton-response","61","2.0.0","44772","18","<div class=""flex flex-row stim-length pb-8 md:pd-20 justify-evenly items-center""><div class=""square""></div><div class=""circle""></div><div class=""square""></div></div>","p","","shape_practice","mismatch","圆","p","true","圆"
"","null","html-keynbutton-response","62","2.0.0","45278","18","<span class='text-green-400 text-4xl md:text-5xl lg:text-6xl'>正确!</span>","null","trial_feedback","","","","","",""
"","1491","html-keynbutton-response","64","2.0.0","46772","18","<div class=""jp"">
    <p>您的正确率是：100%</p>
    <p>您的平均反应时间是：529毫秒</p></div>"," ","block_feedback","","","","","",""
"","1454","html-keynbutton-response","65","2.0.0","48228","18","
        <div class=""jp px-2 xxs:px-5 mx-auto"">
        <p class=""text-center text-red-600 text-[1.2em] pb-5"">练习结束，现在开始正式实验</p>
        <p>请注意：正式实验中将不再会呈现反馈。</p>
        </div>
        "," ","","","","","","",""
"","null","html-keynbutton-response","66","2.0.0","51440","18","<count-down title=""""></count-down>","null","countDown_trial","","","","","",""
"","null","html-keynbutton-response","67","2.0.0","51946","18","<div class=""pb-14 text-7xl"">+</div>","null","fixation","","","","","",""
"","617","html-keynbutton-response","68","2.0.0","52564","18","<div class=""flex flex-row stim-length pb-8 md:pd-20 justify-evenly items-center""><div class=""square""></div><div class=""circle""></div><div class=""square""></div></div>","p","","shape_test","mismatch","圆","p","true","圆"
"","null","html-keynbutton-response","69","2.0.0","53077","18","<div class=""pb-14 text-7xl"">+</div>","null","fixation","","","","","",""
"","606","html-keynbutton-response","70","2.0.0","53684","18","<div class=""flex flex-row stim-length pb-8 md:pd-20 justify-evenly items-center""><div class=""circle""></div><div class=""circle""></div><div class=""circle""></div></div>","p","","shape_test","match","圆","p","true","圆"
"","null","html-keynbutton-response","71","2.0.0","54192","18","<div class=""pb-14 text-7xl"">+</div>","null","fixation","","","","","",""
"","514","html-keynbutton-response","72","2.0.0","54708","18","<div class=""flex flex-row stim-length pb-8 md:pd-20 justify-evenly items-center""><div class=""square""></div><div class=""square""></div><div class=""square""></div></div>","q","","shape_test","match","方","q","true","方"
"","null","html-keynbutton-response","73","2.0.0","55212","18","<div class=""pb-14 text-7xl"">+</div>","null","fixation","","","","","",""
"","407","html-keynbutton-response","74","2.0.0","55619","18","<div class=""flex flex-row stim-length pb-8 md:pd-20 justify-evenly items-center""><div class=""circle""></div><div class=""square""></div><div class=""circle""></div></div>","q","","shape_test","mismatch","方","q","true","方"
"","null","html-keynbutton-response","75","2.0.0","56126","18","<div class=""pb-14 text-7xl"">+</div>","null","fixation","","","","","",""
"","484","html-keynbutton-response","76","2.0.0","56612","18","<div class=""flex flex-row stim-length pb-8 md:pd-20 justify-evenly items-center""><div class=""square""></div><div class=""circle""></div><div class=""square""></div></div>","p","","shape_test","mismatch","圆","p","true","圆"
"","null","html-keynbutton-response","77","2.0.0","57127","18","<div class=""pb-14 text-7xl"">+</div>","null","fixation","","","","","",""
"","556","html-keynbutton-response","78","2.0.0","57684","18","<div class=""flex flex-row stim-length pb-8 md:pd-20 justify-evenly items-center""><div class=""square""></div><div class=""square""></div><div class=""square""></div></div>","q","","shape_test","match","方","q","true","方"
"","null","html-keynbutton-response","79","2.0.0","58192","18","<div class=""pb-14 text-7xl"">+</div>","null","fixation","","","","","",""
"","482","html-keynbutton-response","80","2.0.0","58676","18","<div class=""flex flex-row stim-length pb-8 md:pd-20 justify-evenly items-center""><div class=""circle""></div><div class=""circle""></div><div class=""circle""></div></div>","p","","shape_test","match","圆","p","true","圆"
"","null","html-keynbutton-response","81","2.0.0","59178","18","<div class=""pb-14 text-7xl"">+</div>","null","fixation","","","","","",""
"","472","html-keynbutton-response","82","2.0.0","59652","18","<div class=""flex flex-row stim-length pb-8 md:pd-20 justify-evenly items-center""><div class=""circle""></div><div class=""square""></div><div class=""circle""></div></div>","q","","shape_test","mismatch","方","q","true","方"
"","null","html-keynbutton-response","83","2.0.0","60159","18","<div class=""pb-14 text-7xl"">+</div>","null","fixation","","","","","",""
"","468","html-keynbutton-response","84","2.0.0","60628","18","<div class=""flex flex-row stim-length pb-8 md:pd-20 justify-evenly items-center""><div class=""circle""></div><div class=""square""></div><div class=""circle""></div></div>","q","","shape_test","mismatch","方","q","true","方"
"","null","html-keynbutton-response","85","2.0.0","61144","18","<div class=""pb-14 text-7xl"">+</div>","null","fixation","","","","","",""
"","475","html-keynbutton-response","86","2.0.0","61619","18","<div class=""flex flex-row stim-length pb-8 md:pd-20 justify-evenly items-center""><div class=""square""></div><div class=""circle""></div><div class=""square""></div></div>","p","","shape_test","mismatch","圆","p","true","圆"
"","null","html-keynbutton-response","87","2.0.0","62127","18","<div class=""pb-14 text-7xl"">+</div>","null","fixation","","","","","",""
"","549","html-keynbutton-response","88","2.0.0","62676","18","<div class=""flex flex-row stim-length pb-8 md:pd-20 justify-evenly items-center""><div class=""square""></div><div class=""square""></div><div class=""square""></div></div>","q","","shape_test","match","方","q","true","方"
"","null","html-keynbutton-response","89","2.0.0","63179","18","<div class=""pb-14 text-7xl"">+</div>","null","fixation","","","","","",""
"","472","html-keynbutton-response","90","2.0.0","63652","18","<div class=""flex flex-row stim-length pb-8 md:pd-20 justify-evenly items-center""><div class=""circle""></div><div class=""circle""></div><div class=""circle""></div></div>","p","","shape_test","match","圆","p","true","圆"
"","null","html-keynbutton-response","91","2.0.0","64160","18","<div class=""pb-14 text-7xl"">+</div>","null","fixation","","","","","",""
"","690","html-keynbutton-response","92","2.0.0","64852","18","<div class=""flex flex-row stim-length pb-8 md:pd-20 justify-evenly items-center""><div class=""circle""></div><div class=""circle""></div><div class=""circle""></div></div>","p","","shape_test","match","圆","p","true","圆"
"","null","html-keynbutton-response","93","2.0.0","65360","18","<div class=""pb-14 text-7xl"">+</div>","null","fixation","","","","","",""
"","483","html-keynbutton-response","94","2.0.0","65844","18","<div class=""flex flex-row stim-length pb-8 md:pd-20 justify-evenly items-center""><div class=""square""></div><div class=""circle""></div><div class=""square""></div></div>","p","","shape_test","mismatch","圆","p","true","圆"
"","null","html-keynbutton-response","95","2.0.0","66360","18","<div class=""pb-14 text-7xl"">+</div>","null","fixation","","","","","",""
"","443","html-keynbutton-response","96","2.0.0","66804","18","<div class=""flex flex-row stim-length pb-8 md:pd-20 justify-evenly items-center""><div class=""circle""></div><div class=""square""></div><div class=""circle""></div></div>","q","","shape_test","mismatch","方","q","true","方"
"","null","html-keynbutton-response","97","2.0.0","67311","18","<div class=""pb-14 text-7xl"">+</div>","null","fixation","","","","","",""
"","468","html-keynbutton-response","98","2.0.0","67780","18","<div class=""flex flex-row stim-length pb-8 md:pd-20 justify-evenly items-center""><div class=""square""></div><div class=""square""></div><div class=""square""></div></div>","q","","shape_test","match","方","q","true","方"
"","null","html-keynbutton-response","99","2.0.0","68294","18","<div class=""pb-14 text-7xl"">+</div>","null","fixation","","","","","",""
"","445","html-keynbutton-response","100","2.0.0","68740","18","<div class=""flex flex-row stim-length pb-8 md:pd-20 justify-evenly items-center""><div class=""square""></div><div class=""square""></div><div class=""square""></div></div>","q","","shape_test","match","方","q","true","方"
"","null","html-keynbutton-response","101","2.0.0","69245","18","<div class=""pb-14 text-7xl"">+</div>","null","fixation","","","","","",""
"","485","html-keynbutton-response","102","2.0.0","69730","18","<div class=""flex flex-row stim-length pb-8 md:pd-20 justify-evenly items-center""><div class=""circle""></div><div class=""circle""></div><div class=""circle""></div></div>","p","","shape_test","match","圆","p","true","圆"
"","null","html-keynbutton-response","103","2.0.0","70244","18","<div class=""pb-14 text-7xl"">+</div>","null","fixation","","","","","",""
"","1055","html-keynbutton-response","104","2.0.0","71293","18","<div class=""flex flex-row stim-length pb-8 md:pd-20 justify-evenly items-center""><div class=""circle""></div><div class=""square""></div><div class=""circle""></div></div>","q","","shape_test","mismatch","方","q","true","方"
"","null","html-keynbutton-response","105","2.0.0","71804","18","<div class=""pb-14 text-7xl"">+</div>","null","fixation","","","","","",""
"","496","html-keynbutton-response","106","2.0.0","72301","18","<div class=""flex flex-row stim-length pb-8 md:pd-20 justify-evenly items-center""><div class=""square""></div><div class=""circle""></div><div class=""square""></div></div>","p","","shape_test","mismatch","圆","p","true","圆"
"","null","html-keynbutton-response","107","2.0.0","72804","18","<div class=""pb-14 text-7xl"">+</div>","null","fixation","","","","","",""
"","615","html-keynbutton-response","108","2.0.0","73421","18","<div class=""flex flex-row stim-length pb-8 md:pd-20 justify-evenly items-center""><div class=""square""></div><div class=""square""></div><div class=""square""></div></div>","q","","shape_test","match","方","q","true","方"
"","null","html-keynbutton-response","109","2.0.0","73937","18","<div class=""pb-14 text-7xl"">+</div>","null","fixation","","","","","",""
"","491","html-keynbutton-response","110","2.0.0","74429","18","<div class=""flex flex-row stim-length pb-8 md:pd-20 justify-evenly items-center""><div class=""circle""></div><div class=""circle""></div><div class=""circle""></div></div>","p","","shape_test","match","圆","p","true","圆"
"","null","html-keynbutton-response","111","2.0.0","74936","18","<div class=""pb-14 text-7xl"">+</div>","null","fixation","","","","","",""
"","516","html-keynbutton-response","112","2.0.0","75453","18","<div class=""flex flex-row stim-length pb-8 md:pd-20 justify-evenly items-center""><div class=""square""></div><div class=""circle""></div><div class=""square""></div></div>","p","","shape_test","mismatch","圆","p","true","圆"
"","null","html-keynbutton-response","113","2.0.0","75954","18","<div class=""pb-14 text-7xl"">+</div>","null","fixation","","","","","",""
"","489","html-keynbutton-response","114","2.0.0","76445","18","<div class=""flex flex-row stim-length pb-8 md:pd-20 justify-evenly items-center""><div class=""circle""></div><div class=""square""></div><div class=""circle""></div></div>","q","","shape_test","mismatch","方","q","true","方"
"","null","html-keynbutton-response","115","2.0.0","76954","18","<div class=""pb-14 text-7xl"">+</div>","null","fixation","","","","","",""
"","450","html-keynbutton-response","116","2.0.0","77405","18","<div class=""flex flex-row stim-length pb-8 md:pd-20 justify-evenly items-center""><div class=""circle""></div><div class=""circle""></div><div class=""circle""></div></div>","p","","shape_test","match","圆","p","true","圆"
"","null","html-keynbutton-response","117","2.0.0","77920","18","<div class=""pb-14 text-7xl"">+</div>","null","fixation","","","","","",""
"","619","html-keynbutton-response","118","2.0.0","78541","18","<div class=""flex flex-row stim-length pb-8 md:pd-20 justify-evenly items-center""><div class=""circle""></div><div class=""square""></div><div class=""circle""></div></div>","q","","shape_test","mismatch","方","q","true","方"
"","null","html-keynbutton-response","119","2.0.0","79053","18","<div class=""pb-14 text-7xl"">+</div>","null","fixation","","","","","",""
"","606","html-keynbutton-response","120","2.0.0","79660","18","<div class=""flex flex-row stim-length pb-8 md:pd-20 justify-evenly items-center""><div class=""square""></div><div class=""square""></div><div class=""square""></div></div>","p","","shape_test","match","方","q","false","圆"
"","null","html-keynbutton-response","121","2.0.0","80170","18","<div class=""pb-14 text-7xl"">+</div>","null","fixation","","","","","",""
"","865","html-keynbutton-response","122","2.0.0","81037","18","<div class=""flex flex-row stim-length pb-8 md:pd-20 justify-evenly items-center""><div class=""square""></div><div class=""circle""></div><div class=""square""></div></div>","p","","shape_test","mismatch","圆","p","true","圆"
"","null","html-keynbutton-response","123","2.0.0","81538","18","<div class=""pb-14 text-7xl"">+</div>","null","fixation","","","","","",""
"","681","html-keynbutton-response","124","2.0.0","82221","18","<div class=""flex flex-row stim-length pb-8 md:pd-20 justify-evenly items-center""><div class=""circle""></div><div class=""circle""></div><div class=""circle""></div></div>","p","","shape_test","match","圆","p","true","圆"
"","null","html-keynbutton-response","125","2.0.0","82736","18","<div class=""pb-14 text-7xl"">+</div>","null","fixation","","","","","",""
"","555","html-keynbutton-response","126","2.0.0","83293","18","<div class=""flex flex-row stim-length pb-8 md:pd-20 justify-evenly items-center""><div class=""circle""></div><div class=""square""></div><div class=""circle""></div></div>","q","","shape_test","mismatch","方","q","true","方"
"","null","html-keynbutton-response","127","2.0.0","83802","18","<div class=""pb-14 text-7xl"">+</div>","null","fixation","","","","","",""
"","450","html-keynbutton-response","128","2.0.0","84253","18","<div class=""flex flex-row stim-length pb-8 md:pd-20 justify-evenly items-center""><div class=""square""></div><div class=""square""></div><div class=""square""></div></div>","q","","shape_test","match","方","q","true","方"
"","null","html-keynbutton-response","129","2.0.0","84754","18","<div class=""pb-14 text-7xl"">+</div>","null","fixation","","","","","",""
"","474","html-keynbutton-response","130","2.0.0","85228","18","<div class=""flex flex-row stim-length pb-8 md:pd-20 justify-evenly items-center""><div class=""square""></div><div class=""circle""></div><div class=""square""></div></div>","p","","shape_test","mismatch","圆","p","true","圆"
"","null","html-keynbutton-response","131","2.0.0","85737","18","<div class=""pb-14 text-7xl"">+</div>","null","fixation","","","","","",""
"","483","html-keynbutton-response","132","2.0.0","86221","18","<div class=""flex flex-row stim-length pb-8 md:pd-20 justify-evenly items-center""><div class=""circle""></div><div class=""circle""></div><div class=""circle""></div></div>","p","","shape_test","match","圆","p","true","圆"
"","null","html-keynbutton-response","133","2.0.0","86737","18","<div class=""pb-14 text-7xl"">+</div>","null","fixation","","","","","",""
"","555","html-keynbutton-response","134","2.0.0","87293","18","<div class=""flex flex-row stim-length pb-8 md:pd-20 justify-evenly items-center""><div class=""square""></div><div class=""square""></div><div class=""square""></div></div>","q","","shape_test","match","方","q","true","方"
"","null","html-keynbutton-response","135","2.0.0","87803","18","<div class=""pb-14 text-7xl"">+</div>","null","fixation","","","","","",""
"","545","html-keynbutton-response","136","2.0.0","88349","18","<div class=""flex flex-row stim-length pb-8 md:pd-20 justify-evenly items-center""><div class=""circle""></div><div class=""square""></div><div class=""circle""></div></div>","q","","shape_test","mismatch","方","q","true","方"
"","null","html-keynbutton-response","137","2.0.0","88855","18","<div class=""pb-14 text-7xl"">+</div>","null","fixation","","","","","",""
"","533","html-keynbutton-response","138","2.0.0","89388","18","<div class=""flex flex-row stim-length pb-8 md:pd-20 justify-evenly items-center""><div class=""square""></div><div class=""circle""></div><div class=""square""></div></div>","p","","shape_test","mismatch","圆","p","true","圆"
"","null","html-keynbutton-response","139","2.0.0","89904","18","<div class=""pb-14 text-7xl"">+</div>","null","fixation","","","","","",""
"","540","html-keynbutton-response","140","2.0.0","90445","18","<div class=""flex flex-row stim-length pb-8 md:pd-20 justify-evenly items-center""><div class=""circle""></div><div class=""square""></div><div class=""circle""></div></div>","q","","shape_test","mismatch","方","q","true","方"
"","null","html-keynbutton-response","141","2.0.0","90954","18","<div class=""pb-14 text-7xl"">+</div>","null","fixation","","","","","",""
"","675","html-keynbutton-response","142","2.0.0","91630","18","<div class=""flex flex-row stim-length pb-8 md:pd-20 justify-evenly items-center""><div class=""circle""></div><div class=""circle""></div><div class=""circle""></div></div>","p","","shape_test","match","圆","p","true","圆"
"","null","html-keynbutton-response","143","2.0.0","92137","18","<div class=""pb-14 text-7xl"">+</div>","null","fixation","","","","","",""
"","563","html-keynbutton-response","144","2.0.0","92701","18","<div class=""flex flex-row stim-length pb-8 md:pd-20 justify-evenly items-center""><div class=""square""></div><div class=""square""></div><div class=""square""></div></div>","q","","shape_test","match","方","q","true","方"
"","null","html-keynbutton-response","145","2.0.0","93205","18","<div class=""pb-14 text-7xl"">+</div>","null","fixation","","","","","",""
"","631","html-keynbutton-response","146","2.0.0","93837","18","<div class=""flex flex-row stim-length pb-8 md:pd-20 justify-evenly items-center""><div class=""square""></div><div class=""circle""></div><div class=""square""></div></div>","p","","shape_test","mismatch","圆","p","true","圆"
"","3933","html-keynbutton-response","147","2.0.0","97772","18","<div class=""jp""><p>您已完成1/10部分</p><p>请休息一会儿</p>
    <p>您的正确率是：98%</p>
    <p>您的平均反应时间是：550毫秒</p></div>"," ","block_feedback","","","","","",""
"","null","html-keynbutton-response","148","2.0.0","100985","18","<count-down title=""""></count-down>","null","countDown_trial","","","","","",""
"","null","html-keynbutton-response","149","2.0.0","101489","18","<div class=""pb-14 text-7xl"">+</div>","null","fixation","","","","","",""
"","940","html-keynbutton-response","150","2.0.0","102429","18","<div class=""flex flex-row stim-length pb-8 md:pd-20 justify-evenly items-center""><div class=""square""></div><div class=""square""></div><div class=""square""></div></div>","q","","shape_test_1","match","方","q","true","方"
"","null","html-keynbutton-response","151","2.0.0","102937","18","<div class=""pb-14 text-7xl"">+</div>","null","fixation","","","","","",""
"","562","html-keynbutton-response","152","2.0.0","103500","18","<div class=""flex flex-row stim-length pb-8 md:pd-20 justify-evenly items-center""><div class=""circle""></div><div class=""circle""></div><div class=""circle""></div></div>","p","","shape_test_1","match","圆","p","true","圆"
"","null","html-keynbutton-response","153","2.0.0","104006","18","<div class=""pb-14 text-7xl"">+</div>","null","fixation","","","","","",""
"","534","html-keynbutton-response","154","2.0.0","104541","18","<div class=""flex flex-row stim-length pb-8 md:pd-20 justify-evenly items-center""><div class=""square""></div><div class=""circle""></div><div class=""square""></div></div>","p","","shape_test_1","mismatch","圆","p","true","圆"
"","null","html-keynbutton-response","155","2.0.0","105053","18","<div class=""pb-14 text-7xl"">+</div>","null","fixation","","","","","",""
"","478","html-keynbutton-response","156","2.0.0","105533","18","<div class=""flex flex-row stim-length pb-8 md:pd-20 justify-evenly items-center""><div class=""circle""></div><div class=""square""></div><div class=""circle""></div></div>","q","","shape_test_1","mismatch","方","q","true","方"
"","null","html-keynbutton-response","157","2.0.0","106039","18","<div class=""pb-14 text-7xl"">+</div>","null","fixation","","","","","",""
"","517","html-keynbutton-response","158","2.0.0","106557","18","<div class=""flex flex-row stim-length pb-8 md:pd-20 justify-evenly items-center""><div class=""square""></div><div class=""square""></div><div class=""square""></div></div>","q","","shape_test_1","match","方","q","true","方"
"","null","html-keynbutton-response","159","2.0.0","107070","18","<div class=""pb-14 text-7xl"">+</div>","null","fixation","","","","","",""
"","478","html-keynbutton-response","160","2.0.0","107549","18","<div class=""flex flex-row stim-length pb-8 md:pd-20 justify-evenly items-center""><div class=""circle""></div><div class=""circle""></div><div class=""circle""></div></div>","p","","shape_test_1","match","圆","p","true","圆"
"","null","html-keynbutton-response","161","2.0.0","108054","18","<div class=""pb-14 text-7xl"">+</div>","null","fixation","","","","","",""
"","454","html-keynbutton-response","162","2.0.0","108509","18","<div class=""flex flex-row stim-length pb-8 md:pd-20 justify-evenly items-center""><div class=""square""></div><div class=""circle""></div><div class=""square""></div></div>","p","","shape_test_1","mismatch","圆","p","true","圆"
"","null","html-keynbutton-response","163","2.0.0","109020","18","<div class=""pb-14 text-7xl"">+</div>","null","fixation","","","","","",""
"","544","html-keynbutton-response","164","2.0.0","109565","18","<div class=""flex flex-row stim-length pb-8 md:pd-20 justify-evenly items-center""><div class=""circle""></div><div class=""square""></div><div class=""circle""></div></div>","q","","shape_test_1","mismatch","方","q","true","方"
"","null","html-keynbutton-response","165","2.0.0","110071","18","<div class=""pb-14 text-7xl"">+</div>","null","fixation","","","","","",""
"","421","html-keynbutton-response","166","2.0.0","110493","18","<div class=""flex flex-row stim-length pb-8 md:pd-20 justify-evenly items-center""><div class=""circle""></div><div class=""square""></div><div class=""circle""></div></div>","q","","shape_test_1","mismatch","方","q","true","方"
"","null","html-keynbutton-response","167","2.0.0","111003","18","<div class=""pb-14 text-7xl"">+</div>","null","fixation","","","","","",""
"","512","html-keynbutton-response","168","2.0.0","111516","18","<div class=""flex flex-row stim-length pb-8 md:pd-20 justify-evenly items-center""><div class=""square""></div><div class=""square""></div><div class=""square""></div></div>","q","","shape_test_1","match","方","q","true","方"
"","null","html-keynbutton-response","169","2.0.0","112023","18","<div class=""pb-14 text-7xl"">+</div>","null","fixation","","","","","",""
"","581","html-keynbutton-response","170","2.0.0","112605","18","<div class=""flex flex-row stim-length pb-8 md:pd-20 justify-evenly items-center""><div class=""square""></div><div class=""circle""></div><div class=""square""></div></div>","p","","shape_test_1","mismatch","圆","p","true","圆"
"","null","html-keynbutton-response","171","2.0.0","113120","18","<div class=""pb-14 text-7xl"">+</div>","null","fixation","","","","","",""
"","827","html-keynbutton-response","172","2.0.0","113948","18","<div class=""flex flex-row stim-length pb-8 md:pd-20 justify-evenly items-center""><div class=""circle""></div><div class=""circle""></div><div class=""circle""></div></div>","p","","shape_test_1","match","圆","p","true","圆"
"","null","html-keynbutton-response","173","2.0.0","114454","18","<div class=""pb-14 text-7xl"">+</div>","null","fixation","","","","","",""
"","981","html-keynbutton-response","174","2.0.0","115436","18","<div class=""flex flex-row stim-length pb-8 md:pd-20 justify-evenly items-center""><div class=""circle""></div><div class=""square""></div><div class=""circle""></div></div>","q","","shape_test_1","mismatch","方","q","true","方"
"","null","html-keynbutton-response","175","2.0.0","115939","18","<div class=""pb-14 text-7xl"">+</div>","null","fixation","","","","","",""
"","697","html-keynbutton-response","176","2.0.0","116637","18","<div class=""flex flex-row stim-length pb-8 md:pd-20 justify-evenly items-center""><div class=""square""></div><div class=""square""></div><div class=""square""></div></div>","q","","shape_test_1","match","方","q","true","方"
"","null","html-keynbutton-response","177","2.0.0","117138","18","<div class=""pb-14 text-7xl"">+</div>","null","fixation","","","","","",""
"","537","html-keynbutton-response","178","2.0.0","117677","18","<div class=""flex flex-row stim-length pb-8 md:pd-20 justify-evenly items-center""><div class=""circle""></div><div class=""circle""></div><div class=""circle""></div></div>","p","","shape_test_1","match","圆","p","true","圆"
"","null","html-keynbutton-response","179","2.0.0","118186","18","<div class=""pb-14 text-7xl"">+</div>","null","fixation","","","","","",""
"","546","html-keynbutton-response","180","2.0.0","118733","18","<div class=""flex flex-row stim-length pb-8 md:pd-20 justify-evenly items-center""><div class=""square""></div><div class=""circle""></div><div class=""square""></div></div>","p","","shape_test_1","mismatch","圆","p","true","圆"
"","null","html-keynbutton-response","181","2.0.0","119238","18","<div class=""pb-14 text-7xl"">+</div>","null","fixation","","","","","",""
"","692","html-keynbutton-response","182","2.0.0","119932","18","<div class=""flex flex-row stim-length pb-8 md:pd-20 justify-evenly items-center""><div class=""circle""></div><div class=""square""></div><div class=""circle""></div></div>","q","","shape_test_1","mismatch","方","q","true","方"
"","null","html-keynbutton-response","183","2.0.0","120436","18","<div class=""pb-14 text-7xl"">+</div>","null","fixation","","","","","",""
"","567","html-keynbutton-response","184","2.0.0","121004","18","<div class=""flex flex-row stim-length pb-8 md:pd-20 justify-evenly items-center""><div class=""square""></div><div class=""circle""></div><div class=""square""></div></div>","p","","shape_test_1","mismatch","圆","p","true","圆"
"","null","html-keynbutton-response","185","2.0.0","121520","18","<div class=""pb-14 text-7xl"">+</div>","null","fixation","","","","","",""
"","587","html-keynbutton-response","186","2.0.0","122109","18","<div class=""flex flex-row stim-length pb-8 md:pd-20 justify-evenly items-center""><div class=""square""></div><div class=""square""></div><div class=""square""></div></div>","q","","shape_test_1","match","方","q","true","方"
"","null","html-keynbutton-response","187","2.0.0","122620","18","<div class=""pb-14 text-7xl"">+</div>","null","fixation","","","","","",""
"","592","html-keynbutton-response","188","2.0.0","123213","18","<div class=""flex flex-row stim-length pb-8 md:pd-20 justify-evenly items-center""><div class=""circle""></div><div class=""circle""></div><div class=""circle""></div></div>","p","","shape_test_1","match","圆","p","true","圆"
"","null","html-keynbutton-response","189","2.0.0","123720","18","<div class=""pb-14 text-7xl"">+</div>","null","fixation","","","","","",""
"","581","html-keynbutton-response","190","2.0.0","124302","18","<div class=""flex flex-row stim-length pb-8 md:pd-20 justify-evenly items-center""><div class=""square""></div><div class=""square""></div><div class=""square""></div></div>","q","","shape_test_1","match","方","q","true","方"
"","null","html-keynbutton-response","191","2.0.0","124805","18","<div class=""pb-14 text-7xl"">+</div>","null","fixation","","","","","",""
"","727","html-keynbutton-response","192","2.0.0","125533","18","<div class=""flex flex-row stim-length pb-8 md:pd-20 justify-evenly items-center""><div class=""square""></div><div class=""circle""></div><div class=""square""></div></div>","p","","shape_test_1","mismatch","圆","p","true","圆"
"","null","html-keynbutton-response","193","2.0.0","126039","18","<div class=""pb-14 text-7xl"">+</div>","null","fixation","","","","","",""
"","421","html-keynbutton-response","194","2.0.0","126461","18","<div class=""flex flex-row stim-length pb-8 md:pd-20 justify-evenly items-center""><div class=""circle""></div><div class=""square""></div><div class=""circle""></div></div>","q","","shape_test_1","mismatch","方","q","true","方"
"","null","html-keynbutton-response","195","2.0.0","126970","18","<div class=""pb-14 text-7xl"">+</div>","null","fixation","","","","","",""
"","515","html-keynbutton-response","196","2.0.0","127485","18","<div class=""flex flex-row stim-length pb-8 md:pd-20 justify-evenly items-center""><div class=""circle""></div><div class=""circle""></div><div class=""circle""></div></div>","p","","shape_test_1","match","圆","p","true","圆"
"","null","html-keynbutton-response","197","2.0.0","127988","18","<div class=""pb-14 text-7xl"">+</div>","null","fixation","","","","","",""
"","584","html-keynbutton-response","198","2.0.0","128573","18","<div class=""flex flex-row stim-length pb-8 md:pd-20 justify-evenly items-center""><div class=""circle""></div><div class=""circle""></div><div class=""circle""></div></div>","p","","shape_test_1","match","圆","p","true","圆"
"","null","html-keynbutton-response","199","2.0.0","129087","18","<div class=""pb-14 text-7xl"">+</div>","null","fixation","","","","","",""
"","621","html-keynbutton-response","200","2.0.0","129708","18","<div class=""flex flex-row stim-length pb-8 md:pd-20 justify-evenly items-center""><div class=""square""></div><div class=""square""></div><div class=""square""></div></div>","q","","shape_test_1","match","方","q","true","方"
"","null","html-keynbutton-response","201","2.0.0","130220","18","<div class=""pb-14 text-7xl"">+</div>","null","fixation","","","","","",""
"","543","html-keynbutton-response","202","2.0.0","130765","18","<div class=""flex flex-row stim-length pb-8 md:pd-20 justify-evenly items-center""><div class=""circle""></div><div class=""square""></div><div class=""circle""></div></div>","q","","shape_test_1","mismatch","方","q","true","方"
"","null","html-keynbutton-response","203","2.0.0","131271","18","<div class=""pb-14 text-7xl"">+</div>","null","fixation","","","","","",""
"","485","html-keynbutton-response","204","2.0.0","131764","18","<div class=""flex flex-row stim-length pb-8 md:pd-20 justify-evenly items-center""><div class=""square""></div><div class=""circle""></div><div class=""square""></div></div>","p","","shape_test_1","mismatch","圆","p","true","圆"
"","null","html-keynbutton-response","205","2.0.0","132278","18","<div class=""pb-14 text-7xl"">+</div>","null","fixation","","","","","",""
"","589","html-keynbutton-response","206","2.0.0","132868","18","<div class=""flex flex-row stim-length pb-8 md:pd-20 justify-evenly items-center""><div class=""circle""></div><div class=""square""></div><div class=""circle""></div></div>","q","","shape_test_1","mismatch","方","q","true","方"
"","null","html-keynbutton-response","207","2.0.0","133376","18","<div class=""pb-14 text-7xl"">+</div>","null","fixation","","","","","",""
"","531","html-keynbutton-response","208","2.0.0","133908","18","<div class=""flex flex-row stim-length pb-8 md:pd-20 justify-evenly items-center""><div class=""square""></div><div class=""square""></div><div class=""square""></div></div>","q","","shape_test_1","match","方","q","true","方"
"","null","html-keynbutton-response","209","2.0.0","134411","18","<div class=""pb-14 text-7xl"">+</div>","null","fixation","","","","","",""
"","536","html-keynbutton-response","210","2.0.0","134948","18","<div class=""flex flex-row stim-length pb-8 md:pd-20 justify-evenly items-center""><div class=""circle""></div><div class=""circle""></div><div class=""circle""></div></div>","p","","shape_test_1","match","圆","p","true","圆"
"","null","html-keynbutton-response","211","2.0.0","135461","18","<div class=""pb-14 text-7xl"">+</div>","null","fixation","","","","","",""
"","478","html-keynbutton-response","212","2.0.0","135940","18","<div class=""flex flex-row stim-length pb-8 md:pd-20 justify-evenly items-center""><div class=""square""></div><div class=""circle""></div><div class=""square""></div></div>","p","","shape_test_1","mismatch","圆","p","true","圆"
"","null","html-keynbutton-response","213","2.0.0","136446","18","<div class=""pb-14 text-7xl"">+</div>","null","fixation","","","","","",""
"","789","html-keynbutton-response","214","2.0.0","137236","18","<div class=""flex flex-row stim-length pb-8 md:pd-20 justify-evenly items-center""><div class=""square""></div><div class=""circle""></div><div class=""square""></div></div>","p","","shape_test_1","mismatch","圆","p","true","圆"
"","null","html-keynbutton-response","215","2.0.0","137743","18","<div class=""pb-14 text-7xl"">+</div>","null","fixation","","","","","",""
"","515","html-keynbutton-response","216","2.0.0","138260","18","<div class=""flex flex-row stim-length pb-8 md:pd-20 justify-evenly items-center""><div class=""circle""></div><div class=""circle""></div><div class=""circle""></div></div>","p","","shape_test_1","match","圆","p","true","圆"
"","null","html-keynbutton-response","217","2.0.0","138762","18","<div class=""pb-14 text-7xl"">+</div>","null","fixation","","","","","",""
"","793","html-keynbutton-response","218","2.0.0","139556","18","<div class=""flex flex-row stim-length pb-8 md:pd-20 justify-evenly items-center""><div class=""square""></div><div class=""square""></div><div class=""square""></div></div>","q","","shape_test_1","match","方","q","true","方"
"","null","html-keynbutton-response","219","2.0.0","140062","18","<div class=""pb-14 text-7xl"">+</div>","null","fixation","","","","","",""
"","549","html-keynbutton-response","220","2.0.0","140612","18","<div class=""flex flex-row stim-length pb-8 md:pd-20 justify-evenly items-center""><div class=""circle""></div><div class=""square""></div><div class=""circle""></div></div>","p","","shape_test_1","mismatch","方","q","false","圆"
"","null","html-keynbutton-response","221","2.0.0","141127","18","<div class=""pb-14 text-7xl"">+</div>","null","fixation","","","","","",""
"","748","html-keynbutton-response","222","2.0.0","141876","18","<div class=""flex flex-row stim-length pb-8 md:pd-20 justify-evenly items-center""><div class=""circle""></div><div class=""square""></div><div class=""circle""></div></div>","q","","shape_test_1","mismatch","方","q","true","方"
"","null","html-keynbutton-response","223","2.0.0","142379","18","<div class=""pb-14 text-7xl"">+</div>","null","fixation","","","","","",""
"","552","html-keynbutton-response","224","2.0.0","142932","18","<div class=""flex flex-row stim-length pb-8 md:pd-20 justify-evenly items-center""><div class=""square""></div><div class=""square""></div><div class=""square""></div></div>","q","","shape_test_1","match","方","q","true","方"
"","null","html-keynbutton-response","225","2.0.0","143444","18","<div class=""pb-14 text-7xl"">+</div>","null","fixation","","","","","",""
"","495","html-keynbutton-response","226","2.0.0","143940","18","<div class=""flex flex-row stim-length pb-8 md:pd-20 justify-evenly items-center""><div class=""square""></div><div class=""circle""></div><div class=""square""></div></div>","p","","shape_test_1","mismatch","圆","p","true","圆"
"","null","html-keynbutton-response","227","2.0.0","144446","18","<div class=""pb-14 text-7xl"">+</div>","null","fixation","","","","","",""
"","532","html-keynbutton-response","228","2.0.0","144979","18","<div class=""flex flex-row stim-length pb-8 md:pd-20 justify-evenly items-center""><div class=""circle""></div><div class=""circle""></div><div class=""circle""></div></div>","p","","shape_test_1","match","圆","p","true","圆"
"","1616","html-keynbutton-response","229","2.0.0","146595","18","<div class=""jp""><p>您已完成2/10部分</p><p>请休息一会儿</p>
    <p>您的正确率是：98%</p>
    <p>您的平均反应时间是：591毫秒</p></div>"," ","block_feedback","","","","","",""
"","null","html-keynbutton-response","230","2.0.0","149808","18","<count-down title=""""></count-down>","null","countDown_trial","","","","","",""
"","null","html-keynbutton-response","231","2.0.0","150312","18","<div class=""pb-14 text-7xl"">+</div>","null","fixation","","","","","",""
"","843","html-keynbutton-response","232","2.0.0","151155","18","<div class=""flex flex-row stim-length pb-8 md:pd-20 justify-evenly items-center""><div class=""square""></div><div class=""square""></div><div class=""square""></div></div>","q","","shape_test_2","match","方","q","true","方"
"","null","html-keynbutton-response","233","2.0.0","151661","18","<div class=""pb-14 text-7xl"">+</div>","null","fixation","","","","","",""
"","501","html-keynbutton-response","234","2.0.0","152163","18","<div class=""flex flex-row stim-length pb-8 md:pd-20 justify-evenly items-center""><div class=""square""></div><div class=""circle""></div><div class=""square""></div></div>","p","","shape_test_2","mismatch","圆","p","true","圆"
"","null","html-keynbutton-response","235","2.0.0","152678","18","<div class=""pb-14 text-7xl"">+</div>","null","fixation","","","","","",""
"","460","html-keynbutton-response","236","2.0.0","153139","18","<div class=""flex flex-row stim-length pb-8 md:pd-20 justify-evenly items-center""><div class=""circle""></div><div class=""square""></div><div class=""circle""></div></div>","q","","shape_test_2","mismatch","方","q","true","方"
"","null","html-keynbutton-response","237","2.0.0","153644","18","<div class=""pb-14 text-7xl"">+</div>","null","fixation","","","","","",""
"","502","html-keynbutton-response","238","2.0.0","154147","18","<div class=""flex flex-row stim-length pb-8 md:pd-20 justify-evenly items-center""><div class=""circle""></div><div class=""circle""></div><div class=""circle""></div></div>","p","","shape_test_2","match","圆","p","true","圆"
"","null","html-keynbutton-response","239","2.0.0","154661","18","<div class=""pb-14 text-7xl"">+</div>","null","fixation","","","","","",""
"","493","html-keynbutton-response","240","2.0.0","155155","18","<div class=""flex flex-row stim-length pb-8 md:pd-20 justify-evenly items-center""><div class=""square""></div><div class=""square""></div><div class=""square""></div></div>","q","","shape_test_2","match","方","q","true","方"
"","null","html-keynbutton-response","241","2.0.0","155661","18","<div class=""pb-14 text-7xl"">+</div>","null","fixation","","","","","",""
"","486","html-keynbutton-response","242","2.0.0","156148","18","<div class=""flex flex-row stim-length pb-8 md:pd-20 justify-evenly items-center""><div class=""circle""></div><div class=""circle""></div><div class=""circle""></div></div>","p","","shape_test_2","match","圆","p","true","圆"
"","null","html-keynbutton-response","243","2.0.0","156661","18","<div class=""pb-14 text-7xl"">+</div>","null","fixation","","","","","",""
"","622","html-keynbutton-response","244","2.0.0","157284","18","<div class=""flex flex-row stim-length pb-8 md:pd-20 justify-evenly items-center""><div class=""square""></div><div class=""circle""></div><div class=""square""></div></div>","p","","shape_test_2","mismatch","圆","p","true","圆"
"","null","html-keynbutton-response","245","2.0.0","157793","18","<div class=""pb-14 text-7xl"">+</div>","null","fixation","","","","","",""
"","483","html-keynbutton-response","246","2.0.0","158276","18","<div class=""flex flex-row stim-length pb-8 md:pd-20 justify-evenly items-center""><div class=""circle""></div><div class=""square""></div><div class=""circle""></div></div>","q","","shape_test_2","mismatch","方","q","true","方"
"","null","html-keynbutton-response","247","2.0.0","158779","18","<div class=""pb-14 text-7xl"">+</div>","null","fixation","","","","","",""
"","793","html-keynbutton-response","248","2.0.0","159572","18","<div class=""flex flex-row stim-length pb-8 md:pd-20 justify-evenly items-center""><div class=""square""></div><div class=""circle""></div><div class=""square""></div></div>","p","","shape_test_2","mismatch","圆","p","true","圆"
"","null","html-keynbutton-response","249","2.0.0","160078","18","<div class=""pb-14 text-7xl"">+</div>","null","fixation","","","","","",""
"","453","html-keynbutton-response","250","2.0.0","160532","18","<div class=""flex flex-row stim-length pb-8 md:pd-20 justify-evenly items-center""><div class=""circle""></div><div class=""circle""></div><div class=""circle""></div></div>","p","","shape_test_2","match","圆","p","true","圆"
"","null","html-keynbutton-response","251","2.0.0","161044","18","<div class=""pb-14 text-7xl"">+</div>","null","fixation","","","","","",""
"","446","html-keynbutton-response","252","2.0.0","161491","18","<div class=""flex flex-row stim-length pb-8 md:pd-20 justify-evenly items-center""><div class=""square""></div><div class=""square""></div><div class=""square""></div></div>","q","","shape_test_2","match","方","q","true","方"
"","null","html-keynbutton-response","253","2.0.0","161995","18","<div class=""pb-14 text-7xl"">+</div>","null","fixation","","","","","",""
"","568","html-keynbutton-response","254","2.0.0","162564","18","<div class=""flex flex-row stim-length pb-8 md:pd-20 justify-evenly items-center""><div class=""circle""></div><div class=""square""></div><div class=""circle""></div></div>","q","","shape_test_2","mismatch","方","q","true","方"
"","null","html-keynbutton-response","255","2.0.0","163078","18","<div class=""pb-14 text-7xl"">+</div>","null","fixation","","","","","",""
"","428","html-keynbutton-response","256","2.0.0","163507","18","<div class=""flex flex-row stim-length pb-8 md:pd-20 justify-evenly items-center""><div class=""square""></div><div class=""circle""></div><div class=""square""></div></div>","p","","shape_test_2","mismatch","圆","p","true","圆"
"","null","html-keynbutton-response","257","2.0.0","164013","18","<div class=""pb-14 text-7xl"">+</div>","null","fixation","","","","","",""
"","502","html-keynbutton-response","258","2.0.0","164516","18","<div class=""flex flex-row stim-length pb-8 md:pd-20 justify-evenly items-center""><div class=""square""></div><div class=""square""></div><div class=""square""></div></div>","q","","shape_test_2","match","方","q","true","方"
"","null","html-keynbutton-response","259","2.0.0","165027","18","<div class=""pb-14 text-7xl"">+</div>","null","fixation","","","","","",""
"","464","html-keynbutton-response","260","2.0.0","165492","18","<div class=""flex flex-row stim-length pb-8 md:pd-20 justify-evenly items-center""><div class=""circle""></div><div class=""circle""></div><div class=""circle""></div></div>","p","","shape_test_2","match","圆","p","true","圆"
"","null","html-keynbutton-response","261","2.0.0","165995","18","<div class=""pb-14 text-7xl"">+</div>","null","fixation","","","","","",""
"","488","html-keynbutton-response","262","2.0.0","166484","18","<div class=""flex flex-row stim-length pb-8 md:pd-20 justify-evenly items-center""><div class=""circle""></div><div class=""square""></div><div class=""circle""></div></div>","q","","shape_test_2","mismatch","方","q","true","方"
"","null","html-keynbutton-response","263","2.0.0","166994","18","<div class=""pb-14 text-7xl"">+</div>","null","fixation","","","","","",""
"","657","html-keynbutton-response","264","2.0.0","167652","18","<div class=""flex flex-row stim-length pb-8 md:pd-20 justify-evenly items-center""><div class=""square""></div><div class=""square""></div><div class=""square""></div></div>","q","","shape_test_2","match","方","q","true","方"
"","null","html-keynbutton-response","265","2.0.0","168161","18","<div class=""pb-14 text-7xl"">+</div>","null","fixation","","","","","",""
"","610","html-keynbutton-response","266","2.0.0","168772","18","<div class=""flex flex-row stim-length pb-8 md:pd-20 justify-evenly items-center""><div class=""square""></div><div class=""circle""></div><div class=""square""></div></div>","p","","shape_test_2","mismatch","圆","p","true","圆"
"","null","html-keynbutton-response","267","2.0.0","169278","18","<div class=""pb-14 text-7xl"">+</div>","null","fixation","","","","","",""
"","502","html-keynbutton-response","268","2.0.0","169781","18","<div class=""flex flex-row stim-length pb-8 md:pd-20 justify-evenly items-center""><div class=""circle""></div><div class=""square""></div><div class=""circle""></div></div>","q","","shape_test_2","mismatch","方","q","true","方"
"","null","html-keynbutton-response","269","2.0.0","170294","18","<div class=""pb-14 text-7xl"">+</div>","null","fixation","","","","","",""
"","477","html-keynbutton-response","270","2.0.0","170772","18","<div class=""flex flex-row stim-length pb-8 md:pd-20 justify-evenly items-center""><div class=""circle""></div><div class=""circle""></div><div class=""circle""></div></div>","p","","shape_test_2","match","圆","p","true","圆"
"","null","html-keynbutton-response","271","2.0.0","171278","18","<div class=""pb-14 text-7xl"">+</div>","null","fixation","","","","","",""
"","501","html-keynbutton-response","272","2.0.0","171780","18","<div class=""flex flex-row stim-length pb-8 md:pd-20 justify-evenly items-center""><div class=""circle""></div><div class=""circle""></div><div class=""circle""></div></div>","p","","shape_test_2","match","圆","p","true","圆"
"","null","html-keynbutton-response","273","2.0.0","172294","18","<div class=""pb-14 text-7xl"">+</div>","null","fixation","","","","","",""
"","525","html-keynbutton-response","274","2.0.0","172820","18","<div class=""flex flex-row stim-length pb-8 md:pd-20 justify-evenly items-center""><div class=""square""></div><div class=""square""></div><div class=""square""></div></div>","q","","shape_test_2","match","方","q","true","方"
"","null","html-keynbutton-response","275","2.0.0","173328","18","<div class=""pb-14 text-7xl"">+</div>","null","fixation","","","","","",""
"","596","html-keynbutton-response","276","2.0.0","173925","18","<div class=""flex flex-row stim-length pb-8 md:pd-20 justify-evenly items-center""><div class=""square""></div><div class=""circle""></div><div class=""square""></div></div>","p","","shape_test_2","mismatch","圆","p","true","圆"
"","null","html-keynbutton-response","277","2.0.0","174428","18","<div class=""pb-14 text-7xl"">+</div>","null","fixation","","","","","",""
"","487","html-keynbutton-response","278","2.0.0","174916","18","<div class=""flex flex-row stim-length pb-8 md:pd-20 justify-evenly items-center""><div class=""circle""></div><div class=""square""></div><div class=""circle""></div></div>","q","","shape_test_2","mismatch","方","q","true","方"
"","null","html-keynbutton-response","279","2.0.0","175428","18","<div class=""pb-14 text-7xl"">+</div>","null","fixation","","","","","",""
"","688","html-keynbutton-response","280","2.0.0","176116","18","<div class=""flex flex-row stim-length pb-8 md:pd-20 justify-evenly items-center""><div class=""square""></div><div class=""circle""></div><div class=""square""></div></div>","p","","shape_test_2","mismatch","圆","p","true","圆"
"","null","html-keynbutton-response","281","2.0.0","176627","18","<div class=""pb-14 text-7xl"">+</div>","null","fixation","","","","","",""
"","464","html-keynbutton-response","282","2.0.0","177092","18","<div class=""flex flex-row stim-length pb-8 md:pd-20 justify-evenly items-center""><div class=""square""></div><div class=""square""></div><div class=""square""></div></div>","q","","shape_test_2","match","方","q","true","方"
"","null","html-keynbutton-response","283","2.0.0","177595","18","<div class=""pb-14 text-7xl"">+</div>","null","fixation","","","","","",""
"","503","html-keynbutton-response","284","2.0.0","178099","18","<div class=""flex flex-row stim-length pb-8 md:pd-20 justify-evenly items-center""><div class=""circle""></div><div class=""circle""></div><div class=""circle""></div></div>","p","","shape_test_2","match","圆","p","true","圆"
"","null","html-keynbutton-response","285","2.0.0","178611","18","<div class=""pb-14 text-7xl"">+</div>","null","fixation","","","","","",""
"","465","html-keynbutton-response","286","2.0.0","179076","18","<div class=""flex flex-row stim-length pb-8 md:pd-20 justify-evenly items-center""><div class=""circle""></div><div class=""square""></div><div class=""circle""></div></div>","q","","shape_test_2","mismatch","方","q","true","方"
"","null","html-keynbutton-response","287","2.0.0","179579","18","<div class=""pb-14 text-7xl"">+</div>","null","fixation","","","","","",""
"","489","html-keynbutton-response","288","2.0.0","180068","18","<div class=""flex flex-row stim-length pb-8 md:pd-20 justify-evenly items-center""><div class=""square""></div><div class=""square""></div><div class=""square""></div></div>","q","","shape_test_2","match","方","q","true","方"
"","null","html-keynbutton-response","289","2.0.0","180576","18","<div class=""pb-14 text-7xl"">+</div>","null","fixation","","","","","",""
"","627","html-keynbutton-response","290","2.0.0","181204","18","<div class=""flex flex-row stim-length pb-8 md:pd-20 justify-evenly items-center""><div class=""square""></div><div class=""circle""></div><div class=""square""></div></div>","p","","shape_test_2","mismatch","圆","p","true","圆"
"","null","html-keynbutton-response","291","2.0.0","181712","18","<div class=""pb-14 text-7xl"">+</div>","null","fixation","","","","","",""
"","547","html-keynbutton-response","292","2.0.0","182260","18","<div class=""flex flex-row stim-length pb-8 md:pd-20 justify-evenly items-center""><div class=""circle""></div><div class=""square""></div><div class=""circle""></div></div>","q","","shape_test_2","mismatch","方","q","true","方"
"","null","html-keynbutton-response","293","2.0.0","182762","18","<div class=""pb-14 text-7xl"">+</div>","null","fixation","","","","","",""
"","937","html-keynbutton-response","294","2.0.0","183700","18","<div class=""flex flex-row stim-length pb-8 md:pd-20 justify-evenly items-center""><div class=""circle""></div><div class=""circle""></div><div class=""circle""></div></div>","p","","shape_test_2","match","圆","p","true","圆"
"","null","html-keynbutton-response","295","2.0.0","184211","18","<div class=""pb-14 text-7xl"">+</div>","null","fixation","","","","","",""
"","448","html-keynbutton-response","296","2.0.0","184660","18","<div class=""flex flex-row stim-length pb-8 md:pd-20 justify-evenly items-center""><div class=""circle""></div><div class=""square""></div><div class=""circle""></div></div>","q","","shape_test_2","mismatch","方","q","true","方"
"","null","html-keynbutton-response","297","2.0.0","185162","18","<div class=""pb-14 text-7xl"">+</div>","null","fixation","","","","","",""
"","504","html-keynbutton-response","298","2.0.0","185668","18","<div class=""flex flex-row stim-length pb-8 md:pd-20 justify-evenly items-center""><div class=""square""></div><div class=""square""></div><div class=""square""></div></div>","q","","shape_test_2","match","方","q","true","方"
"","null","html-keynbutton-response","299","2.0.0","186177","18","<div class=""pb-14 text-7xl"">+</div>","null","fixation","","","","","",""
"","546","html-keynbutton-response","300","2.0.0","186724","18","<div class=""flex flex-row stim-length pb-8 md:pd-20 justify-evenly items-center""><div class=""circle""></div><div class=""circle""></div><div class=""circle""></div></div>","p","","shape_test_2","match","圆","p","true","圆"
"","null","html-keynbutton-response","301","2.0.0","187229","18","<div class=""pb-14 text-7xl"">+</div>","null","fixation","","","","","",""
"","566","html-keynbutton-response","302","2.0.0","187796","18","<div class=""flex flex-row stim-length pb-8 md:pd-20 justify-evenly items-center""><div class=""square""></div><div class=""circle""></div><div class=""square""></div></div>","p","","shape_test_2","mismatch","圆","p","true","圆"
"","null","html-keynbutton-response","303","2.0.0","188311","18","<div class=""pb-14 text-7xl"">+</div>","null","fixation","","","","","",""
"","668","html-keynbutton-response","304","2.0.0","188980","18","<div class=""flex flex-row stim-length pb-8 md:pd-20 justify-evenly items-center""><div class=""circle""></div><div class=""square""></div><div class=""circle""></div></div>","q","","shape_test_2","mismatch","方","q","true","方"
"","null","html-keynbutton-response","305","2.0.0","189494","18","<div class=""pb-14 text-7xl"">+</div>","null","fixation","","","","","",""
"","509","html-keynbutton-response","306","2.0.0","190004","18","<div class=""flex flex-row stim-length pb-8 md:pd-20 justify-evenly items-center""><div class=""circle""></div><div class=""circle""></div><div class=""circle""></div></div>","p","","shape_test_2","match","圆","p","true","圆"
"","null","html-keynbutton-response","307","2.0.0","190512","18","<div class=""pb-14 text-7xl"">+</div>","null","fixation","","","","","",""
"","596","html-keynbutton-response","308","2.0.0","191109","18","<div class=""flex flex-row stim-length pb-8 md:pd-20 justify-evenly items-center""><div class=""square""></div><div class=""circle""></div><div class=""square""></div></div>","p","","shape_test_2","mismatch","圆","p","true","圆"
"","null","html-keynbutton-response","309","2.0.0","191612","18","<div class=""pb-14 text-7xl"">+</div>","null","fixation","","","","","",""
"","552","html-keynbutton-response","310","2.0.0","192164","18","<div class=""flex flex-row stim-length pb-8 md:pd-20 justify-evenly items-center""><div class=""square""></div><div class=""square""></div><div class=""square""></div></div>","q","","shape_test_2","match","方","q","true","方"
"","2302","html-keynbutton-response","311","2.0.0","194469","18","<div class=""jp""><p>您已完成3/10部分</p><p>请休息一会儿</p>
    <p>您的正确率是：100%</p>
    <p>您的平均反应时间是：550毫秒</p></div>"," ","block_feedback","","","","","",""
"","null","html-keynbutton-response","312","2.0.0","197676","18","<count-down title=""""></count-down>","null","countDown_trial","","","","","",""
"","null","html-keynbutton-response","313","2.0.0","198179","18","<div class=""pb-14 text-7xl"">+</div>","null","fixation","","","","","",""
"","464","html-keynbutton-response","314","2.0.0","198643","18","<div class=""flex flex-row stim-length pb-8 md:pd-20 justify-evenly items-center""><div class=""circle""></div><div class=""circle""></div><div class=""circle""></div></div>","p","","shape_test_3","match","圆","p","true","圆"
"","null","html-keynbutton-response","315","2.0.0","199146","18","<div class=""pb-14 text-7xl"">+</div>","null","fixation","","","","","",""
"","474","html-keynbutton-response","316","2.0.0","199620","18","<div class=""flex flex-row stim-length pb-8 md:pd-20 justify-evenly items-center""><div class=""circle""></div><div class=""square""></div><div class=""circle""></div></div>","q","","shape_test_3","mismatch","方","q","true","方"
"","null","html-keynbutton-response","317","2.0.0","200127","18","<div class=""pb-14 text-7xl"">+</div>","null","fixation","","","","","",""
"","628","html-keynbutton-response","318","2.0.0","200756","18","<div class=""flex flex-row stim-length pb-8 md:pd-20 justify-evenly items-center""><div class=""square""></div><div class=""circle""></div><div class=""square""></div></div>","p","","shape_test_3","mismatch","圆","p","true","圆"
"","null","html-keynbutton-response","319","2.0.0","201262","18","<div class=""pb-14 text-7xl"">+</div>","null","fixation","","","","","",""
"","485","html-keynbutton-response","320","2.0.0","201748","18","<div class=""flex flex-row stim-length pb-8 md:pd-20 justify-evenly items-center""><div class=""square""></div><div class=""square""></div><div class=""square""></div></div>","q","","shape_test_3","match","方","q","true","方"
"","null","html-keynbutton-response","321","2.0.0","202261","18","<div class=""pb-14 text-7xl"">+</div>","null","fixation","","","","","",""
"","478","html-keynbutton-response","322","2.0.0","202740","18","<div class=""flex flex-row stim-length pb-8 md:pd-20 justify-evenly items-center""><div class=""circle""></div><div class=""circle""></div><div class=""circle""></div></div>","p","","shape_test_3","match","圆","p","true","圆"
"","null","html-keynbutton-response","323","2.0.0","203246","18","<div class=""pb-14 text-7xl"">+</div>","null","fixation","","","","","",""
"","453","html-keynbutton-response","324","2.0.0","203700","18","<div class=""flex flex-row stim-length pb-8 md:pd-20 justify-evenly items-center""><div class=""circle""></div><div class=""square""></div><div class=""circle""></div></div>","q","","shape_test_3","mismatch","方","q","true","方"
"","null","html-keynbutton-response","325","2.0.0","204211","18","<div class=""pb-14 text-7xl"">+</div>","null","fixation","","","","","",""
"","464","html-keynbutton-response","326","2.0.0","204676","18","<div class=""flex flex-row stim-length pb-8 md:pd-20 justify-evenly items-center""><div class=""square""></div><div class=""square""></div><div class=""square""></div></div>","q","","shape_test_3","match","方","q","true","方"
"","null","html-keynbutton-response","327","2.0.0","205180","18","<div class=""pb-14 text-7xl"">+</div>","null","fixation","","","","","",""
"","440","html-keynbutton-response","328","2.0.0","205620","18","<div class=""flex flex-row stim-length pb-8 md:pd-20 justify-evenly items-center""><div class=""square""></div><div class=""circle""></div><div class=""square""></div></div>","p","","shape_test_3","mismatch","圆","p","true","圆"
"","null","html-keynbutton-response","329","2.0.0","206127","18","<div class=""pb-14 text-7xl"">+</div>","null","fixation","","","","","",""
"","404","html-keynbutton-response","330","2.0.0","206532","18","<div class=""flex flex-row stim-length pb-8 md:pd-20 justify-evenly items-center""><div class=""circle""></div><div class=""circle""></div><div class=""circle""></div></div>","p","","shape_test_3","match","圆","p","true","圆"
"","null","html-keynbutton-response","331","2.0.0","207044","18","<div class=""pb-14 text-7xl"">+</div>","null","fixation","","","","","",""
"","463","html-keynbutton-response","332","2.0.0","207508","18","<div class=""flex flex-row stim-length pb-8 md:pd-20 justify-evenly items-center""><div class=""circle""></div><div class=""square""></div><div class=""circle""></div></div>","q","","shape_test_3","mismatch","方","q","true","方"
"","null","html-keynbutton-response","333","2.0.0","208013","18","<div class=""pb-14 text-7xl"">+</div>","null","fixation","","","","","",""
"","471","html-keynbutton-response","334","2.0.0","208484","18","<div class=""flex flex-row stim-length pb-8 md:pd-20 justify-evenly items-center""><div class=""square""></div><div class=""circle""></div><div class=""square""></div></div>","p","","shape_test_3","mismatch","圆","p","true","圆"
"","null","html-keynbutton-response","335","2.0.0","208995","18","<div class=""pb-14 text-7xl"">+</div>","null","fixation","","","","","",""
"","448","html-keynbutton-response","336","2.0.0","209444","18","<div class=""flex flex-row stim-length pb-8 md:pd-20 justify-evenly items-center""><div class=""square""></div><div class=""square""></div><div class=""square""></div></div>","q","","shape_test_3","match","方","q","true","方"
"","null","html-keynbutton-response","337","2.0.0","209946","18","<div class=""pb-14 text-7xl"">+</div>","null","fixation","","","","","",""
"","458","html-keynbutton-response","338","2.0.0","210405","18","<div class=""flex flex-row stim-length pb-8 md:pd-20 justify-evenly items-center""><div class=""circle""></div><div class=""circle""></div><div class=""circle""></div></div>","p","","shape_test_3","match","圆","p","true","圆"
"","null","html-keynbutton-response","339","2.0.0","210912","18","<div class=""pb-14 text-7xl"">+</div>","null","fixation","","","","","",""
"","531","html-keynbutton-response","340","2.0.0","211444","18","<div class=""flex flex-row stim-length pb-8 md:pd-20 justify-evenly items-center""><div class=""square""></div><div class=""square""></div><div class=""square""></div></div>","q","","shape_test_3","match","方","q","true","方"
"","null","html-keynbutton-response","341","2.0.0","211946","18","<div class=""pb-14 text-7xl"">+</div>","null","fixation","","","","","",""
"","618","html-keynbutton-response","342","2.0.0","212564","18","<div class=""flex flex-row stim-length pb-8 md:pd-20 justify-evenly items-center""><div class=""square""></div><div class=""circle""></div><div class=""square""></div></div>","p","","shape_test_3","mismatch","圆","p","true","圆"
"","null","html-keynbutton-response","343","2.0.0","213078","18","<div class=""pb-14 text-7xl"">+</div>","null","fixation","","","","","",""
"","445","html-keynbutton-response","344","2.0.0","213524","18","<div class=""flex flex-row stim-length pb-8 md:pd-20 justify-evenly items-center""><div class=""circle""></div><div class=""square""></div><div class=""circle""></div></div>","q","","shape_test_3","mismatch","方","q","true","方"
"","null","html-keynbutton-response","345","2.0.0","214029","18","<div class=""pb-14 text-7xl"">+</div>","null","fixation","","","","","",""
"","583","html-keynbutton-response","346","2.0.0","214612","18","<div class=""flex flex-row stim-length pb-8 md:pd-20 justify-evenly items-center""><div class=""square""></div><div class=""circle""></div><div class=""square""></div></div>","p","","shape_test_3","mismatch","圆","p","true","圆"
"","null","html-keynbutton-response","347","2.0.0","215128","18","<div class=""pb-14 text-7xl"">+</div>","null","fixation","","","","","",""
"","459","html-keynbutton-response","348","2.0.0","215588","18","<div class=""flex flex-row stim-length pb-8 md:pd-20 justify-evenly items-center""><div class=""square""></div><div class=""square""></div><div class=""square""></div></div>","q","","shape_test_3","match","方","q","true","方"
"","null","html-keynbutton-response","349","2.0.0","216096","18","<div class=""pb-14 text-7xl"">+</div>","null","fixation","","","","","",""
"","532","html-keynbutton-response","350","2.0.0","216629","18","<div class=""flex flex-row stim-length pb-8 md:pd-20 justify-evenly items-center""><div class=""circle""></div><div class=""square""></div><div class=""circle""></div></div>","q","","shape_test_3","mismatch","方","q","true","方"
"","null","html-keynbutton-response","351","2.0.0","217145","18","<div class=""pb-14 text-7xl"">+</div>","null","fixation","","","","","",""
"","539","html-keynbutton-response","352","2.0.0","217685","18","<div class=""flex flex-row stim-length pb-8 md:pd-20 justify-evenly items-center""><div class=""circle""></div><div class=""circle""></div><div class=""circle""></div></div>","p","","shape_test_3","match","圆","p","true","圆"
"","null","html-keynbutton-response","353","2.0.0","218193","18","<div class=""pb-14 text-7xl"">+</div>","null","fixation","","","","","",""
"","610","html-keynbutton-response","354","2.0.0","218804","18","<div class=""flex flex-row stim-length pb-8 md:pd-20 justify-evenly items-center""><div class=""circle""></div><div class=""circle""></div><div class=""circle""></div></div>","p","","shape_test_3","match","圆","p","true","圆"
"","null","html-keynbutton-response","355","2.0.0","219313","18","<div class=""pb-14 text-7xl"">+</div>","null","fixation","","","","","",""
"","578","html-keynbutton-response","356","2.0.0","219892","18","<div class=""flex flex-row stim-length pb-8 md:pd-20 justify-evenly items-center""><div class=""square""></div><div class=""square""></div><div class=""square""></div></div>","q","","shape_test_3","match","方","q","true","方"
"","null","html-keynbutton-response","357","2.0.0","220396","18","<div class=""pb-14 text-7xl"">+</div>","null","fixation","","","","","",""
"","712","html-keynbutton-response","358","2.0.0","221108","18","<div class=""flex flex-row stim-length pb-8 md:pd-20 justify-evenly items-center""><div class=""square""></div><div class=""circle""></div><div class=""square""></div></div>","p","","shape_test_3","mismatch","圆","p","true","圆"
"","null","html-keynbutton-response","359","2.0.0","221613","18","<div class=""pb-14 text-7xl"">+</div>","null","fixation","","","","","",""
"","503","html-keynbutton-response","360","2.0.0","222117","18","<div class=""flex flex-row stim-length pb-8 md:pd-20 justify-evenly items-center""><div class=""circle""></div><div class=""square""></div><div class=""circle""></div></div>","q","","shape_test_3","mismatch","方","q","true","方"
"","null","html-keynbutton-response","361","2.0.0","222628","18","<div class=""pb-14 text-7xl"">+</div>","null","fixation","","","","","",""
"","737","html-keynbutton-response","362","2.0.0","223366","18","<div class=""flex flex-row stim-length pb-8 md:pd-20 justify-evenly items-center""><div class=""circle""></div><div class=""circle""></div><div class=""circle""></div></div>","p","","shape_test_3","match","圆","p","true","圆"
"","null","html-keynbutton-response","363","2.0.0","223878","18","<div class=""pb-14 text-7xl"">+</div>","null","fixation","","","","","",""
"","510","html-keynbutton-response","364","2.0.0","224388","18","<div class=""flex flex-row stim-length pb-8 md:pd-20 justify-evenly items-center""><div class=""square""></div><div class=""square""></div><div class=""square""></div></div>","q","","shape_test_3","match","方","q","true","方"
"","null","html-keynbutton-response","365","2.0.0","224896","18","<div class=""pb-14 text-7xl"">+</div>","null","fixation","","","","","",""
"","372","html-keynbutton-response","366","2.0.0","225269","18","<div class=""flex flex-row stim-length pb-8 md:pd-20 justify-evenly items-center""><div class=""square""></div><div class=""circle""></div><div class=""square""></div></div>","p","","shape_test_3","mismatch","圆","p","true","圆"
"","null","html-keynbutton-response","367","2.0.0","225778","18","<div class=""pb-14 text-7xl"">+</div>","null","fixation","","","","","",""
"","354","html-keynbutton-response","368","2.0.0","226133","18","<div class=""flex flex-row stim-length pb-8 md:pd-20 justify-evenly items-center""><div class=""circle""></div><div class=""square""></div><div class=""circle""></div></div>","q","","shape_test_3","mismatch","方","q","true","方"
"","null","html-keynbutton-response","369","2.0.0","226645","18","<div class=""pb-14 text-7xl"">+</div>","null","fixation","","","","","",""
"","350","html-keynbutton-response","370","2.0.0","226996","18","<div class=""flex flex-row stim-length pb-8 md:pd-20 justify-evenly items-center""><div class=""square""></div><div class=""circle""></div><div class=""square""></div></div>","p","","shape_test_3","mismatch","圆","p","true","圆"
"","null","html-keynbutton-response","371","2.0.0","227511","18","<div class=""pb-14 text-7xl"">+</div>","null","fixation","","","","","",""
"","427","html-keynbutton-response","372","2.0.0","227939","18","<div class=""flex flex-row stim-length pb-8 md:pd-20 justify-evenly items-center""><div class=""circle""></div><div class=""square""></div><div class=""circle""></div></div>","q","","shape_test_3","mismatch","方","q","true","方"
"","null","html-keynbutton-response","373","2.0.0","228444","18","<div class=""pb-14 text-7xl"">+</div>","null","fixation","","","","","",""
"","535","html-keynbutton-response","374","2.0.0","228979","18","<div class=""flex flex-row stim-length pb-8 md:pd-20 justify-evenly items-center""><div class=""circle""></div><div class=""circle""></div><div class=""circle""></div></div>","p","","shape_test_3","match","圆","p","true","圆"
"","null","html-keynbutton-response","375","2.0.0","229495","18","<div class=""pb-14 text-7xl"">+</div>","null","fixation","","","","","",""
"","540","html-keynbutton-response","376","2.0.0","230036","18","<div class=""flex flex-row stim-length pb-8 md:pd-20 justify-evenly items-center""><div class=""square""></div><div class=""square""></div><div class=""square""></div></div>","q","","shape_test_3","match","方","q","true","方"
"","null","html-keynbutton-response","377","2.0.0","230544","18","<div class=""pb-14 text-7xl"">+</div>","null","fixation","","","","","",""
"","771","html-keynbutton-response","378","2.0.0","231316","18","<div class=""flex flex-row stim-length pb-8 md:pd-20 justify-evenly items-center""><div class=""circle""></div><div class=""square""></div><div class=""circle""></div></div>","q","","shape_test_3","mismatch","方","q","true","方"
"","null","html-keynbutton-response","379","2.0.0","231828","18","<div class=""pb-14 text-7xl"">+</div>","null","fixation","","","","","",""
"","464","html-keynbutton-response","380","2.0.0","232292","18","<div class=""flex flex-row stim-length pb-8 md:pd-20 justify-evenly items-center""><div class=""square""></div><div class=""square""></div><div class=""square""></div></div>","q","","shape_test_3","match","方","q","true","方"
"","null","html-keynbutton-response","381","2.0.0","232796","18","<div class=""pb-14 text-7xl"">+</div>","null","fixation","","","","","",""
"","440","html-keynbutton-response","382","2.0.0","233236","18","<div class=""flex flex-row stim-length pb-8 md:pd-20 justify-evenly items-center""><div class=""square""></div><div class=""circle""></div><div class=""square""></div></div>","p","","shape_test_3","mismatch","圆","p","true","圆"
"","null","html-keynbutton-response","383","2.0.0","233745","18","<div class=""pb-14 text-7xl"">+</div>","null","fixation","","","","","",""
"","547","html-keynbutton-response","384","2.0.0","234293","18","<div class=""flex flex-row stim-length pb-8 md:pd-20 justify-evenly items-center""><div class=""circle""></div><div class=""circle""></div><div class=""circle""></div></div>","p","","shape_test_3","match","圆","p","true","圆"
"","null","html-keynbutton-response","385","2.0.0","234796","18","<div class=""pb-14 text-7xl"">+</div>","null","fixation","","","","","",""
"","423","html-keynbutton-response","386","2.0.0","235220","18","<div class=""flex flex-row stim-length pb-8 md:pd-20 justify-evenly items-center""><div class=""square""></div><div class=""circle""></div><div class=""square""></div></div>","p","","shape_test_3","mismatch","圆","p","true","圆"
"","null","html-keynbutton-response","387","2.0.0","235728","18","<div class=""pb-14 text-7xl"">+</div>","null","fixation","","","","","",""
"","436","html-keynbutton-response","388","2.0.0","236164","18","<div class=""flex flex-row stim-length pb-8 md:pd-20 justify-evenly items-center""><div class=""square""></div><div class=""square""></div><div class=""square""></div></div>","q","","shape_test_3","match","方","q","true","方"
"","null","html-keynbutton-response","389","2.0.0","236678","18","<div class=""pb-14 text-7xl"">+</div>","null","fixation","","","","","",""
"","461","html-keynbutton-response","390","2.0.0","237140","18","<div class=""flex flex-row stim-length pb-8 md:pd-20 justify-evenly items-center""><div class=""circle""></div><div class=""circle""></div><div class=""circle""></div></div>","p","","shape_test_3","match","圆","p","true","圆"
"","null","html-keynbutton-response","391","2.0.0","237647","18","<div class=""pb-14 text-7xl"">+</div>","null","fixation","","","","","",""
"","436","html-keynbutton-response","392","2.0.0","238084","18","<div class=""flex flex-row stim-length pb-8 md:pd-20 justify-evenly items-center""><div class=""circle""></div><div class=""square""></div><div class=""circle""></div></div>","q","","shape_test_3","mismatch","方","q","true","方"
"","2208","html-keynbutton-response","393","2.0.0","240293","18","<div class=""jp""><p>您已完成4/10部分</p><p>请休息一会儿</p>
    <p>您的正确率是：100%</p>
    <p>您的平均反应时间是：501毫秒</p></div>"," ","block_feedback","","","","","",""
"","null","html-keynbutton-response","394","2.0.0","243509","18","<count-down title=""""></count-down>","null","countDown_trial","","","","","",""
"","null","html-keynbutton-response","395","2.0.0","244013","18","<div class=""pb-14 text-7xl"">+</div>","null","fixation","","","","","",""
"","455","html-keynbutton-response","396","2.0.0","244469","18","<div class=""flex flex-row stim-length pb-8 md:pd-20 justify-evenly items-center""><div class=""square""></div><div class=""circle""></div><div class=""square""></div></div>","p","","shape_test_4","mismatch","圆","p","true","圆"
"","null","html-keynbutton-response","397","2.0.0","244978","18","<div class=""pb-14 text-7xl"">+</div>","null","fixation","","","","","",""
"","450","html-keynbutton-response","398","2.0.0","245428","18","<div class=""flex flex-row stim-length pb-8 md:pd-20 justify-evenly items-center""><div class=""circle""></div><div class=""square""></div><div class=""circle""></div></div>","q","","shape_test_4","mismatch","方","q","true","方"
"","null","html-keynbutton-response","399","2.0.0","245945","18","<div class=""pb-14 text-7xl"">+</div>","null","fixation","","","","","",""
"","427","html-keynbutton-response","400","2.0.0","246373","18","<div class=""flex flex-row stim-length pb-8 md:pd-20 justify-evenly items-center""><div class=""square""></div><div class=""square""></div><div class=""square""></div></div>","q","","shape_test_4","match","方","q","true","方"
"","null","html-keynbutton-response","401","2.0.0","246879","18","<div class=""pb-14 text-7xl"">+</div>","null","fixation","","","","","",""
"","453","html-keynbutton-response","402","2.0.0","247332","18","<div class=""flex flex-row stim-length pb-8 md:pd-20 justify-evenly items-center""><div class=""circle""></div><div class=""circle""></div><div class=""circle""></div></div>","p","","shape_test_4","match","圆","p","true","圆"
"","null","html-keynbutton-response","403","2.0.0","247845","18","<div class=""pb-14 text-7xl"">+</div>","null","fixation","","","","","",""
"","527","html-keynbutton-response","404","2.0.0","248373","18","<div class=""flex flex-row stim-length pb-8 md:pd-20 justify-evenly items-center""><div class=""square""></div><div class=""square""></div><div class=""square""></div></div>","q","","shape_test_4","match","方","q","true","方"
"","null","html-keynbutton-response","405","2.0.0","248880","18","<div class=""pb-14 text-7xl"">+</div>","null","fixation","","","","","",""
"","484","html-keynbutton-response","406","2.0.0","249365","18","<div class=""flex flex-row stim-length pb-8 md:pd-20 justify-evenly items-center""><div class=""circle""></div><div class=""square""></div><div class=""circle""></div></div>","q","","shape_test_4","mismatch","方","q","true","方"
"","null","html-keynbutton-response","407","2.0.0","249878","18","<div class=""pb-14 text-7xl"">+</div>","null","fixation","","","","","",""
"","478","html-keynbutton-response","408","2.0.0","250356","18","<div class=""flex flex-row stim-length pb-8 md:pd-20 justify-evenly items-center""><div class=""square""></div><div class=""circle""></div><div class=""square""></div></div>","p","","shape_test_4","mismatch","圆","p","true","圆"
"","null","html-keynbutton-response","409","2.0.0","250862","18","<div class=""pb-14 text-7xl"">+</div>","null","fixation","","","","","",""
"","549","html-keynbutton-response","410","2.0.0","251412","18","<div class=""flex flex-row stim-length pb-8 md:pd-20 justify-evenly items-center""><div class=""circle""></div><div class=""circle""></div><div class=""circle""></div></div>","p","","shape_test_4","match","圆","p","true","圆"
"","null","html-keynbutton-response","411","2.0.0","251929","18","<div class=""pb-14 text-7xl"">+</div>","null","fixation","","","","","",""
"","507","html-keynbutton-response","412","2.0.0","252436","18","<div class=""flex flex-row stim-length pb-8 md:pd-20 justify-evenly items-center""><div class=""circle""></div><div class=""circle""></div><div class=""circle""></div></div>","p","","shape_test_4","match","圆","p","true","圆"
"","null","html-keynbutton-response","413","2.0.0","252944","18","<div class=""pb-14 text-7xl"">+</div>","null","fixation","","","","","",""
"","435","html-keynbutton-response","414","2.0.0","253380","18","<div class=""flex flex-row stim-length pb-8 md:pd-20 justify-evenly items-center""><div class=""square""></div><div class=""circle""></div><div class=""square""></div></div>","p","","shape_test_4","mismatch","圆","p","true","圆"
"","null","html-keynbutton-response","415","2.0.0","253895","18","<div class=""pb-14 text-7xl"">+</div>","null","fixation","","","","","",""
"","493","html-keynbutton-response","416","2.0.0","254388","18","<div class=""flex flex-row stim-length pb-8 md:pd-20 justify-evenly items-center""><div class=""circle""></div><div class=""square""></div><div class=""circle""></div></div>","q","","shape_test_4","mismatch","方","q","true","方"
"","null","html-keynbutton-response","417","2.0.0","254895","18","<div class=""pb-14 text-7xl"">+</div>","null","fixation","","","","","",""
"","420","html-keynbutton-response","418","2.0.0","255316","18","<div class=""flex flex-row stim-length pb-8 md:pd-20 justify-evenly items-center""><div class=""square""></div><div class=""square""></div><div class=""square""></div></div>","q","","shape_test_4","match","方","q","true","方"
"","null","html-keynbutton-response","419","2.0.0","255828","18","<div class=""pb-14 text-7xl"">+</div>","null","fixation","","","","","",""
"","447","html-keynbutton-response","420","2.0.0","256276","18","<div class=""flex flex-row stim-length pb-8 md:pd-20 justify-evenly items-center""><div class=""square""></div><div class=""square""></div><div class=""square""></div></div>","q","","shape_test_4","match","方","q","true","方"
"","null","html-keynbutton-response","421","2.0.0","256779","18","<div class=""pb-14 text-7xl"">+</div>","null","fixation","","","","","",""
"","488","html-keynbutton-response","422","2.0.0","257268","18","<div class=""flex flex-row stim-length pb-8 md:pd-20 justify-evenly items-center""><div class=""circle""></div><div class=""square""></div><div class=""circle""></div></div>","q","","shape_test_4","mismatch","方","q","true","方"
"","null","html-keynbutton-response","423","2.0.0","257776","18","<div class=""pb-14 text-7xl"">+</div>","null","fixation","","","","","",""
"","499","html-keynbutton-response","424","2.0.0","258277","18","<div class=""flex flex-row stim-length pb-8 md:pd-20 justify-evenly items-center""><div class=""circle""></div><div class=""circle""></div><div class=""circle""></div></div>","p","","shape_test_4","match","圆","p","true","圆"
"","null","html-keynbutton-response","425","2.0.0","258780","18","<div class=""pb-14 text-7xl"">+</div>","null","fixation","","","","","",""
"","408","html-keynbutton-response","426","2.0.0","259188","18","<div class=""flex flex-row stim-length pb-8 md:pd-20 justify-evenly items-center""><div class=""square""></div><div class=""circle""></div><div class=""square""></div></div>","p","","shape_test_4","mismatch","圆","p","true","圆"
"","null","html-keynbutton-response","427","2.0.0","259695","18","<div class=""pb-14 text-7xl"">+</div>","null","fixation","","","","","",""
"","372","html-keynbutton-response","428","2.0.0","260068","18","<div class=""flex flex-row stim-length pb-8 md:pd-20 justify-evenly items-center""><div class=""square""></div><div class=""circle""></div><div class=""square""></div></div>","p","","shape_test_4","mismatch","圆","p","true","圆"
"","null","html-keynbutton-response","429","2.0.0","260577","18","<div class=""pb-14 text-7xl"">+</div>","null","fixation","","","","","",""
"","547","html-keynbutton-response","430","2.0.0","261124","18","<div class=""flex flex-row stim-length pb-8 md:pd-20 justify-evenly items-center""><div class=""square""></div><div class=""square""></div><div class=""square""></div></div>","q","","shape_test_4","match","方","q","true","方"
"","null","html-keynbutton-response","431","2.0.0","261629","18","<div class=""pb-14 text-7xl"">+</div>","null","fixation","","","","","",""
"","439","html-keynbutton-response","432","2.0.0","262069","18","<div class=""flex flex-row stim-length pb-8 md:pd-20 justify-evenly items-center""><div class=""circle""></div><div class=""square""></div><div class=""circle""></div></div>","q","","shape_test_4","mismatch","方","q","true","方"
"","null","html-keynbutton-response","433","2.0.0","262578","18","<div class=""pb-14 text-7xl"">+</div>","null","fixation","","","","","",""
"","497","html-keynbutton-response","434","2.0.0","263076","18","<div class=""flex flex-row stim-length pb-8 md:pd-20 justify-evenly items-center""><div class=""circle""></div><div class=""circle""></div><div class=""circle""></div></div>","p","","shape_test_4","match","圆","p","true","圆"
"","null","html-keynbutton-response","435","2.0.0","263579","18","<div class=""pb-14 text-7xl"">+</div>","null","fixation","","","","","",""
"","440","html-keynbutton-response","436","2.0.0","264020","18","<div class=""flex flex-row stim-length pb-8 md:pd-20 justify-evenly items-center""><div class=""circle""></div><div class=""square""></div><div class=""circle""></div></div>","q","","shape_test_4","mismatch","方","q","true","方"
"","null","html-keynbutton-response","437","2.0.0","264528","18","<div class=""pb-14 text-7xl"">+</div>","null","fixation","","","","","",""
"","420","html-keynbutton-response","438","2.0.0","264949","18","<div class=""flex flex-row stim-length pb-8 md:pd-20 justify-evenly items-center""><div class=""square""></div><div class=""square""></div><div class=""square""></div></div>","q","","shape_test_4","match","方","q","true","方"
"","null","html-keynbutton-response","439","2.0.0","265461","18","<div class=""pb-14 text-7xl"">+</div>","null","fixation","","","","","",""
"","479","html-keynbutton-response","440","2.0.0","265940","18","<div class=""flex flex-row stim-length pb-8 md:pd-20 justify-evenly items-center""><div class=""circle""></div><div class=""circle""></div><div class=""circle""></div></div>","p","","shape_test_4","match","圆","p","true","圆"
"","null","html-keynbutton-response","441","2.0.0","266447","18","<div class=""pb-14 text-7xl"">+</div>","null","fixation","","","","","",""
"","629","html-keynbutton-response","442","2.0.0","267076","18","<div class=""flex flex-row stim-length pb-8 md:pd-20 justify-evenly items-center""><div class=""square""></div><div class=""circle""></div><div class=""square""></div></div>","p","","shape_test_4","mismatch","圆","p","true","圆"
"","null","html-keynbutton-response","443","2.0.0","267579","18","<div class=""pb-14 text-7xl"">+</div>","null","fixation","","","","","",""
"","440","html-keynbutton-response","444","2.0.0","268020","18","<div class=""flex flex-row stim-length pb-8 md:pd-20 justify-evenly items-center""><div class=""square""></div><div class=""square""></div><div class=""square""></div></div>","q","","shape_test_4","match","方","q","true","方"
"","null","html-keynbutton-response","445","2.0.0","268528","18","<div class=""pb-14 text-7xl"">+</div>","null","fixation","","","","","",""
"","500","html-keynbutton-response","446","2.0.0","269028","18","<div class=""flex flex-row stim-length pb-8 md:pd-20 justify-evenly items-center""><div class=""square""></div><div class=""circle""></div><div class=""square""></div></div>","p","","shape_test_4","mismatch","圆","p","true","圆"
"","null","html-keynbutton-response","447","2.0.0","269545","18","<div class=""pb-14 text-7xl"">+</div>","null","fixation","","","","","",""
"","523","html-keynbutton-response","448","2.0.0","270068","18","<div class=""flex flex-row stim-length pb-8 md:pd-20 justify-evenly items-center""><div class=""circle""></div><div class=""square""></div><div class=""circle""></div></div>","q","","shape_test_4","mismatch","方","q","true","方"
"","null","html-keynbutton-response","449","2.0.0","270577","18","<div class=""pb-14 text-7xl"">+</div>","null","fixation","","","","","",""
"","579","html-keynbutton-response","450","2.0.0","271156","18","<div class=""flex flex-row stim-length pb-8 md:pd-20 justify-evenly items-center""><div class=""circle""></div><div class=""circle""></div><div class=""circle""></div></div>","p","","shape_test_4","match","圆","p","true","圆"
"","null","html-keynbutton-response","451","2.0.0","271662","18","<div class=""pb-14 text-7xl"">+</div>","null","fixation","","","","","",""
"","389","html-keynbutton-response","452","2.0.0","272052","18","<div class=""flex flex-row stim-length pb-8 md:pd-20 justify-evenly items-center""><div class=""circle""></div><div class=""square""></div><div class=""circle""></div></div>","q","","shape_test_4","mismatch","方","q","true","方"
"","null","html-keynbutton-response","453","2.0.0","272560","18","<div class=""pb-14 text-7xl"">+</div>","null","fixation","","","","","",""
"","627","html-keynbutton-response","454","2.0.0","273188","18","<div class=""flex flex-row stim-length pb-8 md:pd-20 justify-evenly items-center""><div class=""square""></div><div class=""square""></div><div class=""square""></div></div>","q","","shape_test_4","match","方","q","true","方"
"","null","html-keynbutton-response","455","2.0.0","273694","18","<div class=""pb-14 text-7xl"">+</div>","null","fixation","","","","","",""
"","453","html-keynbutton-response","456","2.0.0","274148","18","<div class=""flex flex-row stim-length pb-8 md:pd-20 justify-evenly items-center""><div class=""square""></div><div class=""circle""></div><div class=""square""></div></div>","p","","shape_test_4","mismatch","圆","p","true","圆"
"","null","html-keynbutton-response","457","2.0.0","274661","18","<div class=""pb-14 text-7xl"">+</div>","null","fixation","","","","","",""
"","526","html-keynbutton-response","458","2.0.0","275188","18","<div class=""flex flex-row stim-length pb-8 md:pd-20 justify-evenly items-center""><div class=""circle""></div><div class=""circle""></div><div class=""circle""></div></div>","p","","shape_test_4","match","圆","p","true","圆"
"","null","html-keynbutton-response","459","2.0.0","275696","18","<div class=""pb-14 text-7xl"">+</div>","null","fixation","","","","","",""
"","468","html-keynbutton-response","460","2.0.0","276165","18","<div class=""flex flex-row stim-length pb-8 md:pd-20 justify-evenly items-center""><div class=""circle""></div><div class=""circle""></div><div class=""circle""></div></div>","p","","shape_test_4","match","圆","p","true","圆"
"","null","html-keynbutton-response","461","2.0.0","276678","18","<div class=""pb-14 text-7xl"">+</div>","null","fixation","","","","","",""
"","526","html-keynbutton-response","462","2.0.0","277205","18","<div class=""flex flex-row stim-length pb-8 md:pd-20 justify-evenly items-center""><div class=""square""></div><div class=""circle""></div><div class=""square""></div></div>","p","","shape_test_4","mismatch","圆","p","true","圆"
"","null","html-keynbutton-response","463","2.0.0","277712","18","<div class=""pb-14 text-7xl"">+</div>","null","fixation","","","","","",""
"","627","html-keynbutton-response","464","2.0.0","278340","18","<div class=""flex flex-row stim-length pb-8 md:pd-20 justify-evenly items-center""><div class=""circle""></div><div class=""square""></div><div class=""circle""></div></div>","q","","shape_test_4","mismatch","方","q","true","方"
"","null","html-keynbutton-response","465","2.0.0","278847","18","<div class=""pb-14 text-7xl"">+</div>","null","fixation","","","","","",""
"","532","html-keynbutton-response","466","2.0.0","279379","18","<div class=""flex flex-row stim-length pb-8 md:pd-20 justify-evenly items-center""><div class=""square""></div><div class=""square""></div><div class=""square""></div></div>","q","","shape_test_4","match","方","q","true","方"
"","null","html-keynbutton-response","467","2.0.0","279894","18","<div class=""pb-14 text-7xl"">+</div>","null","fixation","","","","","",""
"","557","html-keynbutton-response","468","2.0.0","280452","18","<div class=""flex flex-row stim-length pb-8 md:pd-20 justify-evenly items-center""><div class=""circle""></div><div class=""square""></div><div class=""circle""></div></div>","q","","shape_test_4","mismatch","方","q","true","方"
