"success","rt","trial_type","trial_index","plugin_version","time_elapsed","subj_id","stimulus","response","trail_tag","task","ismatch","target","correct_key","correct","response_key"
"true","3628775","fullscreen","0","2.0.0","3629781","15","","","","","","","","",""
"","32792","html-keynbutton-response","1","2.0.0","3662577","15","
        <div class=""jp px-2 xxs:px-5 mx-auto"">
        <p class=""text-center text-red-600 text-[1.2em] pb-5"">欢迎您参加知觉
          <strong>匹配实验。</strong>
        </p>
        <p>接下来的任务中您将看到一排图形。</p>
        <p>(圆形●或方形■)</p><p>您需要专注于中间的图形，判断中间的图形和两侧的图形<strong>是否匹配</strong>。</p>
        <p>如果图形不匹配，请按“q”；</p>
        <p>如果图形匹配，请按“p”。</p>
        <p>请尽量又快又准地做出反应。</p>
      <p>请按空格键开始练习。</p>
      </div>"," ","","","","","","",""
"","null","html-keynbutton-response","2","2.0.0","3665788","15","<count-down title=""""></count-down>","null","countDown_trial","","","","","",""
"","null","html-keynbutton-response","3","2.0.0","3666291","15","<div class=""pb-14 text-7xl"">+</div>","null","fixation","","","","","",""
"","null","html-keynbutton-response","4","2.0.0","3668306","15","<div class=""flex flex-row stim-length pb-8 md:pd-20 justify-evenly items-center""><div class=""square""></div><div class=""square""></div><div class=""square""></div></div>","null","","matchness_practice","match","方","p","false","null"
"","null","html-keynbutton-response","5","2.0.0","3668823","15","<span class='text-yellow-500 text-4xl md:text-5xl lg:text-6xl'>太慢!</span>","null","trial_feedback","","","","","",""
"","null","html-keynbutton-response","6","2.0.0","3669340","15","<div class=""pb-14 text-7xl"">+</div>","null","fixation","","","","","",""
"","1323","html-keynbutton-response","7","2.0.0","3670664","15","<div class=""flex flex-row stim-length pb-8 md:pd-20 justify-evenly items-center""><div class=""square""></div><div class=""circle""></div><div class=""square""></div></div>","q","","matchness_practice","mismatch","圆","q","true","mismatch"
"","null","html-keynbutton-response","8","2.0.0","3671173","15","<span class='text-green-400 text-4xl md:text-5xl lg:text-6xl'>正确!</span>","null","trial_feedback","","","","","",""
"","null","html-keynbutton-response","9","2.0.0","3671689","15","<div class=""pb-14 text-7xl"">+</div>","null","fixation","","","","","",""
"","943","html-keynbutton-response","10","2.0.0","3672633","15","<div class=""flex flex-row stim-length pb-8 md:pd-20 justify-evenly items-center""><div class=""circle""></div><div class=""square""></div><div class=""circle""></div></div>","q","","matchness_practice","mismatch","方","q","true","mismatch"
"","null","html-keynbutton-response","11","2.0.0","3673141","15","<span class='text-green-400 text-4xl md:text-5xl lg:text-6xl'>正确!</span>","null","trial_feedback","","","","","",""
"","null","html-keynbutton-response","12","2.0.0","3673656","15","<div class=""pb-14 text-7xl"">+</div>","null","fixation","","","","","",""
"","833","html-keynbutton-response","13","2.0.0","3674489","15","<div class=""flex flex-row stim-length pb-8 md:pd-20 justify-evenly items-center""><div class=""circle""></div><div class=""circle""></div><div class=""circle""></div></div>","p","","matchness_practice","match","圆","p","true","match"
"","null","html-keynbutton-response","14","2.0.0","3674991","15","<span class='text-green-400 text-4xl md:text-5xl lg:text-6xl'>正确!</span>","null","trial_feedback","","","","","",""
"","null","html-keynbutton-response","15","2.0.0","3675506","15","<div class=""pb-14 text-7xl"">+</div>","null","fixation","","","","","",""
"","1223","html-keynbutton-response","16","2.0.0","3676729","15","<div class=""flex flex-row stim-length pb-8 md:pd-20 justify-evenly items-center""><div class=""square""></div><div class=""square""></div><div class=""square""></div></div>","p","","matchness_practice","match","方","p","true","match"
"","null","html-keynbutton-response","17","2.0.0","3677239","15","<span class='text-green-400 text-4xl md:text-5xl lg:text-6xl'>正确!</span>","null","trial_feedback","","","","","",""
"","null","html-keynbutton-response","18","2.0.0","3677741","15","<div class=""pb-14 text-7xl"">+</div>","null","fixation","","","","","",""
"","987","html-keynbutton-response","19","2.0.0","3678729","15","<div class=""flex flex-row stim-length pb-8 md:pd-20 justify-evenly items-center""><div class=""square""></div><div class=""circle""></div><div class=""square""></div></div>","q","","matchness_practice","mismatch","圆","q","true","mismatch"
"","null","html-keynbutton-response","20","2.0.0","3679239","15","<span class='text-green-400 text-4xl md:text-5xl lg:text-6xl'>正确!</span>","null","trial_feedback","","","","","",""
"","null","html-keynbutton-response","21","2.0.0","3679741","15","<div class=""pb-14 text-7xl"">+</div>","null","fixation","","","","","",""
"","1372","html-keynbutton-response","22","2.0.0","3681113","15","<div class=""flex flex-row stim-length pb-8 md:pd-20 justify-evenly items-center""><div class=""circle""></div><div class=""square""></div><div class=""circle""></div></div>","q","","matchness_practice","mismatch","方","q","true","mismatch"
"","null","html-keynbutton-response","23","2.0.0","3681617","15","<span class='text-green-400 text-4xl md:text-5xl lg:text-6xl'>正确!</span>","null","trial_feedback","","","","","",""
"","null","html-keynbutton-response","24","2.0.0","3682124","15","<div class=""pb-14 text-7xl"">+</div>","null","fixation","","","","","",""
"","732","html-keynbutton-response","25","2.0.0","3682857","15","<div class=""flex flex-row stim-length pb-8 md:pd-20 justify-evenly items-center""><div class=""circle""></div><div class=""circle""></div><div class=""circle""></div></div>","p","","matchness_practice","match","圆","p","true","match"
"","null","html-keynbutton-response","26","2.0.0","3683373","15","<span class='text-green-400 text-4xl md:text-5xl lg:text-6xl'>正确!</span>","null","trial_feedback","","","","","",""
"","null","html-keynbutton-response","27","2.0.0","3683889","15","<div class=""pb-14 text-7xl"">+</div>","null","fixation","","","","","",""
"","1351","html-keynbutton-response","28","2.0.0","3685241","15","<div class=""flex flex-row stim-length pb-8 md:pd-20 justify-evenly items-center""><div class=""square""></div><div class=""circle""></div><div class=""square""></div></div>","q","","matchness_practice","mismatch","圆","q","true","mismatch"
"","null","html-keynbutton-response","29","2.0.0","3685757","15","<span class='text-green-400 text-4xl md:text-5xl lg:text-6xl'>正确!</span>","null","trial_feedback","","","","","",""
"","null","html-keynbutton-response","30","2.0.0","3686274","15","<div class=""pb-14 text-7xl"">+</div>","null","fixation","","","","","",""
"","1623","html-keynbutton-response","31","2.0.0","3687887","15","<div class=""flex flex-row stim-length pb-8 md:pd-20 justify-evenly items-center""><div class=""square""></div><div class=""square""></div><div class=""square""></div></div>","p","","matchness_practice","match","方","p","true","match"
"","null","html-keynbutton-response","32","2.0.0","3688396","15","<span class='text-yellow-500 text-4xl md:text-5xl lg:text-6xl'>太慢!</span>","null","trial_feedback","","","","","",""
"","null","html-keynbutton-response","33","2.0.0","3688897","15","<div class=""pb-14 text-7xl"">+</div>","null","fixation","","","","","",""
"","830","html-keynbutton-response","34","2.0.0","3689728","15","<div class=""flex flex-row stim-length pb-8 md:pd-20 justify-evenly items-center""><div class=""circle""></div><div class=""square""></div><div class=""circle""></div></div>","q","","matchness_practice","mismatch","方","q","true","mismatch"
"","null","html-keynbutton-response","35","2.0.0","3690231","15","<span class='text-green-400 text-4xl md:text-5xl lg:text-6xl'>正确!</span>","null","trial_feedback","","","","","",""
"","null","html-keynbutton-response","36","2.0.0","3690747","15","<div class=""pb-14 text-7xl"">+</div>","null","fixation","","","","","",""
"","563","html-keynbutton-response","37","2.0.0","3691311","15","<div class=""flex flex-row stim-length pb-8 md:pd-20 justify-evenly items-center""><div class=""circle""></div><div class=""circle""></div><div class=""circle""></div></div>","p","","matchness_practice","match","圆","p","true","match"
"","null","html-keynbutton-response","38","2.0.0","3691814","15","<span class='text-green-400 text-4xl md:text-5xl lg:text-6xl'>正确!</span>","null","trial_feedback","","","","","",""
"","null","html-keynbutton-response","39","2.0.0","3692330","15","<div class=""pb-14 text-7xl"">+</div>","null","fixation","","","","","",""
"","612","html-keynbutton-response","40","2.0.0","3692943","15","<div class=""flex flex-row stim-length pb-8 md:pd-20 justify-evenly items-center""><div class=""circle""></div><div class=""square""></div><div class=""circle""></div></div>","q","","matchness_practice","mismatch","方","q","true","mismatch"
"","null","html-keynbutton-response","41","2.0.0","3693447","15","<span class='text-green-400 text-4xl md:text-5xl lg:text-6xl'>正确!</span>","null","trial_feedback","","","","","",""
"","null","html-keynbutton-response","42","2.0.0","3693963","15","<div class=""pb-14 text-7xl"">+</div>","null","fixation","","","","","",""
"","420","html-keynbutton-response","43","2.0.0","3694383","15","<div class=""flex flex-row stim-length pb-8 md:pd-20 justify-evenly items-center""><div class=""square""></div><div class=""square""></div><div class=""square""></div></div>","p","","matchness_practice","match","方","p","true","match"
"","null","html-keynbutton-response","44","2.0.0","3694896","15","<span class='text-green-400 text-4xl md:text-5xl lg:text-6xl'>正确!</span>","null","trial_feedback","","","","","",""
"","null","html-keynbutton-response","45","2.0.0","3695413","15","<div class=""pb-14 text-7xl"">+</div>","null","fixation","","","","","",""
"","585","html-keynbutton-response","46","2.0.0","3695999","15","<div class=""flex flex-row stim-length pb-8 md:pd-20 justify-evenly items-center""><div class=""square""></div><div class=""circle""></div><div class=""square""></div></div>","q","","matchness_practice","mismatch","圆","q","true","mismatch"
"","null","html-keynbutton-response","47","2.0.0","3696513","15","<span class='text-green-400 text-4xl md:text-5xl lg:text-6xl'>正确!</span>","null","trial_feedback","","","","","",""
"","null","html-keynbutton-response","48","2.0.0","3697014","15","<div class=""pb-14 text-7xl"">+</div>","null","fixation","","","","","",""
"","552","html-keynbutton-response","49","2.0.0","3697567","15","<div class=""flex flex-row stim-length pb-8 md:pd-20 justify-evenly items-center""><div class=""circle""></div><div class=""circle""></div><div class=""circle""></div></div>","p","","matchness_practice","match","圆","p","true","match"
"","null","html-keynbutton-response","50","2.0.0","3698079","15","<span class='text-green-400 text-4xl md:text-5xl lg:text-6xl'>正确!</span>","null","trial_feedback","","","","","",""
"","null","html-keynbutton-response","51","2.0.0","3698581","15","<div class=""pb-14 text-7xl"">+</div>","null","fixation","","","","","",""
"","905","html-keynbutton-response","52","2.0.0","3699487","15","<div class=""flex flex-row stim-length pb-8 md:pd-20 justify-evenly items-center""><div class=""circle""></div><div class=""square""></div><div class=""circle""></div></div>","q","","matchness_practice","mismatch","方","q","true","mismatch"
"","null","html-keynbutton-response","53","2.0.0","3699996","15","<span class='text-green-400 text-4xl md:text-5xl lg:text-6xl'>正确!</span>","null","trial_feedback","","","","","",""
"","null","html-keynbutton-response","54","2.0.0","3700503","15","<div class=""pb-14 text-7xl"">+</div>","null","fixation","","","","","",""
"","1079","html-keynbutton-response","55","2.0.0","3701583","15","<div class=""flex flex-row stim-length pb-8 md:pd-20 justify-evenly items-center""><div class=""square""></div><div class=""circle""></div><div class=""square""></div></div>","q","","matchness_practice","mismatch","圆","q","true","mismatch"
"","null","html-keynbutton-response","56","2.0.0","3702097","15","<span class='text-green-400 text-4xl md:text-5xl lg:text-6xl'>正确!</span>","null","trial_feedback","","","","","",""
"","null","html-keynbutton-response","57","2.0.0","3702613","15","<div class=""pb-14 text-7xl"">+</div>","null","fixation","","","","","",""
"","521","html-keynbutton-response","58","2.0.0","3703135","15","<div class=""flex flex-row stim-length pb-8 md:pd-20 justify-evenly items-center""><div class=""square""></div><div class=""square""></div><div class=""square""></div></div>","p","","matchness_practice","match","方","p","true","match"
"","null","html-keynbutton-response","59","2.0.0","3703646","15","<span class='text-green-400 text-4xl md:text-5xl lg:text-6xl'>正确!</span>","null","trial_feedback","","","","","",""
"","null","html-keynbutton-response","60","2.0.0","3704148","15","<div class=""pb-14 text-7xl"">+</div>","null","fixation","","","","","",""
"","891","html-keynbutton-response","61","2.0.0","3705039","15","<div class=""flex flex-row stim-length pb-8 md:pd-20 justify-evenly items-center""><div class=""circle""></div><div class=""circle""></div><div class=""circle""></div></div>","p","","matchness_practice","match","圆","p","true","match"
"","null","html-keynbutton-response","62","2.0.0","3705548","15","<span class='text-green-400 text-4xl md:text-5xl lg:text-6xl'>正确!</span>","null","trial_feedback","","","","","",""
"","3239","html-keynbutton-response","64","2.0.0","3708791","15","<div class=""jp"">
    <p>您的正确率是：95%</p>
    <p>您的平均反应时间是：913毫秒</p></div>"," ","block_feedback","","","","","",""
"","1671","html-keynbutton-response","65","2.0.0","3710463","15","
        <div class=""jp px-2 xxs:px-5 mx-auto"">
        <p class=""text-center text-red-600 text-[1.2em] pb-5"">练习结束，现在开始正式实验</p>
        <p>请注意：正式实验中将不再会呈现反馈。</p>
        </div>
        "," ","","","","","","",""
"","null","html-keynbutton-response","66","2.0.0","3713677","15","<count-down title=""""></count-down>","null","countDown_trial","","","","","",""
"","null","html-keynbutton-response","67","2.0.0","3714181","15","<div class=""pb-14 text-7xl"">+</div>","null","fixation","","","","","",""
"","874","html-keynbutton-response","68","2.0.0","3715055","15","<div class=""flex flex-row stim-length pb-8 md:pd-20 justify-evenly items-center""><div class=""circle""></div><div class=""circle""></div><div class=""circle""></div></div>","p","","matchness_test","match","圆","p","true","match"
"","null","html-keynbutton-response","69","2.0.0","3715564","15","<div class=""pb-14 text-7xl"">+</div>","null","fixation","","","","","",""
"","625","html-keynbutton-response","70","2.0.0","3716190","15","<div class=""flex flex-row stim-length pb-8 md:pd-20 justify-evenly items-center""><div class=""square""></div><div class=""square""></div><div class=""square""></div></div>","p","","matchness_test","match","方","p","true","match"
"","null","html-keynbutton-response","71","2.0.0","3716697","15","<div class=""pb-14 text-7xl"">+</div>","null","fixation","","","","","",""
"","533","html-keynbutton-response","72","2.0.0","3717230","15","<div class=""flex flex-row stim-length pb-8 md:pd-20 justify-evenly items-center""><div class=""circle""></div><div class=""square""></div><div class=""circle""></div></div>","q","","matchness_test","mismatch","方","q","true","mismatch"
"","null","html-keynbutton-response","73","2.0.0","3717731","15","<div class=""pb-14 text-7xl"">+</div>","null","fixation","","","","","",""
"","555","html-keynbutton-response","74","2.0.0","3718287","15","<div class=""flex flex-row stim-length pb-8 md:pd-20 justify-evenly items-center""><div class=""square""></div><div class=""circle""></div><div class=""square""></div></div>","q","","matchness_test","mismatch","圆","q","true","mismatch"
"","null","html-keynbutton-response","75","2.0.0","3718796","15","<div class=""pb-14 text-7xl"">+</div>","null","fixation","","","","","",""
"","531","html-keynbutton-response","76","2.0.0","3719327","15","<div class=""flex flex-row stim-length pb-8 md:pd-20 justify-evenly items-center""><div class=""circle""></div><div class=""square""></div><div class=""circle""></div></div>","q","","matchness_test","mismatch","方","q","true","mismatch"
"","null","html-keynbutton-response","77","2.0.0","3719830","15","<div class=""pb-14 text-7xl"">+</div>","null","fixation","","","","","",""
"","520","html-keynbutton-response","78","2.0.0","3720351","15","<div class=""flex flex-row stim-length pb-8 md:pd-20 justify-evenly items-center""><div class=""square""></div><div class=""square""></div><div class=""square""></div></div>","p","","matchness_test","match","方","p","true","match"
"","null","html-keynbutton-response","79","2.0.0","3720863","15","<div class=""pb-14 text-7xl"">+</div>","null","fixation","","","","","",""
"","655","html-keynbutton-response","80","2.0.0","3721519","15","<div class=""flex flex-row stim-length pb-8 md:pd-20 justify-evenly items-center""><div class=""square""></div><div class=""circle""></div><div class=""square""></div></div>","q","","matchness_test","mismatch","圆","q","true","mismatch"
"","null","html-keynbutton-response","81","2.0.0","3722029","15","<div class=""pb-14 text-7xl"">+</div>","null","fixation","","","","","",""
"","465","html-keynbutton-response","82","2.0.0","3722495","15","<div class=""flex flex-row stim-length pb-8 md:pd-20 justify-evenly items-center""><div class=""circle""></div><div class=""circle""></div><div class=""circle""></div></div>","p","","matchness_test","match","圆","p","true","match"
"","null","html-keynbutton-response","83","2.0.0","3722997","15","<div class=""pb-14 text-7xl"">+</div>","null","fixation","","","","","",""
"","937","html-keynbutton-response","84","2.0.0","3723935","15","<div class=""flex flex-row stim-length pb-8 md:pd-20 justify-evenly items-center""><div class=""square""></div><div class=""circle""></div><div class=""square""></div></div>","q","","matchness_test","mismatch","圆","q","true","mismatch"
"","null","html-keynbutton-response","85","2.0.0","3724446","15","<div class=""pb-14 text-7xl"">+</div>","null","fixation","","","","","",""
"","464","html-keynbutton-response","86","2.0.0","3724911","15","<div class=""flex flex-row stim-length pb-8 md:pd-20 justify-evenly items-center""><div class=""square""></div><div class=""square""></div><div class=""square""></div></div>","p","","matchness_test","match","方","p","true","match"
"","null","html-keynbutton-response","87","2.0.0","3725414","15","<div class=""pb-14 text-7xl"">+</div>","null","fixation","","","","","",""
"","1192","html-keynbutton-response","88","2.0.0","3726607","15","<div class=""flex flex-row stim-length pb-8 md:pd-20 justify-evenly items-center""><div class=""circle""></div><div class=""square""></div><div class=""circle""></div></div>","p","","matchness_test","mismatch","方","q","false","match"
"","null","html-keynbutton-response","89","2.0.0","3727114","15","<div class=""pb-14 text-7xl"">+</div>","null","fixation","","","","","",""
"","516","html-keynbutton-response","90","2.0.0","3727631","15","<div class=""flex flex-row stim-length pb-8 md:pd-20 justify-evenly items-center""><div class=""circle""></div><div class=""circle""></div><div class=""circle""></div></div>","p","","matchness_test","match","圆","p","true","match"
"","null","html-keynbutton-response","91","2.0.0","3728146","15","<div class=""pb-14 text-7xl"">+</div>","null","fixation","","","","","",""
"","797","html-keynbutton-response","92","2.0.0","3728943","15","<div class=""flex flex-row stim-length pb-8 md:pd-20 justify-evenly items-center""><div class=""circle""></div><div class=""circle""></div><div class=""circle""></div></div>","p","","matchness_test","match","圆","p","true","match"
"","null","html-keynbutton-response","93","2.0.0","3729447","15","<div class=""pb-14 text-7xl"">+</div>","null","fixation","","","","","",""
"","615","html-keynbutton-response","94","2.0.0","3730063","15","<div class=""flex flex-row stim-length pb-8 md:pd-20 justify-evenly items-center""><div class=""square""></div><div class=""circle""></div><div class=""square""></div></div>","q","","matchness_test","mismatch","圆","q","true","mismatch"
"","null","html-keynbutton-response","95","2.0.0","3730579","15","<div class=""pb-14 text-7xl"">+</div>","null","fixation","","","","","",""
"","683","html-keynbutton-response","96","2.0.0","3731263","15","<div class=""flex flex-row stim-length pb-8 md:pd-20 justify-evenly items-center""><div class=""circle""></div><div class=""square""></div><div class=""circle""></div></div>","q","","matchness_test","mismatch","方","q","true","mismatch"
"","null","html-keynbutton-response","97","2.0.0","3731779","15","<div class=""pb-14 text-7xl"">+</div>","null","fixation","","","","","",""
"","619","html-keynbutton-response","98","2.0.0","3732399","15","<div class=""flex flex-row stim-length pb-8 md:pd-20 justify-evenly items-center""><div class=""square""></div><div class=""square""></div><div class=""square""></div></div>","p","","matchness_test","match","方","p","true","match"
"","null","html-keynbutton-response","99","2.0.0","3732913","15","<div class=""pb-14 text-7xl"">+</div>","null","fixation","","","","","",""
"","605","html-keynbutton-response","100","2.0.0","3733519","15","<div class=""flex flex-row stim-length pb-8 md:pd-20 justify-evenly items-center""><div class=""circle""></div><div class=""circle""></div><div class=""circle""></div></div>","p","","matchness_test","match","圆","p","true","match"
"","null","html-keynbutton-response","101","2.0.0","3734029","15","<div class=""pb-14 text-7xl"">+</div>","null","fixation","","","","","",""
"","753","html-keynbutton-response","102","2.0.0","3734783","15","<div class=""flex flex-row stim-length pb-8 md:pd-20 justify-evenly items-center""><div class=""square""></div><div class=""square""></div><div class=""square""></div></div>","p","","matchness_test","match","方","p","true","match"
"","null","html-keynbutton-response","103","2.0.0","3735285","15","<div class=""pb-14 text-7xl"">+</div>","null","fixation","","","","","",""
"","489","html-keynbutton-response","104","2.0.0","3735775","15","<div class=""flex flex-row stim-length pb-8 md:pd-20 justify-evenly items-center""><div class=""square""></div><div class=""circle""></div><div class=""square""></div></div>","q","","matchness_test","mismatch","圆","q","true","mismatch"
"","null","html-keynbutton-response","105","2.0.0","3736285","15","<div class=""pb-14 text-7xl"">+</div>","null","fixation","","","","","",""
"","561","html-keynbutton-response","106","2.0.0","3736847","15","<div class=""flex flex-row stim-length pb-8 md:pd-20 justify-evenly items-center""><div class=""circle""></div><div class=""square""></div><div class=""circle""></div></div>","q","","matchness_test","mismatch","方","q","true","mismatch"
"","null","html-keynbutton-response","107","2.0.0","3737351","15","<div class=""pb-14 text-7xl"">+</div>","null","fixation","","","","","",""
"","504","html-keynbutton-response","108","2.0.0","3737855","15","<div class=""flex flex-row stim-length pb-8 md:pd-20 justify-evenly items-center""><div class=""square""></div><div class=""circle""></div><div class=""square""></div></div>","q","","matchness_test","mismatch","圆","q","true","mismatch"
"","null","html-keynbutton-response","109","2.0.0","3738371","15","<div class=""pb-14 text-7xl"">+</div>","null","fixation","","","","","",""
"","475","html-keynbutton-response","110","2.0.0","3738847","15","<div class=""flex flex-row stim-length pb-8 md:pd-20 justify-evenly items-center""><div class=""circle""></div><div class=""circle""></div><div class=""circle""></div></div>","p","","matchness_test","match","圆","p","true","match"
"","null","html-keynbutton-response","111","2.0.0","3739354","15","<div class=""pb-14 text-7xl"">+</div>","null","fixation","","","","","",""
"","724","html-keynbutton-response","112","2.0.0","3740079","15","<div class=""flex flex-row stim-length pb-8 md:pd-20 justify-evenly items-center""><div class=""circle""></div><div class=""square""></div><div class=""circle""></div></div>","q","","matchness_test","mismatch","方","q","true","mismatch"
"","null","html-keynbutton-response","113","2.0.0","3740582","15","<div class=""pb-14 text-7xl"">+</div>","null","fixation","","","","","",""
"","440","html-keynbutton-response","114","2.0.0","3741023","15","<div class=""flex flex-row stim-length pb-8 md:pd-20 justify-evenly items-center""><div class=""square""></div><div class=""square""></div><div class=""square""></div></div>","p","","matchness_test","match","方","p","true","match"
"","null","html-keynbutton-response","115","2.0.0","3741530","15","<div class=""pb-14 text-7xl"">+</div>","null","fixation","","","","","",""
"","500","html-keynbutton-response","116","2.0.0","3742031","15","<div class=""flex flex-row stim-length pb-8 md:pd-20 justify-evenly items-center""><div class=""square""></div><div class=""circle""></div><div class=""square""></div></div>","q","","matchness_test","mismatch","圆","q","true","mismatch"
"","null","html-keynbutton-response","117","2.0.0","3742547","15","<div class=""pb-14 text-7xl"">+</div>","null","fixation","","","","","",""
"","571","html-keynbutton-response","118","2.0.0","3743119","15","<div class=""flex flex-row stim-length pb-8 md:pd-20 justify-evenly items-center""><div class=""circle""></div><div class=""square""></div><div class=""circle""></div></div>","q","","matchness_test","mismatch","方","q","true","mismatch"
"","null","html-keynbutton-response","119","2.0.0","3743630","15","<div class=""pb-14 text-7xl"">+</div>","null","fixation","","","","","",""
"","529","html-keynbutton-response","120","2.0.0","3744159","15","<div class=""flex flex-row stim-length pb-8 md:pd-20 justify-evenly items-center""><div class=""circle""></div><div class=""circle""></div><div class=""circle""></div></div>","p","","matchness_test","match","圆","p","true","match"
"","null","html-keynbutton-response","121","2.0.0","3744665","15","<div class=""pb-14 text-7xl"">+</div>","null","fixation","","","","","",""
"","741","html-keynbutton-response","122","2.0.0","3745407","15","<div class=""flex flex-row stim-length pb-8 md:pd-20 justify-evenly items-center""><div class=""square""></div><div class=""square""></div><div class=""square""></div></div>","p","","matchness_test","match","方","p","true","match"
"","null","html-keynbutton-response","123","2.0.0","3745914","15","<div class=""pb-14 text-7xl"">+</div>","null","fixation","","","","","",""
"","996","html-keynbutton-response","124","2.0.0","3746911","15","<div class=""flex flex-row stim-length pb-8 md:pd-20 justify-evenly items-center""><div class=""square""></div><div class=""circle""></div><div class=""square""></div></div>","q","","matchness_test","mismatch","圆","q","true","mismatch"
"","null","html-keynbutton-response","125","2.0.0","3747418","15","<div class=""pb-14 text-7xl"">+</div>","null","fixation","","","","","",""
"","660","html-keynbutton-response","126","2.0.0","3748088","15","<div class=""flex flex-row stim-length pb-8 md:pd-20 justify-evenly items-center""><div class=""circle""></div><div class=""square""></div><div class=""circle""></div></div>","q","","matchness_test","mismatch","方","q","true","mismatch"
"","null","html-keynbutton-response","127","2.0.0","3748589","15","<div class=""pb-14 text-7xl"">+</div>","null","fixation","","","","","",""
"","537","html-keynbutton-response","128","2.0.0","3749128","15","<div class=""flex flex-row stim-length pb-8 md:pd-20 justify-evenly items-center""><div class=""square""></div><div class=""square""></div><div class=""square""></div></div>","p","","matchness_test","match","方","p","true","match"
"","null","html-keynbutton-response","129","2.0.0","3749638","15","<div class=""pb-14 text-7xl"">+</div>","null","fixation","","","","","",""
"","481","html-keynbutton-response","130","2.0.0","3750120","15","<div class=""flex flex-row stim-length pb-8 md:pd-20 justify-evenly items-center""><div class=""circle""></div><div class=""circle""></div><div class=""circle""></div></div>","q","","matchness_test","match","圆","p","false","mismatch"
"","null","html-keynbutton-response","131","2.0.0","3750623","15","<div class=""pb-14 text-7xl"">+</div>","null","fixation","","","","","",""
"","952","html-keynbutton-response","132","2.0.0","3751575","15","<div class=""flex flex-row stim-length pb-8 md:pd-20 justify-evenly items-center""><div class=""circle""></div><div class=""circle""></div><div class=""circle""></div></div>","p","","matchness_test","match","圆","p","true","match"
"","null","html-keynbutton-response","133","2.0.0","3752089","15","<div class=""pb-14 text-7xl"">+</div>","null","fixation","","","","","",""
"","782","html-keynbutton-response","134","2.0.0","3752872","15","<div class=""flex flex-row stim-length pb-8 md:pd-20 justify-evenly items-center""><div class=""circle""></div><div class=""square""></div><div class=""circle""></div></div>","q","","matchness_test","mismatch","方","q","true","mismatch"
"","null","html-keynbutton-response","135","2.0.0","3753388","15","<div class=""pb-14 text-7xl"">+</div>","null","fixation","","","","","",""
"","860","html-keynbutton-response","136","2.0.0","3754248","15","<div class=""flex flex-row stim-length pb-8 md:pd-20 justify-evenly items-center""><div class=""square""></div><div class=""square""></div><div class=""square""></div></div>","p","","matchness_test","match","方","p","true","match"
"","null","html-keynbutton-response","137","2.0.0","3754757","15","<div class=""pb-14 text-7xl"">+</div>","null","fixation","","","","","",""
"","626","html-keynbutton-response","138","2.0.0","3755384","15","<div class=""flex flex-row stim-length pb-8 md:pd-20 justify-evenly items-center""><div class=""square""></div><div class=""circle""></div><div class=""square""></div></div>","q","","matchness_test","mismatch","圆","q","true","mismatch"
"","null","html-keynbutton-response","139","2.0.0","3755891","15","<div class=""pb-14 text-7xl"">+</div>","null","fixation","","","","","",""
"","692","html-keynbutton-response","140","2.0.0","3756584","15","<div class=""flex flex-row stim-length pb-8 md:pd-20 justify-evenly items-center""><div class=""square""></div><div class=""square""></div><div class=""square""></div></div>","p","","matchness_test","match","方","p","true","match"
"","null","html-keynbutton-response","141","2.0.0","3757090","15","<div class=""pb-14 text-7xl"">+</div>","null","fixation","","","","","",""
"","581","html-keynbutton-response","142","2.0.0","3757672","15","<div class=""flex flex-row stim-length pb-8 md:pd-20 justify-evenly items-center""><div class=""circle""></div><div class=""circle""></div><div class=""circle""></div></div>","p","","matchness_test","match","圆","p","true","match"
"","null","html-keynbutton-response","143","2.0.0","3758173","15","<div class=""pb-14 text-7xl"">+</div>","null","fixation","","","","","",""
"","634","html-keynbutton-response","144","2.0.0","3758808","15","<div class=""flex flex-row stim-length pb-8 md:pd-20 justify-evenly items-center""><div class=""circle""></div><div class=""square""></div><div class=""circle""></div></div>","q","","matchness_test","mismatch","方","q","true","mismatch"
"","null","html-keynbutton-response","145","2.0.0","3759321","15","<div class=""pb-14 text-7xl"">+</div>","null","fixation","","","","","",""
"","718","html-keynbutton-response","146","2.0.0","3760040","15","<div class=""flex flex-row stim-length pb-8 md:pd-20 justify-evenly items-center""><div class=""square""></div><div class=""circle""></div><div class=""square""></div></div>","q","","matchness_test","mismatch","圆","q","true","mismatch"
"","4661","html-keynbutton-response","147","2.0.0","3764703","15","<div class=""jp""><p>您已完成1/10部分</p><p>请休息一会儿</p>
    <p>您的正确率是：95%</p>
    <p>您的平均反应时间是：650毫秒</p></div>"," ","block_feedback","","","","","",""
"","null","html-keynbutton-response","148","2.0.0","3767919","15","<count-down title=""""></count-down>","null","countDown_trial","","","","","",""
"","null","html-keynbutton-response","149","2.0.0","3768423","15","<div class=""pb-14 text-7xl"">+</div>","null","fixation","","","","","",""
"","704","html-keynbutton-response","150","2.0.0","3769128","15","<div class=""flex flex-row stim-length pb-8 md:pd-20 justify-evenly items-center""><div class=""circle""></div><div class=""circle""></div><div class=""circle""></div></div>","p","","matchness_test_1","match","圆","p","true","match"
"","null","html-keynbutton-response","151","2.0.0","3769638","15","<div class=""pb-14 text-7xl"">+</div>","null","fixation","","","","","",""
"","641","html-keynbutton-response","152","2.0.0","3770280","15","<div class=""flex flex-row stim-length pb-8 md:pd-20 justify-evenly items-center""><div class=""circle""></div><div class=""square""></div><div class=""circle""></div></div>","q","","matchness_test_1","mismatch","方","q","true","mismatch"
"","null","html-keynbutton-response","153","2.0.0","3770789","15","<div class=""pb-14 text-7xl"">+</div>","null","fixation","","","","","",""
"","866","html-keynbutton-response","154","2.0.0","3771656","15","<div class=""flex flex-row stim-length pb-8 md:pd-20 justify-evenly items-center""><div class=""square""></div><div class=""circle""></div><div class=""square""></div></div>","q","","matchness_test_1","mismatch","圆","q","true","mismatch"
"","null","html-keynbutton-response","155","2.0.0","3772171","15","<div class=""pb-14 text-7xl"">+</div>","null","fixation","","","","","",""
"","508","html-keynbutton-response","156","2.0.0","3772680","15","<div class=""flex flex-row stim-length pb-8 md:pd-20 justify-evenly items-center""><div class=""square""></div><div class=""square""></div><div class=""square""></div></div>","p","","matchness_test_1","match","方","p","true","match"
"","null","html-keynbutton-response","157","2.0.0","3773189","15","<div class=""pb-14 text-7xl"">+</div>","null","fixation","","","","","",""
"","771","html-keynbutton-response","158","2.0.0","3773960","15","<div class=""flex flex-row stim-length pb-8 md:pd-20 justify-evenly items-center""><div class=""circle""></div><div class=""square""></div><div class=""circle""></div></div>","q","","matchness_test_1","mismatch","方","q","true","mismatch"
"","null","html-keynbutton-response","159","2.0.0","3774472","15","<div class=""pb-14 text-7xl"">+</div>","null","fixation","","","","","",""
"","399","html-keynbutton-response","160","2.0.0","3774872","15","<div class=""flex flex-row stim-length pb-8 md:pd-20 justify-evenly items-center""><div class=""square""></div><div class=""square""></div><div class=""square""></div></div>","p","","matchness_test_1","match","方","p","true","match"
"","null","html-keynbutton-response","161","2.0.0","3775388","15","<div class=""pb-14 text-7xl"">+</div>","null","fixation","","","","","",""
"","571","html-keynbutton-response","162","2.0.0","3775960","15","<div class=""flex flex-row stim-length pb-8 md:pd-20 justify-evenly items-center""><div class=""circle""></div><div class=""circle""></div><div class=""circle""></div></div>","p","","matchness_test_1","match","圆","p","true","match"
"","null","html-keynbutton-response","163","2.0.0","3776472","15","<div class=""pb-14 text-7xl"">+</div>","null","fixation","","","","","",""
"","511","html-keynbutton-response","164","2.0.0","3776983","15","<div class=""flex flex-row stim-length pb-8 md:pd-20 justify-evenly items-center""><div class=""square""></div><div class=""circle""></div><div class=""square""></div></div>","q","","matchness_test_1","mismatch","圆","q","true","mismatch"
"","null","html-keynbutton-response","165","2.0.0","3777489","15","<div class=""pb-14 text-7xl"">+</div>","null","fixation","","","","","",""
"","1081","html-keynbutton-response","166","2.0.0","3778570","15","<div class=""flex flex-row stim-length pb-8 md:pd-20 justify-evenly items-center""><div class=""square""></div><div class=""circle""></div><div class=""square""></div></div>","q","","matchness_test_1","mismatch","圆","q","true","mismatch"
"","null","html-keynbutton-response","167","2.0.0","3779073","15","<div class=""pb-14 text-7xl"">+</div>","null","fixation","","","","","",""
"","518","html-keynbutton-response","168","2.0.0","3779592","15","<div class=""flex flex-row stim-length pb-8 md:pd-20 justify-evenly items-center""><div class=""circle""></div><div class=""square""></div><div class=""circle""></div></div>","q","","matchness_test_1","mismatch","方","q","true","mismatch"
"","null","html-keynbutton-response","169","2.0.0","3780105","15","<div class=""pb-14 text-7xl"">+</div>","null","fixation","","","","","",""
"","622","html-keynbutton-response","170","2.0.0","3780728","15","<div class=""flex flex-row stim-length pb-8 md:pd-20 justify-evenly items-center""><div class=""square""></div><div class=""square""></div><div class=""square""></div></div>","p","","matchness_test_1","match","方","p","true","match"
"","null","html-keynbutton-response","171","2.0.0","3781237","15","<div class=""pb-14 text-7xl"">+</div>","null","fixation","","","","","",""
"","1442","html-keynbutton-response","172","2.0.0","3782680","15","<div class=""flex flex-row stim-length pb-8 md:pd-20 justify-evenly items-center""><div class=""circle""></div><div class=""circle""></div><div class=""circle""></div></div>","p","","matchness_test_1","match","圆","p","true","match"
"","null","html-keynbutton-response","173","2.0.0","3783192","15","<div class=""pb-14 text-7xl"">+</div>","null","fixation","","","","","",""
"","559","html-keynbutton-response","174","2.0.0","3783752","15","<div class=""flex flex-row stim-length pb-8 md:pd-20 justify-evenly items-center""><div class=""square""></div><div class=""square""></div><div class=""square""></div></div>","p","","matchness_test_1","match","方","p","true","match"
"","null","html-keynbutton-response","175","2.0.0","3784257","15","<div class=""pb-14 text-7xl"">+</div>","null","fixation","","","","","",""
"","454","html-keynbutton-response","176","2.0.0","3784712","15","<div class=""flex flex-row stim-length pb-8 md:pd-20 justify-evenly items-center""><div class=""circle""></div><div class=""circle""></div><div class=""circle""></div></div>","p","","matchness_test_1","match","圆","p","true","match"
"","null","html-keynbutton-response","177","2.0.0","3785222","15","<div class=""pb-14 text-7xl"">+</div>","null","fixation","","","","","",""
"","433","html-keynbutton-response","178","2.0.0","3785656","15","<div class=""flex flex-row stim-length pb-8 md:pd-20 justify-evenly items-center""><div class=""circle""></div><div class=""square""></div><div class=""circle""></div></div>","q","","matchness_test_1","mismatch","方","q","true","mismatch"
"","null","html-keynbutton-response","179","2.0.0","3786160","15","<div class=""pb-14 text-7xl"">+</div>","null","fixation","","","","","",""
"","438","html-keynbutton-response","180","2.0.0","3786599","15","<div class=""flex flex-row stim-length pb-8 md:pd-20 justify-evenly items-center""><div class=""square""></div><div class=""circle""></div><div class=""square""></div></div>","q","","matchness_test_1","mismatch","圆","q","true","mismatch"
"","null","html-keynbutton-response","181","2.0.0","3787106","15","<div class=""pb-14 text-7xl"">+</div>","null","fixation","","","","","",""
"","662","html-keynbutton-response","182","2.0.0","3787768","15","<div class=""flex flex-row stim-length pb-8 md:pd-20 justify-evenly items-center""><div class=""square""></div><div class=""square""></div><div class=""square""></div></div>","p","","matchness_test_1","match","方","p","true","match"
"","null","html-keynbutton-response","183","2.0.0","3788272","15","<div class=""pb-14 text-7xl"">+</div>","null","fixation","","","","","",""
"","695","html-keynbutton-response","184","2.0.0","3788968","15","<div class=""flex flex-row stim-length pb-8 md:pd-20 justify-evenly items-center""><div class=""circle""></div><div class=""circle""></div><div class=""circle""></div></div>","p","","matchness_test_1","match","圆","p","true","match"
"","null","html-keynbutton-response","185","2.0.0","3789474","15","<div class=""pb-14 text-7xl"">+</div>","null","fixation","","","","","",""
"","693","html-keynbutton-response","186","2.0.0","3790168","15","<div class=""flex flex-row stim-length pb-8 md:pd-20 justify-evenly items-center""><div class=""circle""></div><div class=""square""></div><div class=""circle""></div></div>","q","","matchness_test_1","mismatch","方","q","true","mismatch"
"","null","html-keynbutton-response","187","2.0.0","3790683","15","<div class=""pb-14 text-7xl"">+</div>","null","fixation","","","","","",""
"","652","html-keynbutton-response","188","2.0.0","3791336","15","<div class=""flex flex-row stim-length pb-8 md:pd-20 justify-evenly items-center""><div class=""square""></div><div class=""circle""></div><div class=""square""></div></div>","q","","matchness_test_1","mismatch","圆","q","true","mismatch"
"","null","html-keynbutton-response","189","2.0.0","3791840","15","<div class=""pb-14 text-7xl"">+</div>","null","fixation","","","","","",""
"","520","html-keynbutton-response","190","2.0.0","3792360","15","<div class=""flex flex-row stim-length pb-8 md:pd-20 justify-evenly items-center""><div class=""square""></div><div class=""square""></div><div class=""square""></div></div>","p","","matchness_test_1","match","方","p","true","match"
"","null","html-keynbutton-response","191","2.0.0","3792872","15","<div class=""pb-14 text-7xl"">+</div>","null","fixation","","","","","",""
"","831","html-keynbutton-response","192","2.0.0","3793704","15","<div class=""flex flex-row stim-length pb-8 md:pd-20 justify-evenly items-center""><div class=""circle""></div><div class=""circle""></div><div class=""circle""></div></div>","p","","matchness_test_1","match","圆","p","true","match"
"","null","html-keynbutton-response","193","2.0.0","3794206","15","<div class=""pb-14 text-7xl"">+</div>","null","fixation","","","","","",""
"","617","html-keynbutton-response","194","2.0.0","3794824","15","<div class=""flex flex-row stim-length pb-8 md:pd-20 justify-evenly items-center""><div class=""square""></div><div class=""circle""></div><div class=""square""></div></div>","q","","matchness_test_1","mismatch","圆","q","true","mismatch"
"","null","html-keynbutton-response","195","2.0.0","3795339","15","<div class=""pb-14 text-7xl"">+</div>","null","fixation","","","","","",""
"","620","html-keynbutton-response","196","2.0.0","3795959","15","<div class=""flex flex-row stim-length pb-8 md:pd-20 justify-evenly items-center""><div class=""circle""></div><div class=""square""></div><div class=""circle""></div></div>","q","","matchness_test_1","mismatch","方","q","true","mismatch"
"","null","html-keynbutton-response","197","2.0.0","3796472","15","<div class=""pb-14 text-7xl"">+</div>","null","fixation","","","","","",""
"","462","html-keynbutton-response","198","2.0.0","3796935","15","<div class=""flex flex-row stim-length pb-8 md:pd-20 justify-evenly items-center""><div class=""square""></div><div class=""square""></div><div class=""square""></div></div>","p","","matchness_test_1","match","方","p","true","match"
"","null","html-keynbutton-response","199","2.0.0","3797440","15","<div class=""pb-14 text-7xl"">+</div>","null","fixation","","","","","",""
"","951","html-keynbutton-response","200","2.0.0","3798392","15","<div class=""flex flex-row stim-length pb-8 md:pd-20 justify-evenly items-center""><div class=""circle""></div><div class=""square""></div><div class=""circle""></div></div>","q","","matchness_test_1","mismatch","方","q","true","mismatch"
"","null","html-keynbutton-response","201","2.0.0","3798905","15","<div class=""pb-14 text-7xl"">+</div>","null","fixation","","","","","",""
"","494","html-keynbutton-response","202","2.0.0","3799400","15","<div class=""flex flex-row stim-length pb-8 md:pd-20 justify-evenly items-center""><div class=""circle""></div><div class=""circle""></div><div class=""circle""></div></div>","p","","matchness_test_1","match","圆","p","true","match"
"","null","html-keynbutton-response","203","2.0.0","3799906","15","<div class=""pb-14 text-7xl"">+</div>","null","fixation","","","","","",""
"","549","html-keynbutton-response","204","2.0.0","3800456","15","<div class=""flex flex-row stim-length pb-8 md:pd-20 justify-evenly items-center""><div class=""square""></div><div class=""circle""></div><div class=""square""></div></div>","q","","matchness_test_1","mismatch","圆","q","true","mismatch"
"","null","html-keynbutton-response","205","2.0.0","3800971","15","<div class=""pb-14 text-7xl"">+</div>","null","fixation","","","","","",""
"","668","html-keynbutton-response","206","2.0.0","3801640","15","<div class=""flex flex-row stim-length pb-8 md:pd-20 justify-evenly items-center""><div class=""square""></div><div class=""square""></div><div class=""square""></div></div>","p","","matchness_test_1","match","方","p","true","match"
"","null","html-keynbutton-response","207","2.0.0","3802155","15","<div class=""pb-14 text-7xl"">+</div>","null","fixation","","","","","",""
"","1132","html-keynbutton-response","208","2.0.0","3803288","15","<div class=""flex flex-row stim-length pb-8 md:pd-20 justify-evenly items-center""><div class=""circle""></div><div class=""square""></div><div class=""circle""></div></div>","q","","matchness_test_1","mismatch","方","q","true","mismatch"
"","null","html-keynbutton-response","209","2.0.0","3803790","15","<div class=""pb-14 text-7xl"">+</div>","null","fixation","","","","","",""
"","393","html-keynbutton-response","210","2.0.0","3804183","15","<div class=""flex flex-row stim-length pb-8 md:pd-20 justify-evenly items-center""><div class=""circle""></div><div class=""circle""></div><div class=""circle""></div></div>","p","","matchness_test_1","match","圆","p","true","match"
"","null","html-keynbutton-response","211","2.0.0","3804690","15","<div class=""pb-14 text-7xl"">+</div>","null","fixation","","","","","",""
"","549","html-keynbutton-response","212","2.0.0","3805240","15","<div class=""flex flex-row stim-length pb-8 md:pd-20 justify-evenly items-center""><div class=""square""></div><div class=""circle""></div><div class=""square""></div></div>","q","","matchness_test_1","mismatch","圆","q","true","mismatch"
"","null","html-keynbutton-response","213","2.0.0","3805756","15","<div class=""pb-14 text-7xl"">+</div>","null","fixation","","","","","",""
"","764","html-keynbutton-response","214","2.0.0","3806520","15","<div class=""flex flex-row stim-length pb-8 md:pd-20 justify-evenly items-center""><div class=""circle""></div><div class=""square""></div><div class=""circle""></div></div>","q","","matchness_test_1","mismatch","方","q","true","mismatch"
"","null","html-keynbutton-response","215","2.0.0","3807024","15","<div class=""pb-14 text-7xl"">+</div>","null","fixation","","","","","",""
"","504","html-keynbutton-response","216","2.0.0","3807528","15","<div class=""flex flex-row stim-length pb-8 md:pd-20 justify-evenly items-center""><div class=""circle""></div><div class=""circle""></div><div class=""circle""></div></div>","p","","matchness_test_1","match","圆","p","true","match"
"","null","html-keynbutton-response","217","2.0.0","3808039","15","<div class=""pb-14 text-7xl"">+</div>","null","fixation","","","","","",""
"","1056","html-keynbutton-response","218","2.0.0","3809096","15","<div class=""flex flex-row stim-length pb-8 md:pd-20 justify-evenly items-center""><div class=""square""></div><div class=""circle""></div><div class=""square""></div></div>","q","","matchness_test_1","mismatch","圆","q","true","mismatch"
"","null","html-keynbutton-response","219","2.0.0","3809605","15","<div class=""pb-14 text-7xl"">+</div>","null","fixation","","","","","",""
"","1010","html-keynbutton-response","220","2.0.0","3810616","15","<div class=""flex flex-row stim-length pb-8 md:pd-20 justify-evenly items-center""><div class=""square""></div><div class=""square""></div><div class=""square""></div></div>","p","","matchness_test_1","match","方","p","true","match"
"","null","html-keynbutton-response","221","2.0.0","3811123","15","<div class=""pb-14 text-7xl"">+</div>","null","fixation","","","","","",""
"","693","html-keynbutton-response","222","2.0.0","3811816","15","<div class=""flex flex-row stim-length pb-8 md:pd-20 justify-evenly items-center""><div class=""circle""></div><div class=""circle""></div><div class=""circle""></div></div>","p","","matchness_test_1","match","圆","p","true","match"
"","null","html-keynbutton-response","223","2.0.0","3812323","15","<div class=""pb-14 text-7xl"">+</div>","null","fixation","","","","","",""
"","452","html-keynbutton-response","224","2.0.0","3812776","15","<div class=""flex flex-row stim-length pb-8 md:pd-20 justify-evenly items-center""><div class=""square""></div><div class=""square""></div><div class=""square""></div></div>","p","","matchness_test_1","match","方","p","true","match"
"","null","html-keynbutton-response","225","2.0.0","3813288","15","<div class=""pb-14 text-7xl"">+</div>","null","fixation","","","","","",""
"","527","html-keynbutton-response","226","2.0.0","3813816","15","<div class=""flex flex-row stim-length pb-8 md:pd-20 justify-evenly items-center""><div class=""square""></div><div class=""circle""></div><div class=""square""></div></div>","q","","matchness_test_1","mismatch","圆","q","true","mismatch"
"","null","html-keynbutton-response","227","2.0.0","3814323","15","<div class=""pb-14 text-7xl"">+</div>","null","fixation","","","","","",""
"","564","html-keynbutton-response","228","2.0.0","3814888","15","<div class=""flex flex-row stim-length pb-8 md:pd-20 justify-evenly items-center""><div class=""circle""></div><div class=""square""></div><div class=""circle""></div></div>","q","","matchness_test_1","mismatch","方","q","true","mismatch"
"","2725","html-keynbutton-response","229","2.0.0","3817615","15","<div class=""jp""><p>您已完成2/10部分</p><p>请休息一会儿</p>
    <p>您的正确率是：100%</p>
    <p>您的平均反应时间是：664毫秒</p></div>"," ","block_feedback","","","","","",""
"","null","html-keynbutton-response","230","2.0.0","3820819","15","<count-down title=""""></count-down>","null","countDown_trial","","","","","",""
"","null","html-keynbutton-response","231","2.0.0","3821323","15","<div class=""pb-14 text-7xl"">+</div>","null","fixation","","","","","",""
"","508","html-keynbutton-response","232","2.0.0","3821832","15","<div class=""flex flex-row stim-length pb-8 md:pd-20 justify-evenly items-center""><div class=""circle""></div><div class=""circle""></div><div class=""circle""></div></div>","p","","matchness_test_2","match","圆","p","true","match"
"","null","html-keynbutton-response","233","2.0.0","3822340","15","<div class=""pb-14 text-7xl"">+</div>","null","fixation","","","","","",""
"","771","html-keynbutton-response","234","2.0.0","3823111","15","<div class=""flex flex-row stim-length pb-8 md:pd-20 justify-evenly items-center""><div class=""circle""></div><div class=""square""></div><div class=""circle""></div></div>","q","","matchness_test_2","mismatch","方","q","true","mismatch"
"","null","html-keynbutton-response","235","2.0.0","3823622","15","<div class=""pb-14 text-7xl"">+</div>","null","fixation","","","","","",""
"","561","html-keynbutton-response","236","2.0.0","3824183","15","<div class=""flex flex-row stim-length pb-8 md:pd-20 justify-evenly items-center""><div class=""square""></div><div class=""square""></div><div class=""square""></div></div>","p","","matchness_test_2","match","方","p","true","match"
"","null","html-keynbutton-response","237","2.0.0","3824690","15","<div class=""pb-14 text-7xl"">+</div>","null","fixation","","","","","",""
"","613","html-keynbutton-response","238","2.0.0","3825304","15","<div class=""flex flex-row stim-length pb-8 md:pd-20 justify-evenly items-center""><div class=""square""></div><div class=""circle""></div><div class=""square""></div></div>","q","","matchness_test_2","mismatch","圆","q","true","mismatch"
"","null","html-keynbutton-response","239","2.0.0","3825806","15","<div class=""pb-14 text-7xl"">+</div>","null","fixation","","","","","",""
"","553","html-keynbutton-response","240","2.0.0","3826360","15","<div class=""flex flex-row stim-length pb-8 md:pd-20 justify-evenly items-center""><div class=""square""></div><div class=""circle""></div><div class=""square""></div></div>","q","","matchness_test_2","mismatch","圆","q","true","mismatch"
"","null","html-keynbutton-response","241","2.0.0","3826872","15","<div class=""pb-14 text-7xl"">+</div>","null","fixation","","","","","",""
"","496","html-keynbutton-response","242","2.0.0","3827368","15","<div class=""flex flex-row stim-length pb-8 md:pd-20 justify-evenly items-center""><div class=""circle""></div><div class=""square""></div><div class=""circle""></div></div>","q","","matchness_test_2","mismatch","方","q","true","mismatch"
"","null","html-keynbutton-response","243","2.0.0","3827874","15","<div class=""pb-14 text-7xl"">+</div>","null","fixation","","","","","",""
"","533","html-keynbutton-response","244","2.0.0","3828408","15","<div class=""flex flex-row stim-length pb-8 md:pd-20 justify-evenly items-center""><div class=""square""></div><div class=""square""></div><div class=""square""></div></div>","p","","matchness_test_2","match","方","p","true","match"
"","null","html-keynbutton-response","245","2.0.0","3828911","15","<div class=""pb-14 text-7xl"">+</div>","null","fixation","","","","","",""
"","889","html-keynbutton-response","246","2.0.0","3829800","15","<div class=""flex flex-row stim-length pb-8 md:pd-20 justify-evenly items-center""><div class=""circle""></div><div class=""circle""></div><div class=""circle""></div></div>","p","","matchness_test_2","match","圆","p","true","match"
"","null","html-keynbutton-response","247","2.0.0","3830306","15","<div class=""pb-14 text-7xl"">+</div>","null","fixation","","","","","",""
"","693","html-keynbutton-response","248","2.0.0","3831000","15","<div class=""flex flex-row stim-length pb-8 md:pd-20 justify-evenly items-center""><div class=""square""></div><div class=""circle""></div><div class=""square""></div></div>","q","","matchness_test_2","mismatch","圆","q","true","mismatch"
"","null","html-keynbutton-response","249","2.0.0","3831506","15","<div class=""pb-14 text-7xl"">+</div>","null","fixation","","","","","",""
"","741","html-keynbutton-response","250","2.0.0","3832248","15","<div class=""flex flex-row stim-length pb-8 md:pd-20 justify-evenly items-center""><div class=""circle""></div><div class=""circle""></div><div class=""circle""></div></div>","p","","matchness_test_2","match","圆","p","true","match"
"","null","html-keynbutton-response","251","2.0.0","3832755","15","<div class=""pb-14 text-7xl"">+</div>","null","fixation","","","","","",""
"","660","html-keynbutton-response","252","2.0.0","3833416","15","<div class=""flex flex-row stim-length pb-8 md:pd-20 justify-evenly items-center""><div class=""circle""></div><div class=""square""></div><div class=""circle""></div></div>","q","","matchness_test_2","mismatch","方","q","true","mismatch"
"","null","html-keynbutton-response","253","2.0.0","3833920","15","<div class=""pb-14 text-7xl"">+</div>","null","fixation","","","","","",""
"","455","html-keynbutton-response","254","2.0.0","3834376","15","<div class=""flex flex-row stim-length pb-8 md:pd-20 justify-evenly items-center""><div class=""square""></div><div class=""square""></div><div class=""square""></div></div>","p","","matchness_test_2","match","方","p","true","match"
"","null","html-keynbutton-response","255","2.0.0","3834892","15","<div class=""pb-14 text-7xl"">+</div>","null","fixation","","","","","",""
"","459","html-keynbutton-response","256","2.0.0","3835352","15","<div class=""flex flex-row stim-length pb-8 md:pd-20 justify-evenly items-center""><div class=""square""></div><div class=""square""></div><div class=""square""></div></div>","p","","matchness_test_2","match","方","p","true","match"
"","null","html-keynbutton-response","257","2.0.0","3835856","15","<div class=""pb-14 text-7xl"">+</div>","null","fixation","","","","","",""
"","487","html-keynbutton-response","258","2.0.0","3836344","15","<div class=""flex flex-row stim-length pb-8 md:pd-20 justify-evenly items-center""><div class=""square""></div><div class=""circle""></div><div class=""square""></div></div>","q","","matchness_test_2","mismatch","圆","q","true","mismatch"
"","null","html-keynbutton-response","259","2.0.0","3836855","15","<div class=""pb-14 text-7xl"">+</div>","null","fixation","","","","","",""
"","528","html-keynbutton-response","260","2.0.0","3837384","15","<div class=""flex flex-row stim-length pb-8 md:pd-20 justify-evenly items-center""><div class=""circle""></div><div class=""square""></div><div class=""circle""></div></div>","p","","matchness_test_2","mismatch","方","q","false","match"
"","null","html-keynbutton-response","261","2.0.0","3837895","15","<div class=""pb-14 text-7xl"">+</div>","null","fixation","","","","","",""
"","481","html-keynbutton-response","262","2.0.0","3838377","15","<div class=""flex flex-row stim-length pb-8 md:pd-20 justify-evenly items-center""><div class=""circle""></div><div class=""circle""></div><div class=""circle""></div></div>","p","","matchness_test_2","match","圆","p","true","match"
"","null","html-keynbutton-response","263","2.0.0","3838888","15","<div class=""pb-14 text-7xl"">+</div>","null","fixation","","","","","",""
"","575","html-keynbutton-response","264","2.0.0","3839464","15","<div class=""flex flex-row stim-length pb-8 md:pd-20 justify-evenly items-center""><div class=""square""></div><div class=""circle""></div><div class=""square""></div></div>","q","","matchness_test_2","mismatch","圆","q","true","mismatch"
"","null","html-keynbutton-response","265","2.0.0","3839972","15","<div class=""pb-14 text-7xl"">+</div>","null","fixation","","","","","",""
"","596","html-keynbutton-response","266","2.0.0","3840568","15","<div class=""flex flex-row stim-length pb-8 md:pd-20 justify-evenly items-center""><div class=""circle""></div><div class=""square""></div><div class=""circle""></div></div>","q","","matchness_test_2","mismatch","方","q","true","mismatch"
"","null","html-keynbutton-response","267","2.0.0","3841078","15","<div class=""pb-14 text-7xl"">+</div>","null","fixation","","","","","",""
"","481","html-keynbutton-response","268","2.0.0","3841560","15","<div class=""flex flex-row stim-length pb-8 md:pd-20 justify-evenly items-center""><div class=""square""></div><div class=""square""></div><div class=""square""></div></div>","q","","matchness_test_2","match","方","p","false","mismatch"
"","null","html-keynbutton-response","269","2.0.0","3842072","15","<div class=""pb-14 text-7xl"">+</div>","null","fixation","","","","","",""
"","768","html-keynbutton-response","270","2.0.0","3842841","15","<div class=""flex flex-row stim-length pb-8 md:pd-20 justify-evenly items-center""><div class=""circle""></div><div class=""circle""></div><div class=""circle""></div></div>","p","","matchness_test_2","match","圆","p","true","match"
"","null","html-keynbutton-response","271","2.0.0","3843355","15","<div class=""pb-14 text-7xl"">+</div>","null","fixation","","","","","",""
"","524","html-keynbutton-response","272","2.0.0","3843880","15","<div class=""flex flex-row stim-length pb-8 md:pd-20 justify-evenly items-center""><div class=""circle""></div><div class=""circle""></div><div class=""circle""></div></div>","p","","matchness_test_2","match","圆","p","true","match"
"","null","html-keynbutton-response","273","2.0.0","3844389","15","<div class=""pb-14 text-7xl"">+</div>","null","fixation","","","","","",""
"","1107","html-keynbutton-response","274","2.0.0","3845496","15","<div class=""flex flex-row stim-length pb-8 md:pd-20 justify-evenly items-center""><div class=""circle""></div><div class=""square""></div><div class=""circle""></div></div>","q","","matchness_test_2","mismatch","方","q","true","mismatch"
"","null","html-keynbutton-response","275","2.0.0","3846005","15","<div class=""pb-14 text-7xl"">+</div>","null","fixation","","","","","",""
"","930","html-keynbutton-response","276","2.0.0","3846936","15","<div class=""flex flex-row stim-length pb-8 md:pd-20 justify-evenly items-center""><div class=""square""></div><div class=""circle""></div><div class=""square""></div></div>","q","","matchness_test_2","mismatch","圆","q","true","mismatch"
"","null","html-keynbutton-response","277","2.0.0","3847440","15","<div class=""pb-14 text-7xl"">+</div>","null","fixation","","","","","",""
"","679","html-keynbutton-response","278","2.0.0","3848120","15","<div class=""flex flex-row stim-length pb-8 md:pd-20 justify-evenly items-center""><div class=""square""></div><div class=""square""></div><div class=""square""></div></div>","p","","matchness_test_2","match","方","p","true","match"
"","null","html-keynbutton-response","279","2.0.0","3848623","15","<div class=""pb-14 text-7xl"">+</div>","null","fixation","","","","","",""
"","696","html-keynbutton-response","280","2.0.0","3849319","15","<div class=""flex flex-row stim-length pb-8 md:pd-20 justify-evenly items-center""><div class=""circle""></div><div class=""square""></div><div class=""circle""></div></div>","q","","matchness_test_2","mismatch","方","q","true","mismatch"
"","null","html-keynbutton-response","281","2.0.0","3849823","15","<div class=""pb-14 text-7xl"">+</div>","null","fixation","","","","","",""
"","920","html-keynbutton-response","282","2.0.0","3850744","15","<div class=""flex flex-row stim-length pb-8 md:pd-20 justify-evenly items-center""><div class=""circle""></div><div class=""circle""></div><div class=""circle""></div></div>","p","","matchness_test_2","match","圆","p","true","match"
"","null","html-keynbutton-response","283","2.0.0","3851255","15","<div class=""pb-14 text-7xl"">+</div>","null","fixation","","","","","",""
"","657","html-keynbutton-response","284","2.0.0","3851912","15","<div class=""flex flex-row stim-length pb-8 md:pd-20 justify-evenly items-center""><div class=""square""></div><div class=""circle""></div><div class=""square""></div></div>","q","","matchness_test_2","mismatch","圆","q","true","mismatch"
"","null","html-keynbutton-response","285","2.0.0","3852422","15","<div class=""pb-14 text-7xl"">+</div>","null","fixation","","","","","",""
"","737","html-keynbutton-response","286","2.0.0","3853160","15","<div class=""flex flex-row stim-length pb-8 md:pd-20 justify-evenly items-center""><div class=""square""></div><div class=""square""></div><div class=""square""></div></div>","p","","matchness_test_2","match","方","p","true","match"
"","null","html-keynbutton-response","287","2.0.0","3853674","15","<div class=""pb-14 text-7xl"">+</div>","null","fixation","","","","","",""
"","621","html-keynbutton-response","288","2.0.0","3854296","15","<div class=""flex flex-row stim-length pb-8 md:pd-20 justify-evenly items-center""><div class=""circle""></div><div class=""circle""></div><div class=""circle""></div></div>","p","","matchness_test_2","match","圆","p","true","match"
"","null","html-keynbutton-response","289","2.0.0","3854805","15","<div class=""pb-14 text-7xl"">+</div>","null","fixation","","","","","",""
"","561","html-keynbutton-response","290","2.0.0","3855367","15","<div class=""flex flex-row stim-length pb-8 md:pd-20 justify-evenly items-center""><div class=""square""></div><div class=""square""></div><div class=""square""></div></div>","p","","matchness_test_2","match","方","p","true","match"
"","null","html-keynbutton-response","291","2.0.0","3855874","15","<div class=""pb-14 text-7xl"">+</div>","null","fixation","","","","","",""
"","485","html-keynbutton-response","292","2.0.0","3856359","15","<div class=""flex flex-row stim-length pb-8 md:pd-20 justify-evenly items-center""><div class=""circle""></div><div class=""square""></div><div class=""circle""></div></div>","q","","matchness_test_2","mismatch","方","q","true","mismatch"
"","null","html-keynbutton-response","293","2.0.0","3856872","15","<div class=""pb-14 text-7xl"">+</div>","null","fixation","","","","","",""
"","895","html-keynbutton-response","294","2.0.0","3857768","15","<div class=""flex flex-row stim-length pb-8 md:pd-20 justify-evenly items-center""><div class=""square""></div><div class=""circle""></div><div class=""square""></div></div>","q","","matchness_test_2","mismatch","圆","q","true","mismatch"
"","null","html-keynbutton-response","295","2.0.0","3858274","15","<div class=""pb-14 text-7xl"">+</div>","null","fixation","","","","","",""
"","565","html-keynbutton-response","296","2.0.0","3858840","15","<div class=""flex flex-row stim-length pb-8 md:pd-20 justify-evenly items-center""><div class=""circle""></div><div class=""square""></div><div class=""circle""></div></div>","q","","matchness_test_2","mismatch","方","q","true","mismatch"
"","null","html-keynbutton-response","297","2.0.0","3859355","15","<div class=""pb-14 text-7xl"">+</div>","null","fixation","","","","","",""
"","348","html-keynbutton-response","298","2.0.0","3859704","15","<div class=""flex flex-row stim-length pb-8 md:pd-20 justify-evenly items-center""><div class=""circle""></div><div class=""circle""></div><div class=""circle""></div></div>","p","","matchness_test_2","match","圆","p","true","match"
"","null","html-keynbutton-response","299","2.0.0","3860207","15","<div class=""pb-14 text-7xl"">+</div>","null","fixation","","","","","",""
"","537","html-keynbutton-response","300","2.0.0","3860744","15","<div class=""flex flex-row stim-length pb-8 md:pd-20 justify-evenly items-center""><div class=""square""></div><div class=""circle""></div><div class=""square""></div></div>","q","","matchness_test_2","mismatch","圆","q","true","mismatch"
"","null","html-keynbutton-response","301","2.0.0","3861255","15","<div class=""pb-14 text-7xl"">+</div>","null","fixation","","","","","",""
"","497","html-keynbutton-response","302","2.0.0","3861752","15","<div class=""flex flex-row stim-length pb-8 md:pd-20 justify-evenly items-center""><div class=""square""></div><div class=""square""></div><div class=""square""></div></div>","p","","matchness_test_2","match","方","p","true","match"
"","null","html-keynbutton-response","303","2.0.0","3862257","15","<div class=""pb-14 text-7xl"">+</div>","null","fixation","","","","","",""
"","551","html-keynbutton-response","304","2.0.0","3862808","15","<div class=""flex flex-row stim-length pb-8 md:pd-20 justify-evenly items-center""><div class=""square""></div><div class=""circle""></div><div class=""square""></div></div>","q","","matchness_test_2","mismatch","圆","q","true","mismatch"
"","null","html-keynbutton-response","305","2.0.0","3863322","15","<div class=""pb-14 text-7xl"">+</div>","null","fixation","","","","","",""
"","621","html-keynbutton-response","306","2.0.0","3863944","15","<div class=""flex flex-row stim-length pb-8 md:pd-20 justify-evenly items-center""><div class=""circle""></div><div class=""square""></div><div class=""circle""></div></div>","q","","matchness_test_2","mismatch","方","q","true","mismatch"
"","null","html-keynbutton-response","307","2.0.0","3864455","15","<div class=""pb-14 text-7xl"">+</div>","null","fixation","","","","","",""
"","673","html-keynbutton-response","308","2.0.0","3865128","15","<div class=""flex flex-row stim-length pb-8 md:pd-20 justify-evenly items-center""><div class=""circle""></div><div class=""circle""></div><div class=""circle""></div></div>","p","","matchness_test_2","match","圆","p","true","match"
"","null","html-keynbutton-response","309","2.0.0","3865638","15","<div class=""pb-14 text-7xl"">+</div>","null","fixation","","","","","",""
"","881","html-keynbutton-response","310","2.0.0","3866520","15","<div class=""flex flex-row stim-length pb-8 md:pd-20 justify-evenly items-center""><div class=""square""></div><div class=""square""></div><div class=""square""></div></div>","p","","matchness_test_2","match","方","p","true","match"
"","2701","html-keynbutton-response","311","2.0.0","3869225","15","<div class=""jp""><p>您已完成3/10部分</p><p>请休息一会儿</p>
    <p>您的正确率是：95%</p>
    <p>您的平均反应时间是：633毫秒</p></div>"," ","block_feedback","","","","","",""
"","null","html-keynbutton-response","312","2.0.0","3872438","15","<count-down title=""""></count-down>","null","countDown_trial","","","","","",""
"","null","html-keynbutton-response","313","2.0.0","3872942","15","<div class=""pb-14 text-7xl"">+</div>","null","fixation","","","","","",""
"","411","html-keynbutton-response","314","2.0.0","3873354","15","<div class=""flex flex-row stim-length pb-8 md:pd-20 justify-evenly items-center""><div class=""square""></div><div class=""square""></div><div class=""square""></div></div>","p","","matchness_test_3","match","方","p","true","match"
"","null","html-keynbutton-response","315","2.0.0","3873858","15","<div class=""pb-14 text-7xl"">+</div>","null","fixation","","","","","",""
"","392","html-keynbutton-response","316","2.0.0","3874251","15","<div class=""flex flex-row stim-length pb-8 md:pd-20 justify-evenly items-center""><div class=""circle""></div><div class=""circle""></div><div class=""circle""></div></div>","p","","matchness_test_3","match","圆","p","true","match"
"","null","html-keynbutton-response","317","2.0.0","3874758","15","<div class=""pb-14 text-7xl"">+</div>","null","fixation","","","","","",""
"","451","html-keynbutton-response","318","2.0.0","3875210","15","<div class=""flex flex-row stim-length pb-8 md:pd-20 justify-evenly items-center""><div class=""square""></div><div class=""circle""></div><div class=""square""></div></div>","q","","matchness_test_3","mismatch","圆","q","true","mismatch"
"","null","html-keynbutton-response","319","2.0.0","3875724","15","<div class=""pb-14 text-7xl"">+</div>","null","fixation","","","","","",""
"","461","html-keynbutton-response","320","2.0.0","3876185","15","<div class=""flex flex-row stim-length pb-8 md:pd-20 justify-evenly items-center""><div class=""circle""></div><div class=""square""></div><div class=""circle""></div></div>","q","","matchness_test_3","mismatch","方","q","true","mismatch"
"","null","html-keynbutton-response","321","2.0.0","3876691","15","<div class=""pb-14 text-7xl"">+</div>","null","fixation","","","","","",""
"","567","html-keynbutton-response","322","2.0.0","3877258","15","<div class=""flex flex-row stim-length pb-8 md:pd-20 justify-evenly items-center""><div class=""square""></div><div class=""circle""></div><div class=""square""></div></div>","q","","matchness_test_3","mismatch","圆","q","true","mismatch"
"","null","html-keynbutton-response","323","2.0.0","3877774","15","<div class=""pb-14 text-7xl"">+</div>","null","fixation","","","","","",""
"","460","html-keynbutton-response","324","2.0.0","3878234","15","<div class=""flex flex-row stim-length pb-8 md:pd-20 justify-evenly items-center""><div class=""circle""></div><div class=""square""></div><div class=""circle""></div></div>","q","","matchness_test_3","mismatch","方","q","true","mismatch"
"","null","html-keynbutton-response","325","2.0.0","3878742","15","<div class=""pb-14 text-7xl"">+</div>","null","fixation","","","","","",""
"","532","html-keynbutton-response","326","2.0.0","3879274","15","<div class=""flex flex-row stim-length pb-8 md:pd-20 justify-evenly items-center""><div class=""square""></div><div class=""square""></div><div class=""square""></div></div>","p","","matchness_test_3","match","方","p","true","match"
"","null","html-keynbutton-response","327","2.0.0","3879790","15","<div class=""pb-14 text-7xl"">+</div>","null","fixation","","","","","",""
"","539","html-keynbutton-response","328","2.0.0","3880330","15","<div class=""flex flex-row stim-length pb-8 md:pd-20 justify-evenly items-center""><div class=""circle""></div><div class=""circle""></div><div class=""circle""></div></div>","p","","matchness_test_3","match","圆","p","true","match"
"","null","html-keynbutton-response","329","2.0.0","3880841","15","<div class=""pb-14 text-7xl"">+</div>","null","fixation","","","","","",""
"","720","html-keynbutton-response","330","2.0.0","3881562","15","<div class=""flex flex-row stim-length pb-8 md:pd-20 justify-evenly items-center""><div class=""square""></div><div class=""circle""></div><div class=""square""></div></div>","q","","matchness_test_3","mismatch","圆","q","true","mismatch"
"","null","html-keynbutton-response","331","2.0.0","3882074","15","<div class=""pb-14 text-7xl"">+</div>","null","fixation","","","","","",""
"","527","html-keynbutton-response","332","2.0.0","3882602","15","<div class=""flex flex-row stim-length pb-8 md:pd-20 justify-evenly items-center""><div class=""circle""></div><div class=""square""></div><div class=""circle""></div></div>","q","","matchness_test_3","mismatch","方","q","true","mismatch"
"","null","html-keynbutton-response","333","2.0.0","3883108","15","<div class=""pb-14 text-7xl"">+</div>","null","fixation","","","","","",""
"","485","html-keynbutton-response","334","2.0.0","3883594","15","<div class=""flex flex-row stim-length pb-8 md:pd-20 justify-evenly items-center""><div class=""circle""></div><div class=""circle""></div><div class=""circle""></div></div>","p","","matchness_test_3","match","圆","p","true","match"
"","null","html-keynbutton-response","335","2.0.0","3884108","15","<div class=""pb-14 text-7xl"">+</div>","null","fixation","","","","","",""
"","670","html-keynbutton-response","336","2.0.0","3884778","15","<div class=""flex flex-row stim-length pb-8 md:pd-20 justify-evenly items-center""><div class=""square""></div><div class=""square""></div><div class=""square""></div></div>","p","","matchness_test_3","match","方","p","true","match"
"","null","html-keynbutton-response","337","2.0.0","3885293","15","<div class=""pb-14 text-7xl"">+</div>","null","fixation","","","","","",""
"","492","html-keynbutton-response","338","2.0.0","3885786","15","<div class=""flex flex-row stim-length pb-8 md:pd-20 justify-evenly items-center""><div class=""circle""></div><div class=""circle""></div><div class=""circle""></div></div>","p","","matchness_test_3","match","圆","p","true","match"
"","null","html-keynbutton-response","339","2.0.0","3886292","15","<div class=""pb-14 text-7xl"">+</div>","null","fixation","","","","","",""
"","661","html-keynbutton-response","340","2.0.0","3886954","15","<div class=""flex flex-row stim-length pb-8 md:pd-20 justify-evenly items-center""><div class=""square""></div><div class=""circle""></div><div class=""square""></div></div>","q","","matchness_test_3","mismatch","圆","q","true","mismatch"
"","null","html-keynbutton-response","341","2.0.0","3887459","15","<div class=""pb-14 text-7xl"">+</div>","null","fixation","","","","","",""
"","583","html-keynbutton-response","342","2.0.0","3888042","15","<div class=""flex flex-row stim-length pb-8 md:pd-20 justify-evenly items-center""><div class=""circle""></div><div class=""square""></div><div class=""circle""></div></div>","q","","matchness_test_3","mismatch","方","q","true","mismatch"
"","null","html-keynbutton-response","343","2.0.0","3888546","15","<div class=""pb-14 text-7xl"">+</div>","null","fixation","","","","","",""
"","472","html-keynbutton-response","344","2.0.0","3889018","15","<div class=""flex flex-row stim-length pb-8 md:pd-20 justify-evenly items-center""><div class=""square""></div><div class=""square""></div><div class=""square""></div></div>","p","","matchness_test_3","match","方","p","true","match"
"","null","html-keynbutton-response","345","2.0.0","3889525","15","<div class=""pb-14 text-7xl"">+</div>","null","fixation","","","","","",""
"","628","html-keynbutton-response","346","2.0.0","3890154","15","<div class=""flex flex-row stim-length pb-8 md:pd-20 justify-evenly items-center""><div class=""square""></div><div class=""circle""></div><div class=""square""></div></div>","q","","matchness_test_3","mismatch","圆","q","true","mismatch"
"","null","html-keynbutton-response","347","2.0.0","3890658","15","<div class=""pb-14 text-7xl"">+</div>","null","fixation","","","","","",""
"","535","html-keynbutton-response","348","2.0.0","3891194","15","<div class=""flex flex-row stim-length pb-8 md:pd-20 justify-evenly items-center""><div class=""circle""></div><div class=""square""></div><div class=""circle""></div></div>","q","","matchness_test_3","mismatch","方","q","true","mismatch"
"","null","html-keynbutton-response","349","2.0.0","3891707","15","<div class=""pb-14 text-7xl"">+</div>","null","fixation","","","","","",""
"","622","html-keynbutton-response","350","2.0.0","3892330","15","<div class=""flex flex-row stim-length pb-8 md:pd-20 justify-evenly items-center""><div class=""square""></div><div class=""square""></div><div class=""square""></div></div>","p","","matchness_test_3","match","方","p","true","match"
"","null","html-keynbutton-response","351","2.0.0","3892841","15","<div class=""pb-14 text-7xl"">+</div>","null","fixation","","","","","",""
"","609","html-keynbutton-response","352","2.0.0","3893450","15","<div class=""flex flex-row stim-length pb-8 md:pd-20 justify-evenly items-center""><div class=""circle""></div><div class=""circle""></div><div class=""circle""></div></div>","p","","matchness_test_3","match","圆","p","true","match"
"","null","html-keynbutton-response","353","2.0.0","3893957","15","<div class=""pb-14 text-7xl"">+</div>","null","fixation","","","","","",""
"","549","html-keynbutton-response","354","2.0.0","3894506","15","<div class=""flex flex-row stim-length pb-8 md:pd-20 justify-evenly items-center""><div class=""circle""></div><div class=""square""></div><div class=""circle""></div></div>","p","","matchness_test_3","mismatch","方","q","false","match"
"","null","html-keynbutton-response","355","2.0.0","3895009","15","<div class=""pb-14 text-7xl"">+</div>","null","fixation","","","","","",""
"","953","html-keynbutton-response","356","2.0.0","3895962","15","<div class=""flex flex-row stim-length pb-8 md:pd-20 justify-evenly items-center""><div class=""square""></div><div class=""square""></div><div class=""square""></div></div>","p","","matchness_test_3","match","方","p","true","match"
"","null","html-keynbutton-response","357","2.0.0","3896474","15","<div class=""pb-14 text-7xl"">+</div>","null","fixation","","","","","",""
"","655","html-keynbutton-response","358","2.0.0","3897130","15","<div class=""flex flex-row stim-length pb-8 md:pd-20 justify-evenly items-center""><div class=""circle""></div><div class=""circle""></div><div class=""circle""></div></div>","p","","matchness_test_3","match","圆","p","true","match"
"","null","html-keynbutton-response","359","2.0.0","3897645","15","<div class=""pb-14 text-7xl"">+</div>","null","fixation","","","","","",""
"","525","html-keynbutton-response","360","2.0.0","3898170","15","<div class=""flex flex-row stim-length pb-8 md:pd-20 justify-evenly items-center""><div class=""square""></div><div class=""circle""></div><div class=""square""></div></div>","q","","matchness_test_3","mismatch","圆","q","true","mismatch"
"","null","html-keynbutton-response","361","2.0.0","3898676","15","<div class=""pb-14 text-7xl"">+</div>","null","fixation","","","","","",""
"","1012","html-keynbutton-response","362","2.0.0","3899689","15","<div class=""flex flex-row stim-length pb-8 md:pd-20 justify-evenly items-center""><div class=""square""></div><div class=""square""></div><div class=""square""></div></div>","q","","matchness_test_3","match","方","p","false","mismatch"
"","null","html-keynbutton-response","363","2.0.0","3900195","15","<div class=""pb-14 text-7xl"">+</div>","null","fixation","","","","","",""
"","1814","html-keynbutton-response","364","2.0.0","3902010","15","<div class=""flex flex-row stim-length pb-8 md:pd-20 justify-evenly items-center""><div class=""circle""></div><div class=""square""></div><div class=""circle""></div></div>","q","","matchness_test_3","mismatch","方","q","true","mismatch"
"","null","html-keynbutton-response","365","2.0.0","3902524","15","<div class=""pb-14 text-7xl"">+</div>","null","fixation","","","","","",""
"","541","html-keynbutton-response","366","2.0.0","3903066","15","<div class=""flex flex-row stim-length pb-8 md:pd-20 justify-evenly items-center""><div class=""circle""></div><div class=""circle""></div><div class=""circle""></div></div>","p","","matchness_test_3","match","圆","p","true","match"
"","null","html-keynbutton-response","367","2.0.0","3903577","15","<div class=""pb-14 text-7xl"">+</div>","null","fixation","","","","","",""
"","592","html-keynbutton-response","368","2.0.0","3904170","15","<div class=""flex flex-row stim-length pb-8 md:pd-20 justify-evenly items-center""><div class=""square""></div><div class=""circle""></div><div class=""square""></div></div>","q","","matchness_test_3","mismatch","圆","q","true","mismatch"
"","null","html-keynbutton-response","369","2.0.0","3904676","15","<div class=""pb-14 text-7xl"">+</div>","null","fixation","","","","","",""
"","565","html-keynbutton-response","370","2.0.0","3905242","15","<div class=""flex flex-row stim-length pb-8 md:pd-20 justify-evenly items-center""><div class=""circle""></div><div class=""circle""></div><div class=""circle""></div></div>","p","","matchness_test_3","match","圆","p","true","match"
"","null","html-keynbutton-response","371","2.0.0","3905758","15","<div class=""pb-14 text-7xl"">+</div>","null","fixation","","","","","",""
"","508","html-keynbutton-response","372","2.0.0","3906266","15","<div class=""flex flex-row stim-length pb-8 md:pd-20 justify-evenly items-center""><div class=""square""></div><div class=""square""></div><div class=""square""></div></div>","p","","matchness_test_3","match","方","p","true","match"
"","null","html-keynbutton-response","373","2.0.0","3906774","15","<div class=""pb-14 text-7xl"">+</div>","null","fixation","","","","","",""
"","580","html-keynbutton-response","374","2.0.0","3907354","15","<div class=""flex flex-row stim-length pb-8 md:pd-20 justify-evenly items-center""><div class=""circle""></div><div class=""square""></div><div class=""circle""></div></div>","q","","matchness_test_3","mismatch","方","q","true","mismatch"
"","null","html-keynbutton-response","375","2.0.0","3907865","15","<div class=""pb-14 text-7xl"">+</div>","null","fixation","","","","","",""
"","657","html-keynbutton-response","376","2.0.0","3908522","15","<div class=""flex flex-row stim-length pb-8 md:pd-20 justify-evenly items-center""><div class=""square""></div><div class=""circle""></div><div class=""square""></div></div>","q","","matchness_test_3","mismatch","圆","q","true","mismatch"
"","null","html-keynbutton-response","377","2.0.0","3909025","15","<div class=""pb-14 text-7xl"">+</div>","null","fixation","","","","","",""
"","584","html-keynbutton-response","378","2.0.0","3909610","15","<div class=""flex flex-row stim-length pb-8 md:pd-20 justify-evenly items-center""><div class=""circle""></div><div class=""square""></div><div class=""circle""></div></div>","q","","matchness_test_3","mismatch","方","q","true","mismatch"
"","null","html-keynbutton-response","379","2.0.0","3910124","15","<div class=""pb-14 text-7xl"">+</div>","null","fixation","","","","","",""
"","605","html-keynbutton-response","380","2.0.0","3910730","15","<div class=""flex flex-row stim-length pb-8 md:pd-20 justify-evenly items-center""><div class=""square""></div><div class=""circle""></div><div class=""square""></div></div>","q","","matchness_test_3","mismatch","圆","q","true","mismatch"
"","null","html-keynbutton-response","381","2.0.0","3911241","15","<div class=""pb-14 text-7xl"">+</div>","null","fixation","","","","","",""
"","640","html-keynbutton-response","382","2.0.0","3911881","15","<div class=""flex flex-row stim-length pb-8 md:pd-20 justify-evenly items-center""><div class=""circle""></div><div class=""circle""></div><div class=""circle""></div></div>","p","","matchness_test_3","match","圆","p","true","match"
"","null","html-keynbutton-response","383","2.0.0","3912391","15","<div class=""pb-14 text-7xl"">+</div>","null","fixation","","","","","",""
"","545","html-keynbutton-response","384","2.0.0","3912937","15","<div class=""flex flex-row stim-length pb-8 md:pd-20 justify-evenly items-center""><div class=""square""></div><div class=""square""></div><div class=""square""></div></div>","p","","matchness_test_3","match","方","p","true","match"
"","null","html-keynbutton-response","385","2.0.0","3913443","15","<div class=""pb-14 text-7xl"">+</div>","null","fixation","","","","","",""
"","598","html-keynbutton-response","386","2.0.0","3914042","15","<div class=""flex flex-row stim-length pb-8 md:pd-20 justify-evenly items-center""><div class=""square""></div><div class=""circle""></div><div class=""square""></div></div>","q","","matchness_test_3","mismatch","圆","q","true","mismatch"
"","null","html-keynbutton-response","387","2.0.0","3914557","15","<div class=""pb-14 text-7xl"">+</div>","null","fixation","","","","","",""
"","636","html-keynbutton-response","388","2.0.0","3915194","15","<div class=""flex flex-row stim-length pb-8 md:pd-20 justify-evenly items-center""><div class=""circle""></div><div class=""circle""></div><div class=""circle""></div></div>","p","","matchness_test_3","match","圆","p","true","match"
"","null","html-keynbutton-response","389","2.0.0","3915707","15","<div class=""pb-14 text-7xl"">+</div>","null","fixation","","","","","",""
"","495","html-keynbutton-response","390","2.0.0","3916202","15","<div class=""flex flex-row stim-length pb-8 md:pd-20 justify-evenly items-center""><div class=""square""></div><div class=""square""></div><div class=""square""></div></div>","p","","matchness_test_3","match","方","p","true","match"
"","null","html-keynbutton-response","391","2.0.0","3916708","15","<div class=""pb-14 text-7xl"">+</div>","null","fixation","","","","","",""
"","597","html-keynbutton-response","392","2.0.0","3917306","15","<div class=""flex flex-row stim-length pb-8 md:pd-20 justify-evenly items-center""><div class=""circle""></div><div class=""square""></div><div class=""circle""></div></div>","q","","matchness_test_3","mismatch","方","q","true","mismatch"
"","4094","html-keynbutton-response","393","2.0.0","3921402","15","<div class=""jp""><p>您已完成4/10部分</p><p>请休息一会儿</p>
    <p>您的正确率是：95%</p>
    <p>您的平均反应时间是：612毫秒</p></div>"," ","block_feedback","","","","","",""
"","null","html-keynbutton-response","394","2.0.0","3924605","15","<count-down title=""""></count-down>","null","countDown_trial","","","","","",""
"","null","html-keynbutton-response","395","2.0.0","3925109","15","<div class=""pb-14 text-7xl"">+</div>","null","fixation","","","","","",""
"","533","html-keynbutton-response","396","2.0.0","3925643","15","<div class=""flex flex-row stim-length pb-8 md:pd-20 justify-evenly items-center""><div class=""circle""></div><div class=""square""></div><div class=""circle""></div></div>","q","","matchness_test_4","mismatch","方","q","true","mismatch"
"","null","html-keynbutton-response","397","2.0.0","3926158","15","<div class=""pb-14 text-7xl"">+</div>","null","fixation","","","","","",""
"","651","html-keynbutton-response","398","2.0.0","3926810","15","<div class=""flex flex-row stim-length pb-8 md:pd-20 justify-evenly items-center""><div class=""circle""></div><div class=""circle""></div><div class=""circle""></div></div>","p","","matchness_test_4","match","圆","p","true","match"
"","null","html-keynbutton-response","399","2.0.0","3927324","15","<div class=""pb-14 text-7xl"">+</div>","null","fixation","","","","","",""
"","652","html-keynbutton-response","400","2.0.0","3927977","15","<div class=""flex flex-row stim-length pb-8 md:pd-20 justify-evenly items-center""><div class=""square""></div><div class=""circle""></div><div class=""square""></div></div>","q","","matchness_test_4","mismatch","圆","q","true","mismatch"
"","null","html-keynbutton-response","401","2.0.0","3928491","15","<div class=""pb-14 text-7xl"">+</div>","null","fixation","","","","","",""
"","1102","html-keynbutton-response","402","2.0.0","3929585","15","<div class=""flex flex-row stim-length pb-8 md:pd-20 justify-evenly items-center""><div class=""square""></div><div class=""square""></div><div class=""square""></div></div>","p","","matchness_test_4","match","方","p","true","match"
"","null","html-keynbutton-response","403","2.0.0","3930099","15","<div class=""pb-14 text-7xl"">+</div>","null","fixation","","","","","",""
"","558","html-keynbutton-response","404","2.0.0","3930658","15","<div class=""flex flex-row stim-length pb-8 md:pd-20 justify-evenly items-center""><div class=""circle""></div><div class=""square""></div><div class=""circle""></div></div>","q","","matchness_test_4","mismatch","方","q","true","mismatch"
"","null","html-keynbutton-response","405","2.0.0","3931165","15","<div class=""pb-14 text-7xl"">+</div>","null","fixation","","","","","",""
"","628","html-keynbutton-response","406","2.0.0","3931793","15","<div class=""flex flex-row stim-length pb-8 md:pd-20 justify-evenly items-center""><div class=""square""></div><div class=""square""></div><div class=""square""></div></div>","p","","matchness_test_4","match","方","p","true","match"
"","null","html-keynbutton-response","407","2.0.0","3932300","15","<div class=""pb-14 text-7xl"">+</div>","null","fixation","","","","","",""
"","517","html-keynbutton-response","408","2.0.0","3932817","15","<div class=""flex flex-row stim-length pb-8 md:pd-20 justify-evenly items-center""><div class=""square""></div><div class=""circle""></div><div class=""square""></div></div>","q","","matchness_test_4","mismatch","圆","q","true","mismatch"
"","null","html-keynbutton-response","409","2.0.0","3933332","15","<div class=""pb-14 text-7xl"">+</div>","null","fixation","","","","","",""
"","476","html-keynbutton-response","410","2.0.0","3933809","15","<div class=""flex flex-row stim-length pb-8 md:pd-20 justify-evenly items-center""><div class=""circle""></div><div class=""circle""></div><div class=""circle""></div></div>","p","","matchness_test_4","match","圆","p","true","match"
"","null","html-keynbutton-response","411","2.0.0","3934316","15","<div class=""pb-14 text-7xl"">+</div>","null","fixation","","","","","",""
"","628","html-keynbutton-response","412","2.0.0","3934945","15","<div class=""flex flex-row stim-length pb-8 md:pd-20 justify-evenly items-center""><div class=""circle""></div><div class=""square""></div><div class=""circle""></div></div>","q","","matchness_test_4","mismatch","方","q","true","mismatch"
"","null","html-keynbutton-response","413","2.0.0","3935450","15","<div class=""pb-14 text-7xl"">+</div>","null","fixation","","","","","",""
"","551","html-keynbutton-response","414","2.0.0","3936001","15","<div class=""flex flex-row stim-length pb-8 md:pd-20 justify-evenly items-center""><div class=""square""></div><div class=""circle""></div><div class=""square""></div></div>","q","","matchness_test_4","mismatch","圆","q","true","mismatch"
"","null","html-keynbutton-response","415","2.0.0","3936516","15","<div class=""pb-14 text-7xl"">+</div>","null","fixation","","","","","",""
"","653","html-keynbutton-response","416","2.0.0","3937170","15","<div class=""flex flex-row stim-length pb-8 md:pd-20 justify-evenly items-center""><div class=""circle""></div><div class=""circle""></div><div class=""circle""></div></div>","p","","matchness_test_4","match","圆","p","true","match"
"","null","html-keynbutton-response","417","2.0.0","3937682","15","<div class=""pb-14 text-7xl"">+</div>","null","fixation","","","","","",""
"","911","html-keynbutton-response","418","2.0.0","3938594","15","<div class=""flex flex-row stim-length pb-8 md:pd-20 justify-evenly items-center""><div class=""square""></div><div class=""square""></div><div class=""square""></div></div>","p","","matchness_test_4","match","方","p","true","match"
"","null","html-keynbutton-response","419","2.0.0","3939099","15","<div class=""pb-14 text-7xl"">+</div>","null","fixation","","","","","",""
"","533","html-keynbutton-response","420","2.0.0","3939633","15","<div class=""flex flex-row stim-length pb-8 md:pd-20 justify-evenly items-center""><div class=""square""></div><div class=""square""></div><div class=""square""></div></div>","p","","matchness_test_4","match","方","p","true","match"
"","null","html-keynbutton-response","421","2.0.0","3940149","15","<div class=""pb-14 text-7xl"">+</div>","null","fixation","","","","","",""
"","508","html-keynbutton-response","422","2.0.0","3940658","15","<div class=""flex flex-row stim-length pb-8 md:pd-20 justify-evenly items-center""><div class=""square""></div><div class=""circle""></div><div class=""square""></div></div>","q","","matchness_test_4","mismatch","圆","q","true","mismatch"
"","null","html-keynbutton-response","423","2.0.0","3941165","15","<div class=""pb-14 text-7xl"">+</div>","null","fixation","","","","","",""
"","788","html-keynbutton-response","424","2.0.0","3941954","15","<div class=""flex flex-row stim-length pb-8 md:pd-20 justify-evenly items-center""><div class=""circle""></div><div class=""square""></div><div class=""circle""></div></div>","q","","matchness_test_4","mismatch","方","q","true","mismatch"
"","null","html-keynbutton-response","425","2.0.0","3942466","15","<div class=""pb-14 text-7xl"">+</div>","null","fixation","","","","","",""
"","398","html-keynbutton-response","426","2.0.0","3942864","15","<div class=""flex flex-row stim-length pb-8 md:pd-20 justify-evenly items-center""><div class=""circle""></div><div class=""circle""></div><div class=""circle""></div></div>","p","","matchness_test_4","match","圆","p","true","match"
"","null","html-keynbutton-response","427","2.0.0","3943367","15","<div class=""pb-14 text-7xl"">+</div>","null","fixation","","","","","",""
"","522","html-keynbutton-response","428","2.0.0","3943890","15","<div class=""flex flex-row stim-length pb-8 md:pd-20 justify-evenly items-center""><div class=""circle""></div><div class=""square""></div><div class=""circle""></div></div>","q","","matchness_test_4","mismatch","方","q","true","mismatch"
"","null","html-keynbutton-response","429","2.0.0","3944399","15","<div class=""pb-14 text-7xl"">+</div>","null","fixation","","","","","",""
"","658","html-keynbutton-response","430","2.0.0","3945058","15","<div class=""flex flex-row stim-length pb-8 md:pd-20 justify-evenly items-center""><div class=""circle""></div><div class=""circle""></div><div class=""circle""></div></div>","p","","matchness_test_4","match","圆","p","true","match"
"","null","html-keynbutton-response","431","2.0.0","3945565","15","<div class=""pb-14 text-7xl"">+</div>","null","fixation","","","","","",""
"","1028","html-keynbutton-response","432","2.0.0","3946593","15","<div class=""flex flex-row stim-length pb-8 md:pd-20 justify-evenly items-center""><div class=""square""></div><div class=""square""></div><div class=""square""></div></div>","p","","matchness_test_4","match","方","p","true","match"
"","null","html-keynbutton-response","433","2.0.0","3947100","15","<div class=""pb-14 text-7xl"">+</div>","null","fixation","","","","","",""
"","661","html-keynbutton-response","434","2.0.0","3947762","15","<div class=""flex flex-row stim-length pb-8 md:pd-20 justify-evenly items-center""><div class=""square""></div><div class=""circle""></div><div class=""square""></div></div>","q","","matchness_test_4","mismatch","圆","q","true","mismatch"
"","null","html-keynbutton-response","435","2.0.0","3948267","15","<div class=""pb-14 text-7xl"">+</div>","null","fixation","","","","","",""
"","581","html-keynbutton-response","436","2.0.0","3948849","15","<div class=""flex flex-row stim-length pb-8 md:pd-20 justify-evenly items-center""><div class=""circle""></div><div class=""circle""></div><div class=""circle""></div></div>","p","","matchness_test_4","match","圆","p","true","match"
"","null","html-keynbutton-response","437","2.0.0","3949365","15","<div class=""pb-14 text-7xl"">+</div>","null","fixation","","","","","",""
"","619","html-keynbutton-response","438","2.0.0","3949985","15","<div class=""flex flex-row stim-length pb-8 md:pd-20 justify-evenly items-center""><div class=""square""></div><div class=""circle""></div><div class=""square""></div></div>","q","","matchness_test_4","mismatch","圆","q","true","mismatch"
"","null","html-keynbutton-response","439","2.0.0","3950490","15","<div class=""pb-14 text-7xl"">+</div>","null","fixation","","","","","",""
"","678","html-keynbutton-response","440","2.0.0","3951169","15","<div class=""flex flex-row stim-length pb-8 md:pd-20 justify-evenly items-center""><div class=""circle""></div><div class=""square""></div><div class=""circle""></div></div>","q","","matchness_test_4","mismatch","方","q","true","mismatch"
"","null","html-keynbutton-response","441","2.0.0","3951682","15","<div class=""pb-14 text-7xl"">+</div>","null","fixation","","","","","",""
"","654","html-keynbutton-response","442","2.0.0","3952337","15","<div class=""flex flex-row stim-length pb-8 md:pd-20 justify-evenly items-center""><div class=""square""></div><div class=""square""></div><div class=""square""></div></div>","p","","matchness_test_4","match","方","p","true","match"
"","null","html-keynbutton-response","443","2.0.0","3952849","15","<div class=""pb-14 text-7xl"">+</div>","null","fixation","","","","","",""
"","527","html-keynbutton-response","444","2.0.0","3953377","15","<div class=""flex flex-row stim-length pb-8 md:pd-20 justify-evenly items-center""><div class=""circle""></div><div class=""circle""></div><div class=""circle""></div></div>","p","","matchness_test_4","match","圆","p","true","match"
"","null","html-keynbutton-response","445","2.0.0","3953885","15","<div class=""pb-14 text-7xl"">+</div>","null","fixation","","","","","",""
"","532","html-keynbutton-response","446","2.0.0","3954417","15","<div class=""flex flex-row stim-length pb-8 md:pd-20 justify-evenly items-center""><div class=""circle""></div><div class=""square""></div><div class=""circle""></div></div>","q","","matchness_test_4","mismatch","方","q","true","mismatch"
"","null","html-keynbutton-response","447","2.0.0","3954932","15","<div class=""pb-14 text-7xl"">+</div>","null","fixation","","","","","",""
"","588","html-keynbutton-response","448","2.0.0","3955522","15","<div class=""flex flex-row stim-length pb-8 md:pd-20 justify-evenly items-center""><div class=""square""></div><div class=""square""></div><div class=""square""></div></div>","p","","matchness_test_4","match","方","p","true","match"
"","null","html-keynbutton-response","449","2.0.0","3956032","15","<div class=""pb-14 text-7xl"">+</div>","null","fixation","","","","","",""
"","736","html-keynbutton-response","450","2.0.0","3956769","15","<div class=""flex flex-row stim-length pb-8 md:pd-20 justify-evenly items-center""><div class=""square""></div><div class=""circle""></div><div class=""square""></div></div>","q","","matchness_test_4","mismatch","圆","q","true","mismatch"
"","null","html-keynbutton-response","451","2.0.0","3957282","15","<div class=""pb-14 text-7xl"">+</div>","null","fixation","","","","","",""
"","623","html-keynbutton-response","452","2.0.0","3957905","15","<div class=""flex flex-row stim-length pb-8 md:pd-20 justify-evenly items-center""><div class=""circle""></div><div class=""square""></div><div class=""circle""></div></div>","q","","matchness_test_4","mismatch","方","q","true","mismatch"
"","null","html-keynbutton-response","453","2.0.0","3958416","15","<div class=""pb-14 text-7xl"">+</div>","null","fixation","","","","","",""
"","592","html-keynbutton-response","454","2.0.0","3959010","15","<div class=""flex flex-row stim-length pb-8 md:pd-20 justify-evenly items-center""><div class=""circle""></div><div class=""circle""></div><div class=""circle""></div></div>","p","","matchness_test_4","match","圆","p","true","match"
"","null","html-keynbutton-response","455","2.0.0","3959517","15","<div class=""pb-14 text-7xl"">+</div>","null","fixation","","","","","",""
"","1188","html-keynbutton-response","456","2.0.0","3960705","15","<div class=""flex flex-row stim-length pb-8 md:pd-20 justify-evenly items-center""><div class=""square""></div><div class=""square""></div><div class=""square""></div></div>","p","","matchness_test_4","match","方","p","true","match"
