"success","rt","trial_type","trial_index","plugin_version","time_elapsed","subj_id","stimulus","response","trail_tag","task","ismatch","target","correct_key","correct","response_key"
"true","1078473","fullscreen","0","2.0.0","1079476","5","","","","","","","","",""
"","25806","html-keynbutton-response","1","2.0.0","1105283","5","
        <div class=""jp px-2 xxs:px-5 mx-auto"">
        <p class=""text-center text-red-600 text-[1.2em] pb-5"">欢迎您参加知觉
          <strong>匹配实验。</strong>
        </p>
        <p>接下来的任务中您将看到一排图形。</p>
        <p>(圆形●或方形■)</p><p>您需要专注于中间的图形，判断中间的图形和两侧的图形<strong>是否匹配</strong>。</p>
        <p>如果图形不匹配，请按“q”；</p>
        <p>如果图形匹配，请按“p”。</p>
        <p>请尽量又快又准地做出反应。</p>
      <p>请按空格键开始练习。</p>
      </div>"," ","","","","","","",""
"","null","html-keynbutton-response","2","2.0.0","1108486","5","<count-down title=""""></count-down>","null","countDown_trial","","","","","",""
"","null","html-keynbutton-response","3","2.0.0","1108991","5","<div class=""pb-14 text-7xl"">+</div>","null","fixation","","","","","",""
"","null","html-keynbutton-response","4","2.0.0","1111003","5","<div class=""flex flex-row stim-length pb-8 md:pd-20 justify-evenly items-center""><div class=""circle""></div><div class=""circle""></div><div class=""circle""></div></div>","null","","matchness_practice","match","圆","p","false","null"
"","null","html-keynbutton-response","5","2.0.0","1111507","5","<span class='text-yellow-500 text-4xl md:text-5xl lg:text-6xl'>太慢!</span>","null","trial_feedback","","","","","",""
"","null","html-keynbutton-response","6","2.0.0","1112022","5","<div class=""pb-14 text-7xl"">+</div>","null","fixation","","","","","",""
"","684","html-keynbutton-response","7","2.0.0","1112706","5","<div class=""flex flex-row stim-length pb-8 md:pd-20 justify-evenly items-center""><div class=""square""></div><div class=""square""></div><div class=""square""></div></div>","p","","matchness_practice","match","方","p","true","match"
"","null","html-keynbutton-response","8","2.0.0","1113215","5","<span class='text-green-400 text-4xl md:text-5xl lg:text-6xl'>正确!</span>","null","trial_feedback","","","","","",""
"","null","html-keynbutton-response","9","2.0.0","1113726","5","<div class=""pb-14 text-7xl"">+</div>","null","fixation","","","","","",""
"","724","html-keynbutton-response","10","2.0.0","1114450","5","<div class=""flex flex-row stim-length pb-8 md:pd-20 justify-evenly items-center""><div class=""circle""></div><div class=""square""></div><div class=""circle""></div></div>","q","","matchness_practice","mismatch","方","q","true","mismatch"
"","null","html-keynbutton-response","11","2.0.0","1114954","5","<span class='text-green-400 text-4xl md:text-5xl lg:text-6xl'>正确!</span>","null","trial_feedback","","","","","",""
"","null","html-keynbutton-response","12","2.0.0","1115468","5","<div class=""pb-14 text-7xl"">+</div>","null","fixation","","","","","",""
"","614","html-keynbutton-response","13","2.0.0","1116082","5","<div class=""flex flex-row stim-length pb-8 md:pd-20 justify-evenly items-center""><div class=""square""></div><div class=""circle""></div><div class=""square""></div></div>","q","","matchness_practice","mismatch","圆","q","true","mismatch"
"","null","html-keynbutton-response","14","2.0.0","1116585","5","<span class='text-green-400 text-4xl md:text-5xl lg:text-6xl'>正确!</span>","null","trial_feedback","","","","","",""
"","null","html-keynbutton-response","15","2.0.0","1117102","5","<div class=""pb-14 text-7xl"">+</div>","null","fixation","","","","","",""
"","660","html-keynbutton-response","16","2.0.0","1117762","5","<div class=""flex flex-row stim-length pb-8 md:pd-20 justify-evenly items-center""><div class=""circle""></div><div class=""square""></div><div class=""circle""></div></div>","q","","matchness_practice","mismatch","方","q","true","mismatch"
"","null","html-keynbutton-response","17","2.0.0","1118265","5","<span class='text-green-400 text-4xl md:text-5xl lg:text-6xl'>正确!</span>","null","trial_feedback","","","","","",""
"","null","html-keynbutton-response","18","2.0.0","1118780","5","<div class=""pb-14 text-7xl"">+</div>","null","fixation","","","","","",""
"","630","html-keynbutton-response","19","2.0.0","1119410","5","<div class=""flex flex-row stim-length pb-8 md:pd-20 justify-evenly items-center""><div class=""circle""></div><div class=""circle""></div><div class=""circle""></div></div>","p","","matchness_practice","match","圆","p","true","match"
"","null","html-keynbutton-response","20","2.0.0","1119911","5","<span class='text-green-400 text-4xl md:text-5xl lg:text-6xl'>正确!</span>","null","trial_feedback","","","","","",""
"","null","html-keynbutton-response","21","2.0.0","1120412","5","<div class=""pb-14 text-7xl"">+</div>","null","fixation","","","","","",""
"","598","html-keynbutton-response","22","2.0.0","1121010","5","<div class=""flex flex-row stim-length pb-8 md:pd-20 justify-evenly items-center""><div class=""square""></div><div class=""circle""></div><div class=""square""></div></div>","q","","matchness_practice","mismatch","圆","q","true","mismatch"
"","null","html-keynbutton-response","23","2.0.0","1121527","5","<span class='text-green-400 text-4xl md:text-5xl lg:text-6xl'>正确!</span>","null","trial_feedback","","","","","",""
"","null","html-keynbutton-response","24","2.0.0","1122035","5","<div class=""pb-14 text-7xl"">+</div>","null","fixation","","","","","",""
"","463","html-keynbutton-response","25","2.0.0","1122498","5","<div class=""flex flex-row stim-length pb-8 md:pd-20 justify-evenly items-center""><div class=""square""></div><div class=""square""></div><div class=""square""></div></div>","p","","matchness_practice","match","方","p","true","match"
"","null","html-keynbutton-response","26","2.0.0","1123007","5","<span class='text-green-400 text-4xl md:text-5xl lg:text-6xl'>正确!</span>","null","trial_feedback","","","","","",""
"","null","html-keynbutton-response","27","2.0.0","1123517","5","<div class=""pb-14 text-7xl"">+</div>","null","fixation","","","","","",""
"","437","html-keynbutton-response","28","2.0.0","1123954","5","<div class=""flex flex-row stim-length pb-8 md:pd-20 justify-evenly items-center""><div class=""square""></div><div class=""circle""></div><div class=""square""></div></div>","q","","matchness_practice","mismatch","圆","q","true","mismatch"
"","null","html-keynbutton-response","29","2.0.0","1124463","5","<span class='text-green-400 text-4xl md:text-5xl lg:text-6xl'>正确!</span>","null","trial_feedback","","","","","",""
"","null","html-keynbutton-response","30","2.0.0","1124969","5","<div class=""pb-14 text-7xl"">+</div>","null","fixation","","","","","",""
"","713","html-keynbutton-response","31","2.0.0","1125682","5","<div class=""flex flex-row stim-length pb-8 md:pd-20 justify-evenly items-center""><div class=""circle""></div><div class=""square""></div><div class=""circle""></div></div>","q","","matchness_practice","mismatch","方","q","true","mismatch"
"","null","html-keynbutton-response","32","2.0.0","1126196","5","<span class='text-green-400 text-4xl md:text-5xl lg:text-6xl'>正确!</span>","null","trial_feedback","","","","","",""
"","null","html-keynbutton-response","33","2.0.0","1126707","5","<div class=""pb-14 text-7xl"">+</div>","null","fixation","","","","","",""
"","303","html-keynbutton-response","34","2.0.0","1127010","5","<div class=""flex flex-row stim-length pb-8 md:pd-20 justify-evenly items-center""><div class=""circle""></div><div class=""circle""></div><div class=""circle""></div></div>","p","","matchness_practice","match","圆","p","true","match"
"","null","html-keynbutton-response","35","2.0.0","1127514","5","<span class='text-green-400 text-4xl md:text-5xl lg:text-6xl'>正确!</span>","null","trial_feedback","","","","","",""
"","null","html-keynbutton-response","36","2.0.0","1128019","5","<div class=""pb-14 text-7xl"">+</div>","null","fixation","","","","","",""
"","607","html-keynbutton-response","37","2.0.0","1128626","5","<div class=""flex flex-row stim-length pb-8 md:pd-20 justify-evenly items-center""><div class=""square""></div><div class=""square""></div><div class=""square""></div></div>","p","","matchness_practice","match","方","p","true","match"
"","null","html-keynbutton-response","38","2.0.0","1129130","5","<span class='text-green-400 text-4xl md:text-5xl lg:text-6xl'>正确!</span>","null","trial_feedback","","","","","",""
"","null","html-keynbutton-response","39","2.0.0","1129637","5","<div class=""pb-14 text-7xl"">+</div>","null","fixation","","","","","",""
"","477","html-keynbutton-response","40","2.0.0","1130114","5","<div class=""flex flex-row stim-length pb-8 md:pd-20 justify-evenly items-center""><div class=""square""></div><div class=""square""></div><div class=""square""></div></div>","p","","matchness_practice","match","方","p","true","match"
"","null","html-keynbutton-response","41","2.0.0","1130622","5","<span class='text-green-400 text-4xl md:text-5xl lg:text-6xl'>正确!</span>","null","trial_feedback","","","","","",""
"","null","html-keynbutton-response","42","2.0.0","1131125","5","<div class=""pb-14 text-7xl"">+</div>","null","fixation","","","","","",""
"","413","html-keynbutton-response","43","2.0.0","1131538","5","<div class=""flex flex-row stim-length pb-8 md:pd-20 justify-evenly items-center""><div class=""circle""></div><div class=""circle""></div><div class=""circle""></div></div>","p","","matchness_practice","match","圆","p","true","match"
"","null","html-keynbutton-response","44","2.0.0","1132039","5","<span class='text-green-400 text-4xl md:text-5xl lg:text-6xl'>正确!</span>","null","trial_feedback","","","","","",""
"","null","html-keynbutton-response","45","2.0.0","1132549","5","<div class=""pb-14 text-7xl"">+</div>","null","fixation","","","","","",""
"","477","html-keynbutton-response","46","2.0.0","1133026","5","<div class=""flex flex-row stim-length pb-8 md:pd-20 justify-evenly items-center""><div class=""circle""></div><div class=""square""></div><div class=""circle""></div></div>","q","","matchness_practice","mismatch","方","q","true","mismatch"
"","null","html-keynbutton-response","47","2.0.0","1133534","5","<span class='text-green-400 text-4xl md:text-5xl lg:text-6xl'>正确!</span>","null","trial_feedback","","","","","",""
"","null","html-keynbutton-response","48","2.0.0","1134045","5","<div class=""pb-14 text-7xl"">+</div>","null","fixation","","","","","",""
"","309","html-keynbutton-response","49","2.0.0","1134354","5","<div class=""flex flex-row stim-length pb-8 md:pd-20 justify-evenly items-center""><div class=""square""></div><div class=""circle""></div><div class=""square""></div></div>","q","","matchness_practice","mismatch","圆","q","true","mismatch"
"","null","html-keynbutton-response","50","2.0.0","1134862","5","<span class='text-green-400 text-4xl md:text-5xl lg:text-6xl'>正确!</span>","null","trial_feedback","","","","","",""
"","null","html-keynbutton-response","51","2.0.0","1135374","5","<div class=""pb-14 text-7xl"">+</div>","null","fixation","","","","","",""
"","532","html-keynbutton-response","52","2.0.0","1135906","5","<div class=""flex flex-row stim-length pb-8 md:pd-20 justify-evenly items-center""><div class=""square""></div><div class=""square""></div><div class=""square""></div></div>","p","","matchness_practice","match","方","p","true","match"
"","null","html-keynbutton-response","53","2.0.0","1136407","5","<span class='text-green-400 text-4xl md:text-5xl lg:text-6xl'>正确!</span>","null","trial_feedback","","","","","",""
"","null","html-keynbutton-response","54","2.0.0","1136908","5","<div class=""pb-14 text-7xl"">+</div>","null","fixation","","","","","",""
"","422","html-keynbutton-response","55","2.0.0","1137330","5","<div class=""flex flex-row stim-length pb-8 md:pd-20 justify-evenly items-center""><div class=""circle""></div><div class=""circle""></div><div class=""circle""></div></div>","p","","matchness_practice","match","圆","p","true","match"
"","null","html-keynbutton-response","56","2.0.0","1137843","5","<span class='text-green-400 text-4xl md:text-5xl lg:text-6xl'>正确!</span>","null","trial_feedback","","","","","",""
"","null","html-keynbutton-response","57","2.0.0","1138350","5","<div class=""pb-14 text-7xl"">+</div>","null","fixation","","","","","",""
"","468","html-keynbutton-response","58","2.0.0","1138818","5","<div class=""flex flex-row stim-length pb-8 md:pd-20 justify-evenly items-center""><div class=""square""></div><div class=""circle""></div><div class=""square""></div></div>","q","","matchness_practice","mismatch","圆","q","true","mismatch"
"","null","html-keynbutton-response","59","2.0.0","1139320","5","<span class='text-green-400 text-4xl md:text-5xl lg:text-6xl'>正确!</span>","null","trial_feedback","","","","","",""
"","null","html-keynbutton-response","60","2.0.0","1139832","5","<div class=""pb-14 text-7xl"">+</div>","null","fixation","","","","","",""
"","713","html-keynbutton-response","61","2.0.0","1140546","5","<div class=""flex flex-row stim-length pb-8 md:pd-20 justify-evenly items-center""><div class=""circle""></div><div class=""square""></div><div class=""circle""></div></div>","q","","matchness_practice","mismatch","方","q","true","mismatch"
"","null","html-keynbutton-response","62","2.0.0","1141062","5","<span class='text-green-400 text-4xl md:text-5xl lg:text-6xl'>正确!</span>","null","trial_feedback","","","","","",""
"","9659","html-keynbutton-response","64","2.0.0","1150722","5","<div class=""jp"">
    <p>您的正确率是：95%</p>
    <p>您的平均反应时间是：539毫秒</p></div>"," ","block_feedback","","","","","",""
"","4431","html-keynbutton-response","65","2.0.0","1155154","5","
        <div class=""jp px-2 xxs:px-5 mx-auto"">
        <p class=""text-center text-red-600 text-[1.2em] pb-5"">练习结束，现在开始正式实验</p>
        <p>请注意：正式实验中将不再会呈现反馈。</p>
        </div>
        "," ","","","","","","",""
"","null","html-keynbutton-response","66","2.0.0","1158369","5","<count-down title=""""></count-down>","null","countDown_trial","","","","","",""
"","null","html-keynbutton-response","67","2.0.0","1158874","5","<div class=""pb-14 text-7xl"">+</div>","null","fixation","","","","","",""
"","552","html-keynbutton-response","68","2.0.0","1159426","5","<div class=""flex flex-row stim-length pb-8 md:pd-20 justify-evenly items-center""><div class=""circle""></div><div class=""circle""></div><div class=""circle""></div></div>","p","","matchness_test","match","圆","p","true","match"
"","null","html-keynbutton-response","69","2.0.0","1159932","5","<div class=""pb-14 text-7xl"">+</div>","null","fixation","","","","","",""
"","470","html-keynbutton-response","70","2.0.0","1160402","5","<div class=""flex flex-row stim-length pb-8 md:pd-20 justify-evenly items-center""><div class=""square""></div><div class=""circle""></div><div class=""square""></div></div>","q","","matchness_test","mismatch","圆","q","true","mismatch"
"","null","html-keynbutton-response","71","2.0.0","1160912","5","<div class=""pb-14 text-7xl"">+</div>","null","fixation","","","","","",""
"","482","html-keynbutton-response","72","2.0.0","1161394","5","<div class=""flex flex-row stim-length pb-8 md:pd-20 justify-evenly items-center""><div class=""circle""></div><div class=""square""></div><div class=""circle""></div></div>","q","","matchness_test","mismatch","方","q","true","mismatch"
"","null","html-keynbutton-response","73","2.0.0","1161900","5","<div class=""pb-14 text-7xl"">+</div>","null","fixation","","","","","",""
"","374","html-keynbutton-response","74","2.0.0","1162274","5","<div class=""flex flex-row stim-length pb-8 md:pd-20 justify-evenly items-center""><div class=""square""></div><div class=""square""></div><div class=""square""></div></div>","p","","matchness_test","match","方","p","true","match"
"","null","html-keynbutton-response","75","2.0.0","1162775","5","<div class=""pb-14 text-7xl"">+</div>","null","fixation","","","","","",""
"","443","html-keynbutton-response","76","2.0.0","1163218","5","<div class=""flex flex-row stim-length pb-8 md:pd-20 justify-evenly items-center""><div class=""circle""></div><div class=""square""></div><div class=""circle""></div></div>","q","","matchness_test","mismatch","方","q","true","mismatch"
"","null","html-keynbutton-response","77","2.0.0","1163719","5","<div class=""pb-14 text-7xl"">+</div>","null","fixation","","","","","",""
"","459","html-keynbutton-response","78","2.0.0","1164178","5","<div class=""flex flex-row stim-length pb-8 md:pd-20 justify-evenly items-center""><div class=""circle""></div><div class=""circle""></div><div class=""circle""></div></div>","p","","matchness_test","match","圆","p","true","match"
"","null","html-keynbutton-response","79","2.0.0","1164681","5","<div class=""pb-14 text-7xl"">+</div>","null","fixation","","","","","",""
"","425","html-keynbutton-response","80","2.0.0","1165106","5","<div class=""flex flex-row stim-length pb-8 md:pd-20 justify-evenly items-center""><div class=""square""></div><div class=""circle""></div><div class=""square""></div></div>","q","","matchness_test","mismatch","圆","q","true","mismatch"
"","null","html-keynbutton-response","81","2.0.0","1165609","5","<div class=""pb-14 text-7xl"">+</div>","null","fixation","","","","","",""
"","377","html-keynbutton-response","82","2.0.0","1165986","5","<div class=""flex flex-row stim-length pb-8 md:pd-20 justify-evenly items-center""><div class=""square""></div><div class=""square""></div><div class=""square""></div></div>","p","","matchness_test","match","方","p","true","match"
"","null","html-keynbutton-response","83","2.0.0","1166499","5","<div class=""pb-14 text-7xl"">+</div>","null","fixation","","","","","",""
"","447","html-keynbutton-response","84","2.0.0","1166946","5","<div class=""flex flex-row stim-length pb-8 md:pd-20 justify-evenly items-center""><div class=""circle""></div><div class=""square""></div><div class=""circle""></div></div>","q","","matchness_test","mismatch","方","q","true","mismatch"
"","null","html-keynbutton-response","85","2.0.0","1167447","5","<div class=""pb-14 text-7xl"">+</div>","null","fixation","","","","","",""
"","475","html-keynbutton-response","86","2.0.0","1167922","5","<div class=""flex flex-row stim-length pb-8 md:pd-20 justify-evenly items-center""><div class=""square""></div><div class=""square""></div><div class=""square""></div></div>","p","","matchness_test","match","方","p","true","match"
"","null","html-keynbutton-response","87","2.0.0","1168425","5","<div class=""pb-14 text-7xl"">+</div>","null","fixation","","","","","",""
"","481","html-keynbutton-response","88","2.0.0","1168906","5","<div class=""flex flex-row stim-length pb-8 md:pd-20 justify-evenly items-center""><div class=""square""></div><div class=""circle""></div><div class=""square""></div></div>","q","","matchness_test","mismatch","圆","q","true","mismatch"
"","null","html-keynbutton-response","89","2.0.0","1169421","5","<div class=""pb-14 text-7xl"">+</div>","null","fixation","","","","","",""
"","389","html-keynbutton-response","90","2.0.0","1169810","5","<div class=""flex flex-row stim-length pb-8 md:pd-20 justify-evenly items-center""><div class=""circle""></div><div class=""circle""></div><div class=""circle""></div></div>","p","","matchness_test","match","圆","p","true","match"
"","null","html-keynbutton-response","91","2.0.0","1170316","5","<div class=""pb-14 text-7xl"">+</div>","null","fixation","","","","","",""
"","534","html-keynbutton-response","92","2.0.0","1170850","5","<div class=""flex flex-row stim-length pb-8 md:pd-20 justify-evenly items-center""><div class=""square""></div><div class=""square""></div><div class=""square""></div></div>","p","","matchness_test","match","方","p","true","match"
"","null","html-keynbutton-response","93","2.0.0","1171351","5","<div class=""pb-14 text-7xl"">+</div>","null","fixation","","","","","",""
"","427","html-keynbutton-response","94","2.0.0","1171778","5","<div class=""flex flex-row stim-length pb-8 md:pd-20 justify-evenly items-center""><div class=""square""></div><div class=""circle""></div><div class=""square""></div></div>","q","","matchness_test","mismatch","圆","q","true","mismatch"
"","null","html-keynbutton-response","95","2.0.0","1172279","5","<div class=""pb-14 text-7xl"">+</div>","null","fixation","","","","","",""
"","347","html-keynbutton-response","96","2.0.0","1172626","5","<div class=""flex flex-row stim-length pb-8 md:pd-20 justify-evenly items-center""><div class=""circle""></div><div class=""circle""></div><div class=""circle""></div></div>","p","","matchness_test","match","圆","p","true","match"
"","null","html-keynbutton-response","97","2.0.0","1173133","5","<div class=""pb-14 text-7xl"">+</div>","null","fixation","","","","","",""
"","517","html-keynbutton-response","98","2.0.0","1173650","5","<div class=""flex flex-row stim-length pb-8 md:pd-20 justify-evenly items-center""><div class=""circle""></div><div class=""square""></div><div class=""circle""></div></div>","q","","matchness_test","mismatch","方","q","true","mismatch"
"","null","html-keynbutton-response","99","2.0.0","1174151","5","<div class=""pb-14 text-7xl"">+</div>","null","fixation","","","","","",""
"","523","html-keynbutton-response","100","2.0.0","1174674","5","<div class=""flex flex-row stim-length pb-8 md:pd-20 justify-evenly items-center""><div class=""square""></div><div class=""circle""></div><div class=""square""></div></div>","q","","matchness_test","mismatch","圆","q","true","mismatch"
"","null","html-keynbutton-response","101","2.0.0","1175186","5","<div class=""pb-14 text-7xl"">+</div>","null","fixation","","","","","",""
"","336","html-keynbutton-response","102","2.0.0","1175522","5","<div class=""flex flex-row stim-length pb-8 md:pd-20 justify-evenly items-center""><div class=""square""></div><div class=""square""></div><div class=""square""></div></div>","p","","matchness_test","match","方","p","true","match"
"","null","html-keynbutton-response","103","2.0.0","1176023","5","<div class=""pb-14 text-7xl"">+</div>","null","fixation","","","","","",""
"","395","html-keynbutton-response","104","2.0.0","1176418","5","<div class=""flex flex-row stim-length pb-8 md:pd-20 justify-evenly items-center""><div class=""circle""></div><div class=""square""></div><div class=""circle""></div></div>","q","","matchness_test","mismatch","方","q","true","mismatch"
"","null","html-keynbutton-response","105","2.0.0","1176935","5","<div class=""pb-14 text-7xl"">+</div>","null","fixation","","","","","",""
"","395","html-keynbutton-response","106","2.0.0","1177330","5","<div class=""flex flex-row stim-length pb-8 md:pd-20 justify-evenly items-center""><div class=""circle""></div><div class=""circle""></div><div class=""circle""></div></div>","p","","matchness_test","match","圆","p","true","match"
"","null","html-keynbutton-response","107","2.0.0","1177837","5","<div class=""pb-14 text-7xl"">+</div>","null","fixation","","","","","",""
"","789","html-keynbutton-response","108","2.0.0","1178626","5","<div class=""flex flex-row stim-length pb-8 md:pd-20 justify-evenly items-center""><div class=""square""></div><div class=""square""></div><div class=""square""></div></div>","p","","matchness_test","match","方","p","true","match"
"","null","html-keynbutton-response","109","2.0.0","1179137","5","<div class=""pb-14 text-7xl"">+</div>","null","fixation","","","","","",""
"","353","html-keynbutton-response","110","2.0.0","1179490","5","<div class=""flex flex-row stim-length pb-8 md:pd-20 justify-evenly items-center""><div class=""square""></div><div class=""circle""></div><div class=""square""></div></div>","q","","matchness_test","mismatch","圆","q","true","mismatch"
"","null","html-keynbutton-response","111","2.0.0","1179991","5","<div class=""pb-14 text-7xl"">+</div>","null","fixation","","","","","",""
"","379","html-keynbutton-response","112","2.0.0","1180370","5","<div class=""flex flex-row stim-length pb-8 md:pd-20 justify-evenly items-center""><div class=""circle""></div><div class=""circle""></div><div class=""circle""></div></div>","p","","matchness_test","match","圆","p","true","match"
"","null","html-keynbutton-response","113","2.0.0","1180871","5","<div class=""pb-14 text-7xl"">+</div>","null","fixation","","","","","",""
"","363","html-keynbutton-response","114","2.0.0","1181234","5","<div class=""flex flex-row stim-length pb-8 md:pd-20 justify-evenly items-center""><div class=""circle""></div><div class=""square""></div><div class=""circle""></div></div>","q","","matchness_test","mismatch","方","q","true","mismatch"
"","null","html-keynbutton-response","115","2.0.0","1181747","5","<div class=""pb-14 text-7xl"">+</div>","null","fixation","","","","","",""
"","351","html-keynbutton-response","116","2.0.0","1182098","5","<div class=""flex flex-row stim-length pb-8 md:pd-20 justify-evenly items-center""><div class=""square""></div><div class=""square""></div><div class=""square""></div></div>","p","","matchness_test","match","方","p","true","match"
"","null","html-keynbutton-response","117","2.0.0","1182602","5","<div class=""pb-14 text-7xl"">+</div>","null","fixation","","","","","",""
"","392","html-keynbutton-response","118","2.0.0","1182994","5","<div class=""flex flex-row stim-length pb-8 md:pd-20 justify-evenly items-center""><div class=""square""></div><div class=""circle""></div><div class=""square""></div></div>","q","","matchness_test","mismatch","圆","q","true","mismatch"
"","null","html-keynbutton-response","119","2.0.0","1183503","5","<div class=""pb-14 text-7xl"">+</div>","null","fixation","","","","","",""
"","339","html-keynbutton-response","120","2.0.0","1183842","5","<div class=""flex flex-row stim-length pb-8 md:pd-20 justify-evenly items-center""><div class=""circle""></div><div class=""square""></div><div class=""circle""></div></div>","p","","matchness_test","mismatch","方","q","false","match"
"","null","html-keynbutton-response","121","2.0.0","1184348","5","<div class=""pb-14 text-7xl"">+</div>","null","fixation","","","","","",""
"","470","html-keynbutton-response","122","2.0.0","1184818","5","<div class=""flex flex-row stim-length pb-8 md:pd-20 justify-evenly items-center""><div class=""circle""></div><div class=""circle""></div><div class=""circle""></div></div>","p","","matchness_test","match","圆","p","true","match"
"","null","html-keynbutton-response","123","2.0.0","1185320","5","<div class=""pb-14 text-7xl"">+</div>","null","fixation","","","","","",""
"","506","html-keynbutton-response","124","2.0.0","1185826","5","<div class=""flex flex-row stim-length pb-8 md:pd-20 justify-evenly items-center""><div class=""square""></div><div class=""square""></div><div class=""square""></div></div>","p","","matchness_test","match","方","p","true","match"
"","null","html-keynbutton-response","125","2.0.0","1186328","5","<div class=""pb-14 text-7xl"">+</div>","null","fixation","","","","","",""
"","426","html-keynbutton-response","126","2.0.0","1186754","5","<div class=""flex flex-row stim-length pb-8 md:pd-20 justify-evenly items-center""><div class=""circle""></div><div class=""circle""></div><div class=""circle""></div></div>","p","","matchness_test","match","圆","p","true","match"
"","null","html-keynbutton-response","127","2.0.0","1187269","5","<div class=""pb-14 text-7xl"">+</div>","null","fixation","","","","","",""
"","477","html-keynbutton-response","128","2.0.0","1187746","5","<div class=""flex flex-row stim-length pb-8 md:pd-20 justify-evenly items-center""><div class=""circle""></div><div class=""square""></div><div class=""circle""></div></div>","q","","matchness_test","mismatch","方","q","true","mismatch"
"","null","html-keynbutton-response","129","2.0.0","1188254","5","<div class=""pb-14 text-7xl"">+</div>","null","fixation","","","","","",""
"","452","html-keynbutton-response","130","2.0.0","1188706","5","<div class=""flex flex-row stim-length pb-8 md:pd-20 justify-evenly items-center""><div class=""square""></div><div class=""circle""></div><div class=""square""></div></div>","q","","matchness_test","mismatch","圆","q","true","mismatch"
"","null","html-keynbutton-response","131","2.0.0","1189207","5","<div class=""pb-14 text-7xl"">+</div>","null","fixation","","","","","",""
"","395","html-keynbutton-response","132","2.0.0","1189602","5","<div class=""flex flex-row stim-length pb-8 md:pd-20 justify-evenly items-center""><div class=""square""></div><div class=""circle""></div><div class=""square""></div></div>","q","","matchness_test","mismatch","圆","q","true","mismatch"
"","null","html-keynbutton-response","133","2.0.0","1190110","5","<div class=""pb-14 text-7xl"">+</div>","null","fixation","","","","","",""
"","420","html-keynbutton-response","134","2.0.0","1190530","5","<div class=""flex flex-row stim-length pb-8 md:pd-20 justify-evenly items-center""><div class=""circle""></div><div class=""circle""></div><div class=""circle""></div></div>","p","","matchness_test","match","圆","p","true","match"
"","null","html-keynbutton-response","135","2.0.0","1191032","5","<div class=""pb-14 text-7xl"">+</div>","null","fixation","","","","","",""
"","394","html-keynbutton-response","136","2.0.0","1191426","5","<div class=""flex flex-row stim-length pb-8 md:pd-20 justify-evenly items-center""><div class=""circle""></div><div class=""square""></div><div class=""circle""></div></div>","q","","matchness_test","mismatch","方","q","true","mismatch"
"","null","html-keynbutton-response","137","2.0.0","1191927","5","<div class=""pb-14 text-7xl"">+</div>","null","fixation","","","","","",""
"","587","html-keynbutton-response","138","2.0.0","1192514","5","<div class=""flex flex-row stim-length pb-8 md:pd-20 justify-evenly items-center""><div class=""square""></div><div class=""square""></div><div class=""square""></div></div>","p","","matchness_test","match","方","p","true","match"
"","null","html-keynbutton-response","139","2.0.0","1193015","5","<div class=""pb-14 text-7xl"">+</div>","null","fixation","","","","","",""
"","395","html-keynbutton-response","140","2.0.0","1193410","5","<div class=""flex flex-row stim-length pb-8 md:pd-20 justify-evenly items-center""><div class=""circle""></div><div class=""circle""></div><div class=""circle""></div></div>","p","","matchness_test","match","圆","p","true","match"
"","null","html-keynbutton-response","141","2.0.0","1193919","5","<div class=""pb-14 text-7xl"">+</div>","null","fixation","","","","","",""
"","387","html-keynbutton-response","142","2.0.0","1194306","5","<div class=""flex flex-row stim-length pb-8 md:pd-20 justify-evenly items-center""><div class=""square""></div><div class=""circle""></div><div class=""square""></div></div>","q","","matchness_test","mismatch","圆","q","true","mismatch"
"","null","html-keynbutton-response","143","2.0.0","1194812","5","<div class=""pb-14 text-7xl"">+</div>","null","fixation","","","","","",""
"","502","html-keynbutton-response","144","2.0.0","1195314","5","<div class=""flex flex-row stim-length pb-8 md:pd-20 justify-evenly items-center""><div class=""circle""></div><div class=""square""></div><div class=""circle""></div></div>","q","","matchness_test","mismatch","方","q","true","mismatch"
"","null","html-keynbutton-response","145","2.0.0","1195820","5","<div class=""pb-14 text-7xl"">+</div>","null","fixation","","","","","",""
"","390","html-keynbutton-response","146","2.0.0","1196210","5","<div class=""flex flex-row stim-length pb-8 md:pd-20 justify-evenly items-center""><div class=""square""></div><div class=""square""></div><div class=""square""></div></div>","p","","matchness_test","match","方","p","true","match"
"","11279","html-keynbutton-response","147","2.0.0","1207491","5","<div class=""jp""><p>您已完成1/10部分</p><p>请休息一会儿</p>
    <p>您的正确率是：98%</p>
    <p>您的平均反应时间是：440毫秒</p></div>"," ","block_feedback","","","","","",""
"","null","html-keynbutton-response","148","2.0.0","1210703","5","<count-down title=""""></count-down>","null","countDown_trial","","","","","",""
"","null","html-keynbutton-response","149","2.0.0","1211208","5","<div class=""pb-14 text-7xl"">+</div>","null","fixation","","","","","",""
"","394","html-keynbutton-response","150","2.0.0","1211602","5","<div class=""flex flex-row stim-length pb-8 md:pd-20 justify-evenly items-center""><div class=""circle""></div><div class=""square""></div><div class=""circle""></div></div>","q","","matchness_test_1","mismatch","方","q","true","mismatch"
"","null","html-keynbutton-response","151","2.0.0","1212103","5","<div class=""pb-14 text-7xl"">+</div>","null","fixation","","","","","",""
"","475","html-keynbutton-response","152","2.0.0","1212578","5","<div class=""flex flex-row stim-length pb-8 md:pd-20 justify-evenly items-center""><div class=""square""></div><div class=""circle""></div><div class=""square""></div></div>","q","","matchness_test_1","mismatch","圆","q","true","mismatch"
"","null","html-keynbutton-response","153","2.0.0","1213082","5","<div class=""pb-14 text-7xl"">+</div>","null","fixation","","","","","",""
"","377","html-keynbutton-response","154","2.0.0","1213458","5","<div class=""flex flex-row stim-length pb-8 md:pd-20 justify-evenly items-center""><div class=""square""></div><div class=""square""></div><div class=""square""></div></div>","p","","matchness_test_1","match","方","p","true","match"
"","null","html-keynbutton-response","155","2.0.0","1213971","5","<div class=""pb-14 text-7xl"">+</div>","null","fixation","","","","","",""
"","543","html-keynbutton-response","156","2.0.0","1214514","5","<div class=""flex flex-row stim-length pb-8 md:pd-20 justify-evenly items-center""><div class=""circle""></div><div class=""circle""></div><div class=""circle""></div></div>","p","","matchness_test_1","match","圆","p","true","match"
"","null","html-keynbutton-response","157","2.0.0","1215016","5","<div class=""pb-14 text-7xl"">+</div>","null","fixation","","","","","",""
"","506","html-keynbutton-response","158","2.0.0","1215522","5","<div class=""flex flex-row stim-length pb-8 md:pd-20 justify-evenly items-center""><div class=""circle""></div><div class=""circle""></div><div class=""circle""></div></div>","p","","matchness_test_1","match","圆","p","true","match"
"","null","html-keynbutton-response","159","2.0.0","1216026","5","<div class=""pb-14 text-7xl"">+</div>","null","fixation","","","","","",""
"","601","html-keynbutton-response","160","2.0.0","1216626","5","<div class=""flex flex-row stim-length pb-8 md:pd-20 justify-evenly items-center""><div class=""square""></div><div class=""square""></div><div class=""square""></div></div>","p","","matchness_test_1","match","方","p","true","match"
"","null","html-keynbutton-response","161","2.0.0","1217135","5","<div class=""pb-14 text-7xl"">+</div>","null","fixation","","","","","",""
"","483","html-keynbutton-response","162","2.0.0","1217618","5","<div class=""flex flex-row stim-length pb-8 md:pd-20 justify-evenly items-center""><div class=""circle""></div><div class=""square""></div><div class=""circle""></div></div>","q","","matchness_test_1","mismatch","方","q","true","mismatch"
"","null","html-keynbutton-response","163","2.0.0","1218123","5","<div class=""pb-14 text-7xl"">+</div>","null","fixation","","","","","",""
"","487","html-keynbutton-response","164","2.0.0","1218610","5","<div class=""flex flex-row stim-length pb-8 md:pd-20 justify-evenly items-center""><div class=""square""></div><div class=""circle""></div><div class=""square""></div></div>","q","","matchness_test_1","mismatch","圆","q","true","mismatch"
"","null","html-keynbutton-response","165","2.0.0","1219117","5","<div class=""pb-14 text-7xl"">+</div>","null","fixation","","","","","",""
"","597","html-keynbutton-response","166","2.0.0","1219714","5","<div class=""flex flex-row stim-length pb-8 md:pd-20 justify-evenly items-center""><div class=""circle""></div><div class=""circle""></div><div class=""circle""></div></div>","p","","matchness_test_1","match","圆","p","true","match"
"","null","html-keynbutton-response","167","2.0.0","1220216","5","<div class=""pb-14 text-7xl"">+</div>","null","fixation","","","","","",""
"","379","html-keynbutton-response","168","2.0.0","1220594","5","<div class=""flex flex-row stim-length pb-8 md:pd-20 justify-evenly items-center""><div class=""circle""></div><div class=""square""></div><div class=""circle""></div></div>","q","","matchness_test_1","mismatch","方","q","true","mismatch"
"","null","html-keynbutton-response","169","2.0.0","1221095","5","<div class=""pb-14 text-7xl"">+</div>","null","fixation","","","","","",""
"","491","html-keynbutton-response","170","2.0.0","1221586","5","<div class=""flex flex-row stim-length pb-8 md:pd-20 justify-evenly items-center""><div class=""square""></div><div class=""square""></div><div class=""square""></div></div>","p","","matchness_test_1","match","方","p","true","match"
"","null","html-keynbutton-response","171","2.0.0","1222102","5","<div class=""pb-14 text-7xl"">+</div>","null","fixation","","","","","",""
"","364","html-keynbutton-response","172","2.0.0","1222466","5","<div class=""flex flex-row stim-length pb-8 md:pd-20 justify-evenly items-center""><div class=""square""></div><div class=""circle""></div><div class=""square""></div></div>","q","","matchness_test_1","mismatch","圆","q","true","mismatch"
"","null","html-keynbutton-response","173","2.0.0","1222972","5","<div class=""pb-14 text-7xl"">+</div>","null","fixation","","","","","",""
"","374","html-keynbutton-response","174","2.0.0","1223346","5","<div class=""flex flex-row stim-length pb-8 md:pd-20 justify-evenly items-center""><div class=""square""></div><div class=""circle""></div><div class=""square""></div></div>","q","","matchness_test_1","mismatch","圆","q","true","mismatch"
"","null","html-keynbutton-response","175","2.0.0","1223856","5","<div class=""pb-14 text-7xl"">+</div>","null","fixation","","","","","",""
"","418","html-keynbutton-response","176","2.0.0","1224274","5","<div class=""flex flex-row stim-length pb-8 md:pd-20 justify-evenly items-center""><div class=""square""></div><div class=""square""></div><div class=""square""></div></div>","p","","matchness_test_1","match","方","p","true","match"
"","null","html-keynbutton-response","177","2.0.0","1224775","5","<div class=""pb-14 text-7xl"">+</div>","null","fixation","","","","","",""
"","507","html-keynbutton-response","178","2.0.0","1225282","5","<div class=""flex flex-row stim-length pb-8 md:pd-20 justify-evenly items-center""><div class=""circle""></div><div class=""circle""></div><div class=""circle""></div></div>","p","","matchness_test_1","match","圆","p","true","match"
"","null","html-keynbutton-response","179","2.0.0","1225793","5","<div class=""pb-14 text-7xl"">+</div>","null","fixation","","","","","",""
"","417","html-keynbutton-response","180","2.0.0","1226210","5","<div class=""flex flex-row stim-length pb-8 md:pd-20 justify-evenly items-center""><div class=""circle""></div><div class=""square""></div><div class=""circle""></div></div>","q","","matchness_test_1","mismatch","方","q","true","mismatch"
"","null","html-keynbutton-response","181","2.0.0","1226719","5","<div class=""pb-14 text-7xl"">+</div>","null","fixation","","","","","",""
"","403","html-keynbutton-response","182","2.0.0","1227122","5","<div class=""flex flex-row stim-length pb-8 md:pd-20 justify-evenly items-center""><div class=""square""></div><div class=""square""></div><div class=""square""></div></div>","p","","matchness_test_1","match","方","p","true","match"
"","null","html-keynbutton-response","183","2.0.0","1227636","5","<div class=""pb-14 text-7xl"">+</div>","null","fixation","","","","","",""
"","511","html-keynbutton-response","184","2.0.0","1228146","5","<div class=""flex flex-row stim-length pb-8 md:pd-20 justify-evenly items-center""><div class=""circle""></div><div class=""circle""></div><div class=""circle""></div></div>","p","","matchness_test_1","match","圆","p","true","match"
"","null","html-keynbutton-response","185","2.0.0","1228657","5","<div class=""pb-14 text-7xl"">+</div>","null","fixation","","","","","",""
"","401","html-keynbutton-response","186","2.0.0","1229058","5","<div class=""flex flex-row stim-length pb-8 md:pd-20 justify-evenly items-center""><div class=""circle""></div><div class=""square""></div><div class=""circle""></div></div>","q","","matchness_test_1","mismatch","方","q","true","mismatch"
"","null","html-keynbutton-response","187","2.0.0","1229559","5","<div class=""pb-14 text-7xl"">+</div>","null","fixation","","","","","",""
"","491","html-keynbutton-response","188","2.0.0","1230050","5","<div class=""flex flex-row stim-length pb-8 md:pd-20 justify-evenly items-center""><div class=""square""></div><div class=""circle""></div><div class=""square""></div></div>","q","","matchness_test_1","mismatch","圆","q","true","mismatch"
"","null","html-keynbutton-response","189","2.0.0","1230558","5","<div class=""pb-14 text-7xl"">+</div>","null","fixation","","","","","",""
"","372","html-keynbutton-response","190","2.0.0","1230930","5","<div class=""flex flex-row stim-length pb-8 md:pd-20 justify-evenly items-center""><div class=""square""></div><div class=""circle""></div><div class=""square""></div></div>","q","","matchness_test_1","mismatch","圆","q","true","mismatch"
"","null","html-keynbutton-response","191","2.0.0","1231432","5","<div class=""pb-14 text-7xl"">+</div>","null","fixation","","","","","",""
"","474","html-keynbutton-response","192","2.0.0","1231906","5","<div class=""flex flex-row stim-length pb-8 md:pd-20 justify-evenly items-center""><div class=""circle""></div><div class=""circle""></div><div class=""circle""></div></div>","p","","matchness_test_1","match","圆","p","true","match"
"","null","html-keynbutton-response","193","2.0.0","1232410","5","<div class=""pb-14 text-7xl"">+</div>","null","fixation","","","","","",""
"","376","html-keynbutton-response","194","2.0.0","1232786","5","<div class=""flex flex-row stim-length pb-8 md:pd-20 justify-evenly items-center""><div class=""circle""></div><div class=""square""></div><div class=""circle""></div></div>","q","","matchness_test_1","mismatch","方","q","true","mismatch"
"","null","html-keynbutton-response","195","2.0.0","1233287","5","<div class=""pb-14 text-7xl"">+</div>","null","fixation","","","","","",""
"","379","html-keynbutton-response","196","2.0.0","1233666","5","<div class=""flex flex-row stim-length pb-8 md:pd-20 justify-evenly items-center""><div class=""square""></div><div class=""square""></div><div class=""square""></div></div>","p","","matchness_test_1","match","方","p","true","match"
"","null","html-keynbutton-response","197","2.0.0","1234173","5","<div class=""pb-14 text-7xl"">+</div>","null","fixation","","","","","",""
"","453","html-keynbutton-response","198","2.0.0","1234626","5","<div class=""flex flex-row stim-length pb-8 md:pd-20 justify-evenly items-center""><div class=""square""></div><div class=""circle""></div><div class=""square""></div></div>","q","","matchness_test_1","mismatch","圆","q","true","mismatch"
"","null","html-keynbutton-response","199","2.0.0","1235133","5","<div class=""pb-14 text-7xl"">+</div>","null","fixation","","","","","",""
"","373","html-keynbutton-response","200","2.0.0","1235506","5","<div class=""flex flex-row stim-length pb-8 md:pd-20 justify-evenly items-center""><div class=""square""></div><div class=""square""></div><div class=""square""></div></div>","p","","matchness_test_1","match","方","p","true","match"
"","null","html-keynbutton-response","201","2.0.0","1236008","5","<div class=""pb-14 text-7xl"">+</div>","null","fixation","","","","","",""
"","362","html-keynbutton-response","202","2.0.0","1236370","5","<div class=""flex flex-row stim-length pb-8 md:pd-20 justify-evenly items-center""><div class=""circle""></div><div class=""square""></div><div class=""circle""></div></div>","q","","matchness_test_1","mismatch","方","q","true","mismatch"
"","null","html-keynbutton-response","203","2.0.0","1236872","5","<div class=""pb-14 text-7xl"">+</div>","null","fixation","","","","","",""
"","443","html-keynbutton-response","204","2.0.0","1237314","5","<div class=""flex flex-row stim-length pb-8 md:pd-20 justify-evenly items-center""><div class=""circle""></div><div class=""circle""></div><div class=""circle""></div></div>","p","","matchness_test_1","match","圆","p","true","match"
"","null","html-keynbutton-response","205","2.0.0","1237822","5","<div class=""pb-14 text-7xl"">+</div>","null","fixation","","","","","",""
"","436","html-keynbutton-response","206","2.0.0","1238258","5","<div class=""flex flex-row stim-length pb-8 md:pd-20 justify-evenly items-center""><div class=""circle""></div><div class=""circle""></div><div class=""circle""></div></div>","p","","matchness_test_1","match","圆","p","true","match"
"","null","html-keynbutton-response","207","2.0.0","1238763","5","<div class=""pb-14 text-7xl"">+</div>","null","fixation","","","","","",""
"","439","html-keynbutton-response","208","2.0.0","1239202","5","<div class=""flex flex-row stim-length pb-8 md:pd-20 justify-evenly items-center""><div class=""circle""></div><div class=""square""></div><div class=""circle""></div></div>","q","","matchness_test_1","mismatch","方","q","true","mismatch"
"","null","html-keynbutton-response","209","2.0.0","1239703","5","<div class=""pb-14 text-7xl"">+</div>","null","fixation","","","","","",""
"","507","html-keynbutton-response","210","2.0.0","1240211","5","<div class=""flex flex-row stim-length pb-8 md:pd-20 justify-evenly items-center""><div class=""square""></div><div class=""circle""></div><div class=""square""></div></div>","q","","matchness_test_1","mismatch","圆","q","true","mismatch"
"","null","html-keynbutton-response","211","2.0.0","1240722","5","<div class=""pb-14 text-7xl"">+</div>","null","fixation","","","","","",""
"","384","html-keynbutton-response","212","2.0.0","1241106","5","<div class=""flex flex-row stim-length pb-8 md:pd-20 justify-evenly items-center""><div class=""square""></div><div class=""square""></div><div class=""square""></div></div>","p","","matchness_test_1","match","方","p","true","match"
"","null","html-keynbutton-response","213","2.0.0","1241607","5","<div class=""pb-14 text-7xl"">+</div>","null","fixation","","","","","",""
"","427","html-keynbutton-response","214","2.0.0","1242034","5","<div class=""flex flex-row stim-length pb-8 md:pd-20 justify-evenly items-center""><div class=""square""></div><div class=""circle""></div><div class=""square""></div></div>","q","","matchness_test_1","mismatch","圆","q","true","mismatch"
"","null","html-keynbutton-response","215","2.0.0","1242536","5","<div class=""pb-14 text-7xl"">+</div>","null","fixation","","","","","",""
"","410","html-keynbutton-response","216","2.0.0","1242946","5","<div class=""flex flex-row stim-length pb-8 md:pd-20 justify-evenly items-center""><div class=""circle""></div><div class=""circle""></div><div class=""circle""></div></div>","p","","matchness_test_1","match","圆","p","true","match"
"","null","html-keynbutton-response","217","2.0.0","1243447","5","<div class=""pb-14 text-7xl"">+</div>","null","fixation","","","","","",""
"","427","html-keynbutton-response","218","2.0.0","1243874","5","<div class=""flex flex-row stim-length pb-8 md:pd-20 justify-evenly items-center""><div class=""circle""></div><div class=""square""></div><div class=""circle""></div></div>","q","","matchness_test_1","mismatch","方","q","true","mismatch"
"","null","html-keynbutton-response","219","2.0.0","1244391","5","<div class=""pb-14 text-7xl"">+</div>","null","fixation","","","","","",""
"","395","html-keynbutton-response","220","2.0.0","1244786","5","<div class=""flex flex-row stim-length pb-8 md:pd-20 justify-evenly items-center""><div class=""square""></div><div class=""square""></div><div class=""square""></div></div>","p","","matchness_test_1","match","方","p","true","match"
"","null","html-keynbutton-response","221","2.0.0","1245290","5","<div class=""pb-14 text-7xl"">+</div>","null","fixation","","","","","",""
"","440","html-keynbutton-response","222","2.0.0","1245730","5","<div class=""flex flex-row stim-length pb-8 md:pd-20 justify-evenly items-center""><div class=""square""></div><div class=""square""></div><div class=""square""></div></div>","p","","matchness_test_1","match","方","p","true","match"
"","null","html-keynbutton-response","223","2.0.0","1246244","5","<div class=""pb-14 text-7xl"">+</div>","null","fixation","","","","","",""
"","414","html-keynbutton-response","224","2.0.0","1246658","5","<div class=""flex flex-row stim-length pb-8 md:pd-20 justify-evenly items-center""><div class=""circle""></div><div class=""circle""></div><div class=""circle""></div></div>","p","","matchness_test_1","match","圆","p","true","match"
"","null","html-keynbutton-response","225","2.0.0","1247164","5","<div class=""pb-14 text-7xl"">+</div>","null","fixation","","","","","",""
"","422","html-keynbutton-response","226","2.0.0","1247586","5","<div class=""flex flex-row stim-length pb-8 md:pd-20 justify-evenly items-center""><div class=""circle""></div><div class=""square""></div><div class=""circle""></div></div>","q","","matchness_test_1","mismatch","方","q","true","mismatch"
"","null","html-keynbutton-response","227","2.0.0","1248100","5","<div class=""pb-14 text-7xl"">+</div>","null","fixation","","","","","",""
"","398","html-keynbutton-response","228","2.0.0","1248498","5","<div class=""flex flex-row stim-length pb-8 md:pd-20 justify-evenly items-center""><div class=""square""></div><div class=""circle""></div><div class=""square""></div></div>","q","","matchness_test_1","mismatch","圆","q","true","mismatch"
"","11023","html-keynbutton-response","229","2.0.0","1259522","5","<div class=""jp""><p>您已完成2/10部分</p><p>请休息一会儿</p>
    <p>您的正确率是：100%</p>
    <p>您的平均反应时间是：439毫秒</p></div>"," ","block_feedback","","","","","",""
"","null","html-keynbutton-response","230","2.0.0","1262735","5","<count-down title=""""></count-down>","null","countDown_trial","","","","","",""
"","null","html-keynbutton-response","231","2.0.0","1263241","5","<div class=""pb-14 text-7xl"">+</div>","null","fixation","","","","","",""
"","345","html-keynbutton-response","232","2.0.0","1263586","5","<div class=""flex flex-row stim-length pb-8 md:pd-20 justify-evenly items-center""><div class=""square""></div><div class=""circle""></div><div class=""square""></div></div>","q","","matchness_test_2","mismatch","圆","q","true","mismatch"
"","null","html-keynbutton-response","233","2.0.0","1264092","5","<div class=""pb-14 text-7xl"">+</div>","null","fixation","","","","","",""
"","390","html-keynbutton-response","234","2.0.0","1264482","5","<div class=""flex flex-row stim-length pb-8 md:pd-20 justify-evenly items-center""><div class=""circle""></div><div class=""circle""></div><div class=""circle""></div></div>","p","","matchness_test_2","match","圆","p","true","match"
"","null","html-keynbutton-response","235","2.0.0","1264985","5","<div class=""pb-14 text-7xl"">+</div>","null","fixation","","","","","",""
"","424","html-keynbutton-response","236","2.0.0","1265410","5","<div class=""flex flex-row stim-length pb-8 md:pd-20 justify-evenly items-center""><div class=""circle""></div><div class=""square""></div><div class=""circle""></div></div>","q","","matchness_test_2","mismatch","方","q","true","mismatch"
"","null","html-keynbutton-response","237","2.0.0","1265911","5","<div class=""pb-14 text-7xl"">+</div>","null","fixation","","","","","",""
"","331","html-keynbutton-response","238","2.0.0","1266242","5","<div class=""flex flex-row stim-length pb-8 md:pd-20 justify-evenly items-center""><div class=""square""></div><div class=""square""></div><div class=""square""></div></div>","p","","matchness_test_2","match","方","p","true","match"
"","null","html-keynbutton-response","239","2.0.0","1266749","5","<div class=""pb-14 text-7xl"">+</div>","null","fixation","","","","","",""
"","373","html-keynbutton-response","240","2.0.0","1267122","5","<div class=""flex flex-row stim-length pb-8 md:pd-20 justify-evenly items-center""><div class=""square""></div><div class=""circle""></div><div class=""square""></div></div>","q","","matchness_test_2","mismatch","圆","q","true","mismatch"
"","null","html-keynbutton-response","241","2.0.0","1267632","5","<div class=""pb-14 text-7xl"">+</div>","null","fixation","","","","","",""
"","401","html-keynbutton-response","242","2.0.0","1268034","5","<div class=""flex flex-row stim-length pb-8 md:pd-20 justify-evenly items-center""><div class=""circle""></div><div class=""square""></div><div class=""circle""></div></div>","q","","matchness_test_2","mismatch","方","q","true","mismatch"
"","null","html-keynbutton-response","243","2.0.0","1268544","5","<div class=""pb-14 text-7xl"">+</div>","null","fixation","","","","","",""
"","433","html-keynbutton-response","244","2.0.0","1268978","5","<div class=""flex flex-row stim-length pb-8 md:pd-20 justify-evenly items-center""><div class=""square""></div><div class=""square""></div><div class=""square""></div></div>","p","","matchness_test_2","match","方","p","true","match"
"","null","html-keynbutton-response","245","2.0.0","1269490","5","<div class=""pb-14 text-7xl"">+</div>","null","fixation","","","","","",""
"","448","html-keynbutton-response","246","2.0.0","1269938","5","<div class=""flex flex-row stim-length pb-8 md:pd-20 justify-evenly items-center""><div class=""circle""></div><div class=""circle""></div><div class=""circle""></div></div>","p","","matchness_test_2","match","圆","p","true","match"
"","null","html-keynbutton-response","247","2.0.0","1270439","5","<div class=""pb-14 text-7xl"">+</div>","null","fixation","","","","","",""
"","523","html-keynbutton-response","248","2.0.0","1270962","5","<div class=""flex flex-row stim-length pb-8 md:pd-20 justify-evenly items-center""><div class=""square""></div><div class=""circle""></div><div class=""square""></div></div>","q","","matchness_test_2","mismatch","圆","q","true","mismatch"
"","null","html-keynbutton-response","249","2.0.0","1271471","5","<div class=""pb-14 text-7xl"">+</div>","null","fixation","","","","","",""
"","547","html-keynbutton-response","250","2.0.0","1272018","5","<div class=""flex flex-row stim-length pb-8 md:pd-20 justify-evenly items-center""><div class=""square""></div><div class=""square""></div><div class=""square""></div></div>","p","","matchness_test_2","match","方","p","true","match"
"","null","html-keynbutton-response","251","2.0.0","1272531","5","<div class=""pb-14 text-7xl"">+</div>","null","fixation","","","","","",""
"","478","html-keynbutton-response","252","2.0.0","1273010","5","<div class=""flex flex-row stim-length pb-8 md:pd-20 justify-evenly items-center""><div class=""circle""></div><div class=""circle""></div><div class=""circle""></div></div>","p","","matchness_test_2","match","圆","p","true","match"
"","null","html-keynbutton-response","253","2.0.0","1273516","5","<div class=""pb-14 text-7xl"">+</div>","null","fixation","","","","","",""
"","438","html-keynbutton-response","254","2.0.0","1273954","5","<div class=""flex flex-row stim-length pb-8 md:pd-20 justify-evenly items-center""><div class=""circle""></div><div class=""square""></div><div class=""circle""></div></div>","q","","matchness_test_2","mismatch","方","q","true","mismatch"
"","null","html-keynbutton-response","255","2.0.0","1274455","5","<div class=""pb-14 text-7xl"">+</div>","null","fixation","","","","","",""
"","378","html-keynbutton-response","256","2.0.0","1274834","5","<div class=""flex flex-row stim-length pb-8 md:pd-20 justify-evenly items-center""><div class=""circle""></div><div class=""circle""></div><div class=""circle""></div></div>","p","","matchness_test_2","match","圆","p","true","match"
"","null","html-keynbutton-response","257","2.0.0","1275343","5","<div class=""pb-14 text-7xl"">+</div>","null","fixation","","","","","",""
"","514","html-keynbutton-response","258","2.0.0","1275858","5","<div class=""flex flex-row stim-length pb-8 md:pd-20 justify-evenly items-center""><div class=""square""></div><div class=""circle""></div><div class=""square""></div></div>","q","","matchness_test_2","mismatch","圆","q","true","mismatch"
"","null","html-keynbutton-response","259","2.0.0","1276371","5","<div class=""pb-14 text-7xl"">+</div>","null","fixation","","","","","",""
"","335","html-keynbutton-response","260","2.0.0","1276706","5","<div class=""flex flex-row stim-length pb-8 md:pd-20 justify-evenly items-center""><div class=""square""></div><div class=""square""></div><div class=""square""></div></div>","p","","matchness_test_2","match","方","p","true","match"
"","null","html-keynbutton-response","261","2.0.0","1277222","5","<div class=""pb-14 text-7xl"">+</div>","null","fixation","","","","","",""
"","380","html-keynbutton-response","262","2.0.0","1277602","5","<div class=""flex flex-row stim-length pb-8 md:pd-20 justify-evenly items-center""><div class=""circle""></div><div class=""square""></div><div class=""circle""></div></div>","q","","matchness_test_2","mismatch","方","q","true","mismatch"
"","null","html-keynbutton-response","263","2.0.0","1278110","5","<div class=""pb-14 text-7xl"">+</div>","null","fixation","","","","","",""
"","340","html-keynbutton-response","264","2.0.0","1278450","5","<div class=""flex flex-row stim-length pb-8 md:pd-20 justify-evenly items-center""><div class=""circle""></div><div class=""circle""></div><div class=""circle""></div></div>","p","","matchness_test_2","match","圆","p","true","match"
"","null","html-keynbutton-response","265","2.0.0","1278958","5","<div class=""pb-14 text-7xl"">+</div>","null","fixation","","","","","",""
"","372","html-keynbutton-response","266","2.0.0","1279330","5","<div class=""flex flex-row stim-length pb-8 md:pd-20 justify-evenly items-center""><div class=""circle""></div><div class=""square""></div><div class=""circle""></div></div>","q","","matchness_test_2","mismatch","方","q","true","mismatch"
"","null","html-keynbutton-response","267","2.0.0","1279832","5","<div class=""pb-14 text-7xl"">+</div>","null","fixation","","","","","",""
"","521","html-keynbutton-response","268","2.0.0","1280354","5","<div class=""flex flex-row stim-length pb-8 md:pd-20 justify-evenly items-center""><div class=""square""></div><div class=""circle""></div><div class=""square""></div></div>","q","","matchness_test_2","mismatch","圆","q","true","mismatch"
"","null","html-keynbutton-response","269","2.0.0","1280857","5","<div class=""pb-14 text-7xl"">+</div>","null","fixation","","","","","",""
"","392","html-keynbutton-response","270","2.0.0","1281250","5","<div class=""flex flex-row stim-length pb-8 md:pd-20 justify-evenly items-center""><div class=""square""></div><div class=""square""></div><div class=""square""></div></div>","p","","matchness_test_2","match","方","p","true","match"
"","null","html-keynbutton-response","271","2.0.0","1281751","5","<div class=""pb-14 text-7xl"">+</div>","null","fixation","","","","","",""
"","378","html-keynbutton-response","272","2.0.0","1282130","5","<div class=""flex flex-row stim-length pb-8 md:pd-20 justify-evenly items-center""><div class=""square""></div><div class=""circle""></div><div class=""square""></div></div>","q","","matchness_test_2","mismatch","圆","q","true","mismatch"
"","null","html-keynbutton-response","273","2.0.0","1282631","5","<div class=""pb-14 text-7xl"">+</div>","null","fixation","","","","","",""
"","427","html-keynbutton-response","274","2.0.0","1283058","5","<div class=""flex flex-row stim-length pb-8 md:pd-20 justify-evenly items-center""><div class=""circle""></div><div class=""square""></div><div class=""circle""></div></div>","q","","matchness_test_2","mismatch","方","q","true","mismatch"
"","null","html-keynbutton-response","275","2.0.0","1283559","5","<div class=""pb-14 text-7xl"">+</div>","null","fixation","","","","","",""
"","362","html-keynbutton-response","276","2.0.0","1283922","5","<div class=""flex flex-row stim-length pb-8 md:pd-20 justify-evenly items-center""><div class=""circle""></div><div class=""circle""></div><div class=""circle""></div></div>","p","","matchness_test_2","match","圆","p","true","match"
"","null","html-keynbutton-response","277","2.0.0","1284422","5","<div class=""pb-14 text-7xl"">+</div>","null","fixation","","","","","",""
"","395","html-keynbutton-response","278","2.0.0","1284818","5","<div class=""flex flex-row stim-length pb-8 md:pd-20 justify-evenly items-center""><div class=""square""></div><div class=""square""></div><div class=""square""></div></div>","p","","matchness_test_2","match","方","p","true","match"
"","null","html-keynbutton-response","279","2.0.0","1285331","5","<div class=""pb-14 text-7xl"">+</div>","null","fixation","","","","","",""
"","383","html-keynbutton-response","280","2.0.0","1285714","5","<div class=""flex flex-row stim-length pb-8 md:pd-20 justify-evenly items-center""><div class=""square""></div><div class=""circle""></div><div class=""square""></div></div>","q","","matchness_test_2","mismatch","圆","q","true","mismatch"
"","null","html-keynbutton-response","281","2.0.0","1286224","5","<div class=""pb-14 text-7xl"">+</div>","null","fixation","","","","","",""
"","369","html-keynbutton-response","282","2.0.0","1286594","5","<div class=""flex flex-row stim-length pb-8 md:pd-20 justify-evenly items-center""><div class=""circle""></div><div class=""circle""></div><div class=""circle""></div></div>","p","","matchness_test_2","match","圆","p","true","match"
"","null","html-keynbutton-response","283","2.0.0","1287095","5","<div class=""pb-14 text-7xl"">+</div>","null","fixation","","","","","",""
"","410","html-keynbutton-response","284","2.0.0","1287506","5","<div class=""flex flex-row stim-length pb-8 md:pd-20 justify-evenly items-center""><div class=""square""></div><div class=""square""></div><div class=""square""></div></div>","p","","matchness_test_2","match","方","p","true","match"
"","null","html-keynbutton-response","285","2.0.0","1288019","5","<div class=""pb-14 text-7xl"">+</div>","null","fixation","","","","","",""
"","398","html-keynbutton-response","286","2.0.0","1288417","5","<div class=""flex flex-row stim-length pb-8 md:pd-20 justify-evenly items-center""><div class=""circle""></div><div class=""square""></div><div class=""circle""></div></div>","q","","matchness_test_2","mismatch","方","q","true","mismatch"
"","null","html-keynbutton-response","287","2.0.0","1288919","5","<div class=""pb-14 text-7xl"">+</div>","null","fixation","","","","","",""
"","331","html-keynbutton-response","288","2.0.0","1289250","5","<div class=""flex flex-row stim-length pb-8 md:pd-20 justify-evenly items-center""><div class=""circle""></div><div class=""circle""></div><div class=""circle""></div></div>","p","","matchness_test_2","match","圆","p","true","match"
"","null","html-keynbutton-response","289","2.0.0","1289751","5","<div class=""pb-14 text-7xl"">+</div>","null","fixation","","","","","",""
"","299","html-keynbutton-response","290","2.0.0","1290050","5","<div class=""flex flex-row stim-length pb-8 md:pd-20 justify-evenly items-center""><div class=""square""></div><div class=""circle""></div><div class=""square""></div></div>","q","","matchness_test_2","mismatch","圆","q","true","mismatch"
"","null","html-keynbutton-response","291","2.0.0","1290550","5","<div class=""pb-14 text-7xl"">+</div>","null","fixation","","","","","",""
"","331","html-keynbutton-response","292","2.0.0","1290882","5","<div class=""flex flex-row stim-length pb-8 md:pd-20 justify-evenly items-center""><div class=""square""></div><div class=""square""></div><div class=""square""></div></div>","p","","matchness_test_2","match","方","p","true","match"
"","null","html-keynbutton-response","293","2.0.0","1291382","5","<div class=""pb-14 text-7xl"">+</div>","null","fixation","","","","","",""
"","379","html-keynbutton-response","294","2.0.0","1291762","5","<div class=""flex flex-row stim-length pb-8 md:pd-20 justify-evenly items-center""><div class=""circle""></div><div class=""square""></div><div class=""circle""></div></div>","q","","matchness_test_2","mismatch","方","q","true","mismatch"
"","null","html-keynbutton-response","295","2.0.0","1292277","5","<div class=""pb-14 text-7xl"">+</div>","null","fixation","","","","","",""
"","333","html-keynbutton-response","296","2.0.0","1292610","5","<div class=""flex flex-row stim-length pb-8 md:pd-20 justify-evenly items-center""><div class=""circle""></div><div class=""circle""></div><div class=""circle""></div></div>","p","","matchness_test_2","match","圆","p","true","match"
"","null","html-keynbutton-response","297","2.0.0","1293124","5","<div class=""pb-14 text-7xl"">+</div>","null","fixation","","","","","",""
"","365","html-keynbutton-response","298","2.0.0","1293490","5","<div class=""flex flex-row stim-length pb-8 md:pd-20 justify-evenly items-center""><div class=""circle""></div><div class=""square""></div><div class=""circle""></div></div>","q","","matchness_test_2","mismatch","方","q","true","mismatch"
"","null","html-keynbutton-response","299","2.0.0","1294000","5","<div class=""pb-14 text-7xl"">+</div>","null","fixation","","","","","",""
"","481","html-keynbutton-response","300","2.0.0","1294482","5","<div class=""flex flex-row stim-length pb-8 md:pd-20 justify-evenly items-center""><div class=""square""></div><div class=""circle""></div><div class=""square""></div></div>","q","","matchness_test_2","mismatch","圆","q","true","mismatch"
"","null","html-keynbutton-response","301","2.0.0","1294997","5","<div class=""pb-14 text-7xl"">+</div>","null","fixation","","","","","",""
"","349","html-keynbutton-response","302","2.0.0","1295346","5","<div class=""flex flex-row stim-length pb-8 md:pd-20 justify-evenly items-center""><div class=""square""></div><div class=""square""></div><div class=""square""></div></div>","p","","matchness_test_2","match","方","p","true","match"
"","null","html-keynbutton-response","303","2.0.0","1295846","5","<div class=""pb-14 text-7xl"">+</div>","null","fixation","","","","","",""
"","523","html-keynbutton-response","304","2.0.0","1296370","5","<div class=""flex flex-row stim-length pb-8 md:pd-20 justify-evenly items-center""><div class=""circle""></div><div class=""circle""></div><div class=""circle""></div></div>","p","","matchness_test_2","match","圆","p","true","match"
"","null","html-keynbutton-response","305","2.0.0","1296881","5","<div class=""pb-14 text-7xl"">+</div>","null","fixation","","","","","",""
"","385","html-keynbutton-response","306","2.0.0","1297266","5","<div class=""flex flex-row stim-length pb-8 md:pd-20 justify-evenly items-center""><div class=""square""></div><div class=""circle""></div><div class=""square""></div></div>","q","","matchness_test_2","mismatch","圆","q","true","mismatch"
"","null","html-keynbutton-response","307","2.0.0","1297767","5","<div class=""pb-14 text-7xl"">+</div>","null","fixation","","","","","",""
"","363","html-keynbutton-response","308","2.0.0","1298130","5","<div class=""flex flex-row stim-length pb-8 md:pd-20 justify-evenly items-center""><div class=""square""></div><div class=""square""></div><div class=""square""></div></div>","p","","matchness_test_2","match","方","p","true","match"
"","null","html-keynbutton-response","309","2.0.0","1298632","5","<div class=""pb-14 text-7xl"">+</div>","null","fixation","","","","","",""
"","377","html-keynbutton-response","310","2.0.0","1299010","5","<div class=""flex flex-row stim-length pb-8 md:pd-20 justify-evenly items-center""><div class=""circle""></div><div class=""square""></div><div class=""circle""></div></div>","q","","matchness_test_2","mismatch","方","q","true","mismatch"
"","8191","html-keynbutton-response","311","2.0.0","1307202","5","<div class=""jp""><p>您已完成3/10部分</p><p>请休息一会儿</p>
    <p>您的正确率是：100%</p>
    <p>您的平均反应时间是：400毫秒</p></div>"," ","block_feedback","","","","","",""
"","null","html-keynbutton-response","312","2.0.0","1310403","5","<count-down title=""""></count-down>","null","countDown_trial","","","","","",""
"","null","html-keynbutton-response","313","2.0.0","1310909","5","<div class=""pb-14 text-7xl"">+</div>","null","fixation","","","","","",""
"","405","html-keynbutton-response","314","2.0.0","1311314","5","<div class=""flex flex-row stim-length pb-8 md:pd-20 justify-evenly items-center""><div class=""circle""></div><div class=""square""></div><div class=""circle""></div></div>","q","","matchness_test_3","mismatch","方","q","true","mismatch"
"","null","html-keynbutton-response","315","2.0.0","1311825","5","<div class=""pb-14 text-7xl"">+</div>","null","fixation","","","","","",""
"","385","html-keynbutton-response","316","2.0.0","1312210","5","<div class=""flex flex-row stim-length pb-8 md:pd-20 justify-evenly items-center""><div class=""square""></div><div class=""circle""></div><div class=""square""></div></div>","q","","matchness_test_3","mismatch","圆","q","true","mismatch"
"","null","html-keynbutton-response","317","2.0.0","1312722","5","<div class=""pb-14 text-7xl"">+</div>","null","fixation","","","","","",""
"","288","html-keynbutton-response","318","2.0.0","1313010","5","<div class=""flex flex-row stim-length pb-8 md:pd-20 justify-evenly items-center""><div class=""circle""></div><div class=""circle""></div><div class=""circle""></div></div>","p","","matchness_test_3","match","圆","p","true","match"
"","null","html-keynbutton-response","319","2.0.0","1313520","5","<div class=""pb-14 text-7xl"">+</div>","null","fixation","","","","","",""
"","321","html-keynbutton-response","320","2.0.0","1313842","5","<div class=""flex flex-row stim-length pb-8 md:pd-20 justify-evenly items-center""><div class=""square""></div><div class=""square""></div><div class=""square""></div></div>","p","","matchness_test_3","match","方","p","true","match"
"","null","html-keynbutton-response","321","2.0.0","1314348","5","<div class=""pb-14 text-7xl"">+</div>","null","fixation","","","","","",""
"","326","html-keynbutton-response","322","2.0.0","1314674","5","<div class=""flex flex-row stim-length pb-8 md:pd-20 justify-evenly items-center""><div class=""square""></div><div class=""square""></div><div class=""square""></div></div>","p","","matchness_test_3","match","方","p","true","match"
"","null","html-keynbutton-response","323","2.0.0","1315187","5","<div class=""pb-14 text-7xl"">+</div>","null","fixation","","","","","",""
"","351","html-keynbutton-response","324","2.0.0","1315538","5","<div class=""flex flex-row stim-length pb-8 md:pd-20 justify-evenly items-center""><div class=""circle""></div><div class=""circle""></div><div class=""circle""></div></div>","p","","matchness_test_3","match","圆","p","true","match"
"","null","html-keynbutton-response","325","2.0.0","1316048","5","<div class=""pb-14 text-7xl"">+</div>","null","fixation","","","","","",""
"","434","html-keynbutton-response","326","2.0.0","1316482","5","<div class=""flex flex-row stim-length pb-8 md:pd-20 justify-evenly items-center""><div class=""square""></div><div class=""circle""></div><div class=""square""></div></div>","q","","matchness_test_3","mismatch","圆","q","true","mismatch"
"","null","html-keynbutton-response","327","2.0.0","1316998","5","<div class=""pb-14 text-7xl"">+</div>","null","fixation","","","","","",""
"","316","html-keynbutton-response","328","2.0.0","1317314","5","<div class=""flex flex-row stim-length pb-8 md:pd-20 justify-evenly items-center""><div class=""circle""></div><div class=""square""></div><div class=""circle""></div></div>","q","","matchness_test_3","mismatch","方","q","true","mismatch"
"","null","html-keynbutton-response","329","2.0.0","1317815","5","<div class=""pb-14 text-7xl"">+</div>","null","fixation","","","","","",""
"","411","html-keynbutton-response","330","2.0.0","1318226","5","<div class=""flex flex-row stim-length pb-8 md:pd-20 justify-evenly items-center""><div class=""circle""></div><div class=""square""></div><div class=""circle""></div></div>","q","","matchness_test_3","mismatch","方","q","true","mismatch"
"","null","html-keynbutton-response","331","2.0.0","1318727","5","<div class=""pb-14 text-7xl"">+</div>","null","fixation","","","","","",""
"","475","html-keynbutton-response","332","2.0.0","1319202","5","<div class=""flex flex-row stim-length pb-8 md:pd-20 justify-evenly items-center""><div class=""circle""></div><div class=""circle""></div><div class=""circle""></div></div>","p","","matchness_test_3","match","圆","p","true","match"
"","null","html-keynbutton-response","333","2.0.0","1319706","5","<div class=""pb-14 text-7xl"">+</div>","null","fixation","","","","","",""
"","296","html-keynbutton-response","334","2.0.0","1320002","5","<div class=""flex flex-row stim-length pb-8 md:pd-20 justify-evenly items-center""><div class=""square""></div><div class=""square""></div><div class=""square""></div></div>","p","","matchness_test_3","match","方","p","true","match"
"","null","html-keynbutton-response","335","2.0.0","1320506","5","<div class=""pb-14 text-7xl"">+</div>","null","fixation","","","","","",""
"","392","html-keynbutton-response","336","2.0.0","1320898","5","<div class=""flex flex-row stim-length pb-8 md:pd-20 justify-evenly items-center""><div class=""square""></div><div class=""circle""></div><div class=""square""></div></div>","q","","matchness_test_3","mismatch","圆","q","true","mismatch"
"","null","html-keynbutton-response","337","2.0.0","1321399","5","<div class=""pb-14 text-7xl"">+</div>","null","fixation","","","","","",""
"","395","html-keynbutton-response","338","2.0.0","1321794","5","<div class=""flex flex-row stim-length pb-8 md:pd-20 justify-evenly items-center""><div class=""circle""></div><div class=""circle""></div><div class=""circle""></div></div>","p","","matchness_test_3","match","圆","p","true","match"
"","null","html-keynbutton-response","339","2.0.0","1322299","5","<div class=""pb-14 text-7xl"">+</div>","null","fixation","","","","","",""
"","375","html-keynbutton-response","340","2.0.0","1322674","5","<div class=""flex flex-row stim-length pb-8 md:pd-20 justify-evenly items-center""><div class=""square""></div><div class=""square""></div><div class=""square""></div></div>","p","","matchness_test_3","match","方","p","true","match"
"","null","html-keynbutton-response","341","2.0.0","1323186","5","<div class=""pb-14 text-7xl"">+</div>","null","fixation","","","","","",""
"","448","html-keynbutton-response","342","2.0.0","1323634","5","<div class=""flex flex-row stim-length pb-8 md:pd-20 justify-evenly items-center""><div class=""square""></div><div class=""circle""></div><div class=""square""></div></div>","q","","matchness_test_3","mismatch","圆","q","true","mismatch"
"","null","html-keynbutton-response","343","2.0.0","1324138","5","<div class=""pb-14 text-7xl"">+</div>","null","fixation","","","","","",""
"","472","html-keynbutton-response","344","2.0.0","1324610","5","<div class=""flex flex-row stim-length pb-8 md:pd-20 justify-evenly items-center""><div class=""circle""></div><div class=""square""></div><div class=""circle""></div></div>","q","","matchness_test_3","mismatch","方","q","true","mismatch"
"","null","html-keynbutton-response","345","2.0.0","1325114","5","<div class=""pb-14 text-7xl"">+</div>","null","fixation","","","","","",""
"","360","html-keynbutton-response","346","2.0.0","1325474","5","<div class=""flex flex-row stim-length pb-8 md:pd-20 justify-evenly items-center""><div class=""circle""></div><div class=""square""></div><div class=""circle""></div></div>","q","","matchness_test_3","mismatch","方","q","true","mismatch"
"","null","html-keynbutton-response","347","2.0.0","1325975","5","<div class=""pb-14 text-7xl"">+</div>","null","fixation","","","","","",""
"","283","html-keynbutton-response","348","2.0.0","1326258","5","<div class=""flex flex-row stim-length pb-8 md:pd-20 justify-evenly items-center""><div class=""circle""></div><div class=""circle""></div><div class=""circle""></div></div>","p","","matchness_test_3","match","圆","p","true","match"
"","null","html-keynbutton-response","349","2.0.0","1326759","5","<div class=""pb-14 text-7xl"">+</div>","null","fixation","","","","","",""
"","395","html-keynbutton-response","350","2.0.0","1327154","5","<div class=""flex flex-row stim-length pb-8 md:pd-20 justify-evenly items-center""><div class=""square""></div><div class=""circle""></div><div class=""square""></div></div>","q","","matchness_test_3","mismatch","圆","q","true","mismatch"
"","null","html-keynbutton-response","351","2.0.0","1327655","5","<div class=""pb-14 text-7xl"">+</div>","null","fixation","","","","","",""
"","379","html-keynbutton-response","352","2.0.0","1328034","5","<div class=""flex flex-row stim-length pb-8 md:pd-20 justify-evenly items-center""><div class=""square""></div><div class=""square""></div><div class=""square""></div></div>","p","","matchness_test_3","match","方","p","true","match"
"","null","html-keynbutton-response","353","2.0.0","1328549","5","<div class=""pb-14 text-7xl"">+</div>","null","fixation","","","","","",""
"","349","html-keynbutton-response","354","2.0.0","1328898","5","<div class=""flex flex-row stim-length pb-8 md:pd-20 justify-evenly items-center""><div class=""square""></div><div class=""circle""></div><div class=""square""></div></div>","q","","matchness_test_3","mismatch","圆","q","true","mismatch"
"","null","html-keynbutton-response","355","2.0.0","1329415","5","<div class=""pb-14 text-7xl"">+</div>","null","fixation","","","","","",""
"","283","html-keynbutton-response","356","2.0.0","1329698","5","<div class=""flex flex-row stim-length pb-8 md:pd-20 justify-evenly items-center""><div class=""square""></div><div class=""square""></div><div class=""square""></div></div>","p","","matchness_test_3","match","方","p","true","match"
"","null","html-keynbutton-response","357","2.0.0","1330200","5","<div class=""pb-14 text-7xl"">+</div>","null","fixation","","","","","",""
"","602","html-keynbutton-response","358","2.0.0","1330802","5","<div class=""flex flex-row stim-length pb-8 md:pd-20 justify-evenly items-center""><div class=""circle""></div><div class=""circle""></div><div class=""circle""></div></div>","p","","matchness_test_3","match","圆","p","true","match"
"","null","html-keynbutton-response","359","2.0.0","1331316","5","<div class=""pb-14 text-7xl"">+</div>","null","fixation","","","","","",""
"","398","html-keynbutton-response","360","2.0.0","1331714","5","<div class=""flex flex-row stim-length pb-8 md:pd-20 justify-evenly items-center""><div class=""circle""></div><div class=""square""></div><div class=""circle""></div></div>","q","","matchness_test_3","mismatch","方","q","true","mismatch"
"","null","html-keynbutton-response","361","2.0.0","1332215","5","<div class=""pb-14 text-7xl"">+</div>","null","fixation","","","","","",""
"","299","html-keynbutton-response","362","2.0.0","1332514","5","<div class=""flex flex-row stim-length pb-8 md:pd-20 justify-evenly items-center""><div class=""square""></div><div class=""square""></div><div class=""square""></div></div>","p","","matchness_test_3","match","方","p","true","match"
"","null","html-keynbutton-response","363","2.0.0","1333031","5","<div class=""pb-14 text-7xl"">+</div>","null","fixation","","","","","",""
"","331","html-keynbutton-response","364","2.0.0","1333362","5","<div class=""flex flex-row stim-length pb-8 md:pd-20 justify-evenly items-center""><div class=""circle""></div><div class=""square""></div><div class=""circle""></div></div>","q","","matchness_test_3","mismatch","方","q","true","mismatch"
"","null","html-keynbutton-response","365","2.0.0","1333869","5","<div class=""pb-14 text-7xl"">+</div>","null","fixation","","","","","",""
"","389","html-keynbutton-response","366","2.0.0","1334258","5","<div class=""flex flex-row stim-length pb-8 md:pd-20 justify-evenly items-center""><div class=""circle""></div><div class=""circle""></div><div class=""circle""></div></div>","p","","matchness_test_3","match","圆","p","true","match"
"","null","html-keynbutton-response","367","2.0.0","1334759","5","<div class=""pb-14 text-7xl"">+</div>","null","fixation","","","","","",""
"","379","html-keynbutton-response","368","2.0.0","1335138","5","<div class=""flex flex-row stim-length pb-8 md:pd-20 justify-evenly items-center""><div class=""square""></div><div class=""circle""></div><div class=""square""></div></div>","q","","matchness_test_3","mismatch","圆","q","true","mismatch"
"","null","html-keynbutton-response","369","2.0.0","1335650","5","<div class=""pb-14 text-7xl"">+</div>","null","fixation","","","","","",""
"","304","html-keynbutton-response","370","2.0.0","1335954","5","<div class=""flex flex-row stim-length pb-8 md:pd-20 justify-evenly items-center""><div class=""square""></div><div class=""square""></div><div class=""square""></div></div>","p","","matchness_test_3","match","方","p","true","match"
"","null","html-keynbutton-response","371","2.0.0","1336460","5","<div class=""pb-14 text-7xl"">+</div>","null","fixation","","","","","",""
"","550","html-keynbutton-response","372","2.0.0","1337010","5","<div class=""flex flex-row stim-length pb-8 md:pd-20 justify-evenly items-center""><div class=""circle""></div><div class=""circle""></div><div class=""circle""></div></div>","p","","matchness_test_3","match","圆","p","true","match"
"","null","html-keynbutton-response","373","2.0.0","1337524","5","<div class=""pb-14 text-7xl"">+</div>","null","fixation","","","","","",""
"","414","html-keynbutton-response","374","2.0.0","1337938","5","<div class=""flex flex-row stim-length pb-8 md:pd-20 justify-evenly items-center""><div class=""square""></div><div class=""circle""></div><div class=""square""></div></div>","q","","matchness_test_3","mismatch","圆","q","true","mismatch"
"","null","html-keynbutton-response","375","2.0.0","1338455","5","<div class=""pb-14 text-7xl"">+</div>","null","fixation","","","","","",""
"","475","html-keynbutton-response","376","2.0.0","1338930","5","<div class=""flex flex-row stim-length pb-8 md:pd-20 justify-evenly items-center""><div class=""circle""></div><div class=""square""></div><div class=""circle""></div></div>","q","","matchness_test_3","mismatch","方","q","true","mismatch"
"","null","html-keynbutton-response","377","2.0.0","1339442","5","<div class=""pb-14 text-7xl"">+</div>","null","fixation","","","","","",""
"","464","html-keynbutton-response","378","2.0.0","1339906","5","<div class=""flex flex-row stim-length pb-8 md:pd-20 justify-evenly items-center""><div class=""circle""></div><div class=""circle""></div><div class=""circle""></div></div>","p","","matchness_test_3","match","圆","p","true","match"
"","null","html-keynbutton-response","379","2.0.0","1340415","5","<div class=""pb-14 text-7xl"">+</div>","null","fixation","","","","","",""
"","403","html-keynbutton-response","380","2.0.0","1340818","5","<div class=""flex flex-row stim-length pb-8 md:pd-20 justify-evenly items-center""><div class=""square""></div><div class=""square""></div><div class=""square""></div></div>","p","","matchness_test_3","match","方","p","true","match"
"","null","html-keynbutton-response","381","2.0.0","1341332","5","<div class=""pb-14 text-7xl"">+</div>","null","fixation","","","","","",""
"","430","html-keynbutton-response","382","2.0.0","1341762","5","<div class=""flex flex-row stim-length pb-8 md:pd-20 justify-evenly items-center""><div class=""square""></div><div class=""circle""></div><div class=""square""></div></div>","q","","matchness_test_3","mismatch","圆","q","true","mismatch"
"","null","html-keynbutton-response","383","2.0.0","1342266","5","<div class=""pb-14 text-7xl"">+</div>","null","fixation","","","","","",""
"","440","html-keynbutton-response","384","2.0.0","1342706","5","<div class=""flex flex-row stim-length pb-8 md:pd-20 justify-evenly items-center""><div class=""circle""></div><div class=""square""></div><div class=""circle""></div></div>","q","","matchness_test_3","mismatch","方","q","true","mismatch"
"","null","html-keynbutton-response","385","2.0.0","1343211","5","<div class=""pb-14 text-7xl"">+</div>","null","fixation","","","","","",""
"","407","html-keynbutton-response","386","2.0.0","1343618","5","<div class=""flex flex-row stim-length pb-8 md:pd-20 justify-evenly items-center""><div class=""square""></div><div class=""circle""></div><div class=""square""></div></div>","q","","matchness_test_3","mismatch","圆","q","true","mismatch"
"","null","html-keynbutton-response","387","2.0.0","1344122","5","<div class=""pb-14 text-7xl"">+</div>","null","fixation","","","","","",""
"","376","html-keynbutton-response","388","2.0.0","1344498","5","<div class=""flex flex-row stim-length pb-8 md:pd-20 justify-evenly items-center""><div class=""square""></div><div class=""square""></div><div class=""square""></div></div>","p","","matchness_test_3","match","方","p","true","match"
"","null","html-keynbutton-response","389","2.0.0","1344999","5","<div class=""pb-14 text-7xl"">+</div>","null","fixation","","","","","",""
"","411","html-keynbutton-response","390","2.0.0","1345410","5","<div class=""flex flex-row stim-length pb-8 md:pd-20 justify-evenly items-center""><div class=""circle""></div><div class=""square""></div><div class=""circle""></div></div>","q","","matchness_test_3","mismatch","方","q","true","mismatch"
"","null","html-keynbutton-response","391","2.0.0","1345912","5","<div class=""pb-14 text-7xl"">+</div>","null","fixation","","","","","",""
"","394","html-keynbutton-response","392","2.0.0","1346306","5","<div class=""flex flex-row stim-length pb-8 md:pd-20 justify-evenly items-center""><div class=""circle""></div><div class=""circle""></div><div class=""circle""></div></div>","p","","matchness_test_3","match","圆","p","true","match"
"","18111","html-keynbutton-response","393","2.0.0","1364419","5","<div class=""jp""><p>您已完成4/10部分</p><p>请休息一会儿</p>
    <p>您的正确率是：100%</p>
    <p>您的平均反应时间是：390毫秒</p></div>"," ","block_feedback","","","","","",""
"","null","html-keynbutton-response","394","2.0.0","1367620","5","<count-down title=""""></count-down>","null","countDown_trial","","","","","",""
"","null","html-keynbutton-response","395","2.0.0","1368124","5","<div class=""pb-14 text-7xl"">+</div>","null","fixation","","","","","",""
"","406","html-keynbutton-response","396","2.0.0","1368518","5","<div class=""flex flex-row stim-length pb-8 md:pd-20 justify-evenly items-center""><div class=""square""></div><div class=""circle""></div><div class=""square""></div></div>","q","","matchness_test_4","mismatch","圆","q","true","mismatch"
"","null","html-keynbutton-response","397","2.0.0","1369032","5","<div class=""pb-14 text-7xl"">+</div>","null","fixation","","","","","",""
"","366","html-keynbutton-response","398","2.0.0","1369398","5","<div class=""flex flex-row stim-length pb-8 md:pd-20 justify-evenly items-center""><div class=""circle""></div><div class=""square""></div><div class=""circle""></div></div>","q","","matchness_test_4","mismatch","方","q","true","mismatch"
"","null","html-keynbutton-response","399","2.0.0","1369909","5","<div class=""pb-14 text-7xl"">+</div>","null","fixation","","","","","",""
"","304","html-keynbutton-response","400","2.0.0","1370214","5","<div class=""flex flex-row stim-length pb-8 md:pd-20 justify-evenly items-center""><div class=""circle""></div><div class=""circle""></div><div class=""circle""></div></div>","p","","matchness_test_4","match","圆","p","true","match"
"","null","html-keynbutton-response","401","2.0.0","1370728","5","<div class=""pb-14 text-7xl"">+</div>","null","fixation","","","","","",""
"","350","html-keynbutton-response","402","2.0.0","1371078","5","<div class=""flex flex-row stim-length pb-8 md:pd-20 justify-evenly items-center""><div class=""square""></div><div class=""square""></div><div class=""square""></div></div>","p","","matchness_test_4","match","方","p","true","match"
"","null","html-keynbutton-response","403","2.0.0","1371584","5","<div class=""pb-14 text-7xl"">+</div>","null","fixation","","","","","",""
"","342","html-keynbutton-response","404","2.0.0","1371926","5","<div class=""flex flex-row stim-length pb-8 md:pd-20 justify-evenly items-center""><div class=""square""></div><div class=""square""></div><div class=""square""></div></div>","p","","matchness_test_4","match","方","p","true","match"
"","null","html-keynbutton-response","405","2.0.0","1372440","5","<div class=""pb-14 text-7xl"">+</div>","null","fixation","","","","","",""
"","366","html-keynbutton-response","406","2.0.0","1372806","5","<div class=""flex flex-row stim-length pb-8 md:pd-20 justify-evenly items-center""><div class=""circle""></div><div class=""square""></div><div class=""circle""></div></div>","q","","matchness_test_4","mismatch","方","q","true","mismatch"
"","null","html-keynbutton-response","407","2.0.0","1373309","5","<div class=""pb-14 text-7xl"">+</div>","null","fixation","","","","","",""
"","361","html-keynbutton-response","408","2.0.0","1373670","5","<div class=""flex flex-row stim-length pb-8 md:pd-20 justify-evenly items-center""><div class=""circle""></div><div class=""circle""></div><div class=""circle""></div></div>","q","","matchness_test_4","match","圆","p","false","mismatch"
"","null","html-keynbutton-response","409","2.0.0","1374171","5","<div class=""pb-14 text-7xl"">+</div>","null","fixation","","","","","",""
"","603","html-keynbutton-response","410","2.0.0","1374774","5","<div class=""flex flex-row stim-length pb-8 md:pd-20 justify-evenly items-center""><div class=""square""></div><div class=""circle""></div><div class=""square""></div></div>","q","","matchness_test_4","mismatch","圆","q","true","mismatch"
"","null","html-keynbutton-response","411","2.0.0","1375291","5","<div class=""pb-14 text-7xl"">+</div>","null","fixation","","","","","",""
"","315","html-keynbutton-response","412","2.0.0","1375606","5","<div class=""flex flex-row stim-length pb-8 md:pd-20 justify-evenly items-center""><div class=""circle""></div><div class=""circle""></div><div class=""circle""></div></div>","p","","matchness_test_4","match","圆","p","true","match"
"","null","html-keynbutton-response","413","2.0.0","1376121","5","<div class=""pb-14 text-7xl"">+</div>","null","fixation","","","","","",""
"","413","html-keynbutton-response","414","2.0.0","1376534","5","<div class=""flex flex-row stim-length pb-8 md:pd-20 justify-evenly items-center""><div class=""circle""></div><div class=""square""></div><div class=""circle""></div></div>","q","","matchness_test_4","mismatch","方","q","true","mismatch"
"","null","html-keynbutton-response","415","2.0.0","1377048","5","<div class=""pb-14 text-7xl"">+</div>","null","fixation","","","","","",""
"","366","html-keynbutton-response","416","2.0.0","1377414","5","<div class=""flex flex-row stim-length pb-8 md:pd-20 justify-evenly items-center""><div class=""square""></div><div class=""square""></div><div class=""square""></div></div>","p","","matchness_test_4","match","方","p","true","match"
"","null","html-keynbutton-response","417","2.0.0","1377915","5","<div class=""pb-14 text-7xl"">+</div>","null","fixation","","","","","",""
"","491","html-keynbutton-response","418","2.0.0","1378406","5","<div class=""flex flex-row stim-length pb-8 md:pd-20 justify-evenly items-center""><div class=""square""></div><div class=""circle""></div><div class=""square""></div></div>","q","","matchness_test_4","mismatch","圆","q","true","mismatch"
"","null","html-keynbutton-response","419","2.0.0","1378917","5","<div class=""pb-14 text-7xl"">+</div>","null","fixation","","","","","",""
"","433","html-keynbutton-response","420","2.0.0","1379350","5","<div class=""flex flex-row stim-length pb-8 md:pd-20 justify-evenly items-center""><div class=""square""></div><div class=""square""></div><div class=""square""></div></div>","p","","matchness_test_4","match","方","p","true","match"
"","null","html-keynbutton-response","421","2.0.0","1379851","5","<div class=""pb-14 text-7xl"">+</div>","null","fixation","","","","","",""
"","363","html-keynbutton-response","422","2.0.0","1380214","5","<div class=""flex flex-row stim-length pb-8 md:pd-20 justify-evenly items-center""><div class=""square""></div><div class=""circle""></div><div class=""square""></div></div>","q","","matchness_test_4","mismatch","圆","q","true","mismatch"
"","null","html-keynbutton-response","423","2.0.0","1380729","5","<div class=""pb-14 text-7xl"">+</div>","null","fixation","","","","","",""
"","380","html-keynbutton-response","424","2.0.0","1381110","5","<div class=""flex flex-row stim-length pb-8 md:pd-20 justify-evenly items-center""><div class=""circle""></div><div class=""circle""></div><div class=""circle""></div></div>","p","","matchness_test_4","match","圆","p","true","match"
"","null","html-keynbutton-response","425","2.0.0","1381612","5","<div class=""pb-14 text-7xl"">+</div>","null","fixation","","","","","",""
"","426","html-keynbutton-response","426","2.0.0","1382038","5","<div class=""flex flex-row stim-length pb-8 md:pd-20 justify-evenly items-center""><div class=""circle""></div><div class=""square""></div><div class=""circle""></div></div>","q","","matchness_test_4","mismatch","方","q","true","mismatch"
"","null","html-keynbutton-response","427","2.0.0","1382541","5","<div class=""pb-14 text-7xl"">+</div>","null","fixation","","","","","",""
"","377","html-keynbutton-response","428","2.0.0","1382918","5","<div class=""flex flex-row stim-length pb-8 md:pd-20 justify-evenly items-center""><div class=""circle""></div><div class=""circle""></div><div class=""circle""></div></div>","p","","matchness_test_4","match","圆","p","true","match"
"","null","html-keynbutton-response","429","2.0.0","1383418","5","<div class=""pb-14 text-7xl"">+</div>","null","fixation","","","","","",""
"","379","html-keynbutton-response","430","2.0.0","1383798","5","<div class=""flex flex-row stim-length pb-8 md:pd-20 justify-evenly items-center""><div class=""circle""></div><div class=""square""></div><div class=""circle""></div></div>","q","","matchness_test_4","mismatch","方","q","true","mismatch"
"","null","html-keynbutton-response","431","2.0.0","1384304","5","<div class=""pb-14 text-7xl"">+</div>","null","fixation","","","","","",""
"","470","html-keynbutton-response","432","2.0.0","1384774","5","<div class=""flex flex-row stim-length pb-8 md:pd-20 justify-evenly items-center""><div class=""square""></div><div class=""circle""></div><div class=""square""></div></div>","q","","matchness_test_4","mismatch","圆","q","true","mismatch"
"","null","html-keynbutton-response","433","2.0.0","1385288","5","<div class=""pb-14 text-7xl"">+</div>","null","fixation","","","","","",""
"","350","html-keynbutton-response","434","2.0.0","1385638","5","<div class=""flex flex-row stim-length pb-8 md:pd-20 justify-evenly items-center""><div class=""square""></div><div class=""square""></div><div class=""square""></div></div>","p","","matchness_test_4","match","方","p","true","match"
"","null","html-keynbutton-response","435","2.0.0","1386141","5","<div class=""pb-14 text-7xl"">+</div>","null","fixation","","","","","",""
"","409","html-keynbutton-response","436","2.0.0","1386550","5","<div class=""flex flex-row stim-length pb-8 md:pd-20 justify-evenly items-center""><div class=""circle""></div><div class=""square""></div><div class=""circle""></div></div>","q","","matchness_test_4","mismatch","方","q","true","mismatch"
"","null","html-keynbutton-response","437","2.0.0","1387051","5","<div class=""pb-14 text-7xl"">+</div>","null","fixation","","","","","",""
"","475","html-keynbutton-response","438","2.0.0","1387526","5","<div class=""flex flex-row stim-length pb-8 md:pd-20 justify-evenly items-center""><div class=""square""></div><div class=""circle""></div><div class=""square""></div></div>","q","","matchness_test_4","mismatch","圆","q","true","mismatch"
"","null","html-keynbutton-response","439","2.0.0","1388031","5","<div class=""pb-14 text-7xl"">+</div>","null","fixation","","","","","",""
"","375","html-keynbutton-response","440","2.0.0","1388406","5","<div class=""flex flex-row stim-length pb-8 md:pd-20 justify-evenly items-center""><div class=""circle""></div><div class=""circle""></div><div class=""circle""></div></div>","p","","matchness_test_4","match","圆","p","true","match"
"","null","html-keynbutton-response","441","2.0.0","1388915","5","<div class=""pb-14 text-7xl"">+</div>","null","fixation","","","","","",""
"","418","html-keynbutton-response","442","2.0.0","1389334","5","<div class=""flex flex-row stim-length pb-8 md:pd-20 justify-evenly items-center""><div class=""square""></div><div class=""square""></div><div class=""square""></div></div>","p","","matchness_test_4","match","方","p","true","match"
"","null","html-keynbutton-response","443","2.0.0","1389841","5","<div class=""pb-14 text-7xl"">+</div>","null","fixation","","","","","",""
"","405","html-keynbutton-response","444","2.0.0","1390246","5","<div class=""flex flex-row stim-length pb-8 md:pd-20 justify-evenly items-center""><div class=""square""></div><div class=""circle""></div><div class=""square""></div></div>","q","","matchness_test_4","mismatch","圆","q","true","mismatch"
"","null","html-keynbutton-response","445","2.0.0","1390749","5","<div class=""pb-14 text-7xl"">+</div>","null","fixation","","","","","",""
"","408","html-keynbutton-response","446","2.0.0","1391158","5","<div class=""flex flex-row stim-length pb-8 md:pd-20 justify-evenly items-center""><div class=""circle""></div><div class=""circle""></div><div class=""circle""></div></div>","p","","matchness_test_4","match","圆","p","true","match"
"","null","html-keynbutton-response","447","2.0.0","1391671","5","<div class=""pb-14 text-7xl"">+</div>","null","fixation","","","","","",""
"","463","html-keynbutton-response","448","2.0.0","1392134","5","<div class=""flex flex-row stim-length pb-8 md:pd-20 justify-evenly items-center""><div class=""square""></div><div class=""square""></div><div class=""square""></div></div>","p","","matchness_test_4","match","方","p","true","match"
"","null","html-keynbutton-response","449","2.0.0","1392635","5","<div class=""pb-14 text-7xl"">+</div>","null","fixation","","","","","",""
"","395","html-keynbutton-response","450","2.0.0","1393030","5","<div class=""flex flex-row stim-length pb-8 md:pd-20 justify-evenly items-center""><div class=""circle""></div><div class=""square""></div><div class=""circle""></div></div>","q","","matchness_test_4","mismatch","方","q","true","mismatch"
"","null","html-keynbutton-response","451","2.0.0","1393533","5","<div class=""pb-14 text-7xl"">+</div>","null","fixation","","","","","",""
"","345","html-keynbutton-response","452","2.0.0","1393878","5","<div class=""flex flex-row stim-length pb-8 md:pd-20 justify-evenly items-center""><div class=""circle""></div><div class=""circle""></div><div class=""circle""></div></div>","p","","matchness_test_4","match","圆","p","true","match"
"","null","html-keynbutton-response","453","2.0.0","1394379","5","<div class=""pb-14 text-7xl"">+</div>","null","fixation","","","","","",""
"","379","html-keynbutton-response","454","2.0.0","1394758","5","<div class=""flex flex-row stim-length pb-8 md:pd-20 justify-evenly items-center""><div class=""square""></div><div class=""circle""></div><div class=""square""></div></div>","q","","matchness_test_4","mismatch","圆","q","true","mismatch"
"","null","html-keynbutton-response","455","2.0.0","1395272","5","<div class=""pb-14 text-7xl"">+</div>","null","fixation","","","","","",""
"","414","html-keynbutton-response","456","2.0.0","1395686","5","<div class=""flex flex-row stim-length pb-8 md:pd-20 justify-evenly items-center""><div class=""square""></div><div class=""square""></div><div class=""square""></div></div>","p","","matchness_test_4","match","方","p","true","match"
"","null","html-keynbutton-response","457","2.0.0","1396187","5","<div class=""pb-14 text-7xl"">+</div>","null","fixation","","","","","",""
"","363","html-keynbutton-response","458","2.0.0","1396550","5","<div class=""flex flex-row stim-length pb-8 md:pd-20 justify-evenly items-center""><div class=""circle""></div><div class=""square""></div><div class=""circle""></div></div>","q","","matchness_test_4","mismatch","方","q","true","mismatch"
