"success","rt","part","trial_type","trial_index","time_elapsed","internal_node_id","response","stimulus","correct","choices","correct_choice","trial_duration","response_ends_trial","number_of_apertures","number_of_dots","coherent_direction","coherence","opposite_coherence","dot_radius","dot_side_length","dot_life","move_distance","aperture_width","aperture_height","dot_color","dot_color_final","color_change_delay","target_color_proportion","motion_change_delay","dot_shape","background_color","RDK_type","aperture_type","reinsert_type","frame_rate","frame_rate_array","number_of_frames","aperture_center_x","aperture_center_y","fixation_cross","fixation_cross_width","fixation_cross_height","fixation_cross_color","fixation_cross_thickness","border","border_thickness","border_color","canvas_width","canvas_height","task","correct_responce","revs","correctNum","totalTrials","proportionColor","proportionMotion","data_label"
"true","2470","fullScreen","fullscreen","0","3474","0.0-0.0-0.0","","","","","","","","","","","","","","","","","","","","","","","","","","","","","","","","","","","","","","","","","","","","","","","","","","",""
"","8118","survey","survey","1","11661","0.0-0.0-1.0","{""sex"":""女"",""age"":22,""hands"":""右"",""color_blindness"":""都不是""}","","","","","","","","","","","","","","","","","","","","","","","","","","","","","","","","","","","","","","","","","","","","","","","","","",""
"","26134","pract_color","html-keyboard-response","2","37798","0.0-0.0-2.0-0.0"," ","
    <div style=""text-align: left; color: white; padding: 10px""> 
      <h3 style=""text-align: center; font-size: 30px; margin: 10px"">颜色判断任务</h3> 
      <p>接下来，屏幕上会呈现一些运动的圆点，其中一半为 <span style=""color: hsl(0, 50%, 50%)"">红色</span> ，一半为 <span style=""color: hsl(225, 50%, 50%)"">蓝色</span>，</p>
        <p><span style=""font-weight: bold"">大约0.2秒后,</span>  一部分点会随机变为另一种颜色（例如从红色变为蓝色），变化后某种颜色的数量会超过另一种。</p >
        <p>您需要又快又准地判断判断 <span style=""font-weight: bold"">变化后，散点图的整体颜色（即大多数点的颜色）是红色还是蓝色 </span>：</p >
        <ul>
          <li>整体为 <span style=""color: hsl(0, 50%, 50%)"">红色</span>，请按键盘 <span style=""color: hsl(0, 50%, 50%)"">""D"" 键</span></li>
          <li>整体为 <span style=""color: hsl(225, 50%, 50%)"">蓝色</span>，请按键盘 <span style=""color: hsl(225, 50%, 50%)"">""k"" 键</span> </li>
        </ul>
        <p>请将手指放在相应按键上，按下空格键进入练习阶段</p>
      </div>","","","","","","","","","","","","","","","","","","","","","","","","","","","","","","","","","","","","","","","","","","","","","","","","",""
"","null","fixation","html-keyboard-response","3","38299","0.0-0.0-2.0-1.0-0.0-0.0-0.0","null","<p style='font-size: 48px; color: white'>+</p >","","","","","","","","","","","","","","","","","","","","","","","","","","","","","","","","","","","","","","","","","","","","","","","","",""
"","2814","color_pract","rdk","4","41117","0.0-0.0-2.0-1.0-0.0-0.0-1.0","k","","true","[""d"",""k""]","k","3000","true","1","100","0","0","0","5.7","1","-1","3","600","600","[""hsl(0, 50%, 50%)"",""hsl(225, 50%, 50%)""]","[""hsl(225, 50%, 50%)"",""hsl(0, 50%, 50%)""]","6.826359037863549","0.6","0","circle","black","3","2","2","23.923076923076923","[11,17,17,16,18,16,17,16,17,17,17,16,17,17,16,18,16,16,17,17,16,18,16,17,17,17,17,15,17,17,16,18,16,17,17,17,17,17,17,16,17,17,16,17,17,16,18,16,17,17,16,17,16,18,16,18,16,16,18,16,17,17,17,18,16,16,34,33,34,33,34,33,34,33,34,32,33,34,34,33,33,33,34,32,34,34,34,33,33,32,33,34,33,33,34,33,34,33,33,32,33,34,34,33,34,33,34,33,33,33,34,33,33,34,33,33,33]","117","832","411.5","false","20","20","black","1","false","1","1","1680","998","rdk","k","","","","0.6","0.24",""
"","null","","html-keyboard-response","5","41619","0.0-0.0-2.0-1.0-0.0-0.0-2.0","null","<p style='font-size: 60px; color: green'>正确!</p>","","","","","","","","","","","","","","","","","","","","","","","","","","","","","","","","","","","","","","","","","","","","","","","","",""
"","null","fixation","html-keyboard-response","6","42120","0.0-0.0-2.0-1.0-0.0-0.0-0.1","null","<p style='font-size: 48px; color: white'>+</p >","","","","","","","","","","","","","","","","","","","","","","","","","","","","","","","","","","","","","","","","","","","","","","","","",""
"","1426","color_pract","rdk","7","43547","0.0-0.0-2.0-1.0-0.0-0.0-1.1","k","","true","[""d"",""k""]","k","3000","true","1","100","0","0","0","5.7","1","-1","3","600","600","[""hsl(0, 50%, 50%)"",""hsl(225, 50%, 50%)""]","[""hsl(225, 50%, 50%)"",""hsl(0, 50%, 50%)""]","6.826359037863549","0.6","0","circle","black","3","2","2","18.666666666666668","[11,16,17,16,16,17,16,17,17,17,16,18,16,17,16,17,16,18,17,17,17,17,16,16,18,17,17,16,17,16,17,16,17,17,17,17,15,18,17,16,18,17,17,16,17,16,16,17,18,16,17,17,16,18,16,17,16,17,16,18,17,16,17,17,17,17,32,34,34,34,33,34,34,32,34]","75","832","411.5","false","20","20","black","1","false","1","1","1680","998","rdk","k","","","","0.6","0.24",""
"","null","","html-keyboard-response","8","44049","0.0-0.0-2.0-1.0-0.0-0.0-2.1","null","<p style='font-size: 60px; color: green'>正确!</p>","","","","","","","","","","","","","","","","","","","","","","","","","","","","","","","","","","","","","","","","","","","","","","","","",""
"","null","fixation","html-keyboard-response","9","44550","0.0-0.0-2.0-1.0-0.0-0.0-0.2","null","<p style='font-size: 48px; color: white'>+</p >","","","","","","","","","","","","","","","","","","","","","","","","","","","","","","","","","","","","","","","","","","","","","","","","",""
"","1277","color_pract","rdk","10","45828","0.0-0.0-2.0-1.0-0.0-0.0-1.2","d","","true","[""d"",""k""]","d","3000","true","1","100","0","0","0","5.7","1","-1","3","600","600","[""hsl(0, 50%, 50%)"",""hsl(225, 50%, 50%)""]","[""hsl(0, 50%, 50%)"",""hsl(225, 50%, 50%)""]","6.826359037863549","0.6","0","circle","black","3","2","2","17.901408450704224","[14,16,17,18,16,17,17,16,17,17,17,17,17,17,17,17,17,16,16,18,17,17,17,17,16,17,17,17,17,16,17,17,17,16,18,16,17,17,16,18,16,17,17,16,18,17,15,17,16,17,17,16,17,16,17,17,17,17,16,16,18,16,18,17,16,17,33,33,33,33,34]","71","832","411.5","false","20","20","black","1","false","1","1","1680","998","rdk","d","","","","0.6","0.24",""
"","null","","html-keyboard-response","11","46330","0.0-0.0-2.0-1.0-0.0-0.0-2.2","null","<p style='font-size: 60px; color: green'>正确!</p>","","","","","","","","","","","","","","","","","","","","","","","","","","","","","","","","","","","","","","","","","","","","","","","","",""
"","null","fixation","html-keyboard-response","12","46832","0.0-0.0-2.0-1.0-0.0-0.0-0.3","null","<p style='font-size: 48px; color: white'>+</p >","","","","","","","","","","","","","","","","","","","","","","","","","","","","","","","","","","","","","","","","","","","","","","","","",""
"","1581","color_pract","rdk","13","48414","0.0-0.0-2.0-1.0-0.0-0.0-1.3","d","","true","[""d"",""k""]","d","3000","true","1","100","0","0","0","5.7","1","-1","3","600","600","[""hsl(0, 50%, 50%)"",""hsl(225, 50%, 50%)""]","[""hsl(0, 50%, 50%)"",""hsl(225, 50%, 50%)""]","6.826359037863549","0.6","0","circle","black","3","2","2","19.625","[15,18,16,18,16,18,17,17,16,17,17,17,17,16,17,17,16,17,17,17,16,17,17,16,17,17,16,16,17,17,16,18,17,17,17,16,16,17,17,17,17,17,17,16,16,18,17,16,16,16,18,15,17,17,17,16,18,16,16,17,17,17,16,17,17,17,33,34,33,34,33,33,34,33,34,32,33,34,33,33]","80","832","411.5","false","20","20","black","1","false","1","1","1680","998","rdk","d","","","","0.6","0.24",""
"","null","","html-keyboard-response","14","48916","0.0-0.0-2.0-1.0-0.0-0.0-2.3","null","<p style='font-size: 60px; color: green'>正确!</p>","","","","","","","","","","","","","","","","","","","","","","","","","","","","","","","","","","","","","","","","","","","","","","","","",""
"","null","fixation","html-keyboard-response","15","49419","0.0-0.0-2.0-1.0-0.0-0.0-0.4","null","<p style='font-size: 48px; color: white'>+</p >","","","","","","","","","","","","","","","","","","","","","","","","","","","","","","","","","","","","","","","","","","","","","","","","",""
"","1317","color_pract","rdk","16","50736","0.0-0.0-2.0-1.0-0.0-0.0-1.4","d","","true","[""d"",""k""]","d","3000","true","1","100","0","0","0","5.7","1","-1","3","600","600","[""hsl(0, 50%, 50%)"",""hsl(225, 50%, 50%)""]","[""hsl(0, 50%, 50%)"",""hsl(225, 50%, 50%)""]","6.826359037863549","0.58","0","circle","black","3","2","2","18.11111111111111","[12,16,18,17,16,18,16,17,16,17,16,16,17,18,17,16,16,17,18,16,18,16,18,16,17,17,15,17,17,17,17,16,17,16,17,18,16,17,18,15,18,16,18,16,18,17,16,18,16,17,18,16,17,17,16,17,16,17,17,16,18,16,17,17,18,16,34,33,33,34,33,33]","72","832","411.5","false","20","20","black","1","false","1","1","1680","998","rdk","d","","","","0.58","0.24",""
"","null","","html-keyboard-response","17","51238","0.0-0.0-2.0-1.0-0.0-0.0-2.4","null","<p style='font-size: 60px; color: green'>正确!</p>","","","","","","","","","","","","","","","","","","","","","","","","","","","","","","","","","","","","","","","","","","","","","","","","",""
"","null","fixation","html-keyboard-response","18","51740","0.0-0.0-2.0-1.0-0.0-0.0-0.5","null","<p style='font-size: 48px; color: white'>+</p >","","","","","","","","","","","","","","","","","","","","","","","","","","","","","","","","","","","","","","","","","","","","","","","","",""
"","1054","color_pract","rdk","19","52795","0.0-0.0-2.0-1.0-0.0-0.0-1.5","d","","true","[""d"",""k""]","d","3000","true","1","100","0","0","0","5.7","1","-1","3","600","600","[""hsl(0, 50%, 50%)"",""hsl(225, 50%, 50%)""]","[""hsl(0, 50%, 50%)"",""hsl(225, 50%, 50%)""]","6.826359037863549","0.58","0","circle","black","3","2","2","16.58730158730159","[7,18,17,16,17,16,17,17,16,16,17,18,16,17,17,17,17,16,17,16,16,17,17,17,16,17,17,16,17,16,17,18,16,17,16,17,17,17,18,15,18,16,18,17,16,17,17,17,16,16,17,16,17,17,16,18,16,17,17,16,18,15,18]","63","832","411.5","false","20","20","black","1","false","1","1","1680","998","rdk","d","","","","0.58","0.24",""
"","null","","html-keyboard-response","20","53297","0.0-0.0-2.0-1.0-0.0-0.0-2.5","null","<p style='font-size: 60px; color: green'>正确!</p>","","","","","","","","","","","","","","","","","","","","","","","","","","","","","","","","","","","","","","","","","","","","","","","","",""
"","null","fixation","html-keyboard-response","21","53799","0.0-0.0-2.0-1.0-0.0-0.0-0.6","null","<p style='font-size: 48px; color: white'>+</p >","","","","","","","","","","","","","","","","","","","","","","","","","","","","","","","","","","","","","","","","","","","","","","","","",""
"","1193","color_pract","rdk","22","54993","0.0-0.0-2.0-1.0-0.0-0.0-1.6","k","","true","[""d"",""k""]","k","3000","true","1","100","0","0","0","5.7","1","-1","3","600","600","[""hsl(0, 50%, 50%)"",""hsl(225, 50%, 50%)""]","[""hsl(225, 50%, 50%)"",""hsl(0, 50%, 50%)""]","6.826359037863549","0.58","0","circle","black","3","2","2","17.25","[16,15,18,16,17,16,18,17,16,17,16,18,15,18,17,17,17,16,17,18,16,17,17,16,17,16,17,18,16,18,16,18,16,17,16,17,17,17,16,18,16,17,16,17,17,17,17,16,17,18,17,16,17,16,16,17,17,18,16,16,18,16,17,17,16,17,33,34]","68","832","411.5","false","20","20","black","1","false","1","1","1680","998","rdk","k","","","","0.58","0.24",""
"","null","","html-keyboard-response","23","55495","0.0-0.0-2.0-1.0-0.0-0.0-2.6","null","<p style='font-size: 60px; color: green'>正确!</p>","","","","","","","","","","","","","","","","","","","","","","","","","","","","","","","","","","","","","","","","","","","","","","","","",""
"","null","fixation","html-keyboard-response","24","55997","0.0-0.0-2.0-1.0-0.0-0.0-0.7","null","<p style='font-size: 48px; color: white'>+</p >","","","","","","","","","","","","","","","","","","","","","","","","","","","","","","","","","","","","","","","","","","","","","","","","",""
"","949","color_pract","rdk","25","56947","0.0-0.0-2.0-1.0-0.0-0.0-1.7","k","","true","[""d"",""k""]","k","3000","true","1","100","0","0","0","5.7","1","-1","3","600","600","[""hsl(0, 50%, 50%)"",""hsl(225, 50%, 50%)""]","[""hsl(225, 50%, 50%)"",""hsl(0, 50%, 50%)""]","6.826359037863549","0.58","0","circle","black","3","2","2","16.45614035087719","[1,17,17,16,17,18,17,16,18,15,17,16,17,17,16,16,18,17,16,17,16,17,17,17,17,17,16,17,17,17,17,16,18,17,17,16,17,17,17,15,17,18,16,17,15,17,17,16,17,17,16,17,17,17,16,16,18]","57","832","411.5","false","20","20","black","1","false","1","1","1680","998","rdk","k","","","","0.58","0.24",""
"","null","","html-keyboard-response","26","57448","0.0-0.0-2.0-1.0-0.0-0.0-2.7","null","<p style='font-size: 60px; color: green'>正确!</p>","","","","","","","","","","","","","","","","","","","","","","","","","","","","","","","","","","","","","","","","","","","","","","","","",""
"","null","fixation","html-keyboard-response","27","57950","0.0-0.0-2.0-1.0-0.0-0.0-0.8","null","<p style='font-size: 48px; color: white'>+</p >","","","","","","","","","","","","","","","","","","","","","","","","","","","","","","","","","","","","","","","","","","","","","","","","",""
"","751","color_pract","rdk","28","58701","0.0-0.0-2.0-1.0-0.0-0.0-1.8","d","","true","[""d"",""k""]","d","3000","true","1","100","0","0","0","5.7","1","-1","3","600","600","[""hsl(0, 50%, 50%)"",""hsl(225, 50%, 50%)""]","[""hsl(0, 50%, 50%)"",""hsl(225, 50%, 50%)""]","6.826359037863549","0.5599999999999999","0","circle","black","3","2","2","16.68888888888889","[15,17,16,18,16,17,17,17,16,17,18,17,17,17,16,17,17,16,18,16,17,17,17,15,18,16,17,17,16,17,15,18,16,17,17,17,17,16,17,16,18,15,18,17,15]","45","832","411.5","false","20","20","black","1","false","1","1","1680","998","rdk","d","","","","0.5599999999999999","0.24",""
"","null","","html-keyboard-response","29","59203","0.0-0.0-2.0-1.0-0.0-0.0-2.8","null","<p style='font-size: 60px; color: green'>正确!</p>","","","","","","","","","","","","","","","","","","","","","","","","","","","","","","","","","","","","","","","","","","","","","","","","",""
"","null","fixation","html-keyboard-response","30","59704","0.0-0.0-2.0-1.0-0.0-0.0-0.9","null","<p style='font-size: 48px; color: white'>+</p >","","","","","","","","","","","","","","","","","","","","","","","","","","","","","","","","","","","","","","","","","","","","","","","","",""
"","968","color_pract","rdk","31","60673","0.0-0.0-2.0-1.0-0.0-0.0-1.9","d","","true","[""d"",""k""]","d","3000","true","1","100","0","0","0","5.7","1","-1","3","600","600","[""hsl(0, 50%, 50%)"",""hsl(225, 50%, 50%)""]","[""hsl(0, 50%, 50%)"",""hsl(225, 50%, 50%)""]","6.826359037863549","0.5599999999999999","0","circle","black","3","2","2","16.603448275862068","[10,17,16,18,16,17,17,17,16,16,16,17,16,18,16,17,17,16,16,18,16,17,16,17,17,18,17,17,17,16,18,16,17,17,17,17,16,16,16,17,16,17,17,16,17,16,18,16,16,18,16,16,17,17,17,17,17,17]","58","832","411.5","false","20","20","black","1","false","1","1","1680","998","rdk","d","","","","0.5599999999999999","0.24",""
"","null","","html-keyboard-response","32","61175","0.0-0.0-2.0-1.0-0.0-0.0-2.9","null","<p style='font-size: 60px; color: green'>正确!</p>","","","","","","","","","","","","","","","","","","","","","","","","","","","","","","","","","","","","","","","","","","","","","","","","",""
"","null","fixation","html-keyboard-response","33","61677","0.0-0.0-2.0-1.0-0.0-0.0-0.10","null","<p style='font-size: 48px; color: white'>+</p >","","","","","","","","","","","","","","","","","","","","","","","","","","","","","","","","","","","","","","","","","","","","","","","","",""
"","824","color_pract","rdk","34","62502","0.0-0.0-2.0-1.0-0.0-0.0-1.10","k","","true","[""d"",""k""]","k","3000","true","1","100","0","0","0","5.7","1","-1","3","600","600","[""hsl(0, 50%, 50%)"",""hsl(225, 50%, 50%)""]","[""hsl(225, 50%, 50%)"",""hsl(0, 50%, 50%)""]","6.826359037863549","0.5599999999999999","0","circle","black","3","2","2","16.44","[3,17,16,17,16,17,17,16,17,16,16,18,17,16,17,17,17,16,16,17,18,17,17,16,16,18,16,18,16,18,16,17,16,17,17,17,17,16,17,16,17,17,16,17,17,16,17,16,18,16]","50","832","411.5","false","20","20","black","1","false","1","1","1680","998","rdk","k","","","","0.5599999999999999","0.24",""
"","null","","html-keyboard-response","35","63004","0.0-0.0-2.0-1.0-0.0-0.0-2.10","null","<p style='font-size: 60px; color: green'>正确!</p>","","","","","","","","","","","","","","","","","","","","","","","","","","","","","","","","","","","","","","","","","","","","","","","","",""
"","null","fixation","html-keyboard-response","36","63506","0.0-0.0-2.0-1.0-0.0-0.0-0.11","null","<p style='font-size: 48px; color: white'>+</p >","","","","","","","","","","","","","","","","","","","","","","","","","","","","","","","","","","","","","","","","","","","","","","","","",""
"","725","color_pract","rdk","37","64232","0.0-0.0-2.0-1.0-0.0-0.0-1.11","d","","false","[""d"",""k""]","k","3000","true","1","100","0","0","0","5.7","1","-1","3","600","600","[""hsl(0, 50%, 50%)"",""hsl(225, 50%, 50%)""]","[""hsl(225, 50%, 50%)"",""hsl(0, 50%, 50%)""]","6.826359037863549","0.5599999999999999","0","circle","black","3","2","2","16.58139534883721","[9,16,17,17,16,18,17,16,17,17,16,16,17,18,16,17,17,16,17,17,17,17,17,17,16,17,15,17,16,18,17,17,15,18,17,16,17,17,17,17,17,16,18]","43","832","411.5","false","20","20","black","1","false","1","1","1680","998","rdk","k","","","","0.5599999999999999","0.24",""
"","null","","html-keyboard-response","38","64733","0.0-0.0-2.0-1.0-0.0-0.0-2.11","null","<p style='font-size: 60px; color: red'>错误!</p>","","","","","","","","","","","","","","","","","","","","","","","","","","","","","","","","","","","","","","","","","","","","","","","","",""
"","null","fixation","html-keyboard-response","39","65234","0.0-0.0-2.0-1.0-0.0-0.0-0.12","null","<p style='font-size: 48px; color: white'>+</p >","","","","","","","","","","","","","","","","","","","","","","","","","","","","","","","","","","","","","","","","","","","","","","","","",""
"","795","color_pract","rdk","40","66030","0.0-0.0-2.0-1.0-0.0-0.0-1.12","d","","true","[""d"",""k""]","d","3000","true","1","100","0","0","0","5.7","1","-1","3","600","600","[""hsl(0, 50%, 50%)"",""hsl(225, 50%, 50%)""]","[""hsl(0, 50%, 50%)"",""hsl(225, 50%, 50%)""]","6.826359037863549","0.58","0","circle","black","3","2","2","16.72340425531915","[15,16,17,17,17,16,18,17,16,17,17,16,17,18,16,16,18,15,18,16,17,17,18,16,16,18,17,16,16,18,17,17,16,16,16,18,16,17,18,15,18,17,16,17,16,17,17]","47","832","411.5","false","20","20","black","1","false","1","1","1680","998","rdk","d","","","","0.58","0.24",""
"","null","","html-keyboard-response","41","66531","0.0-0.0-2.0-1.0-0.0-0.0-2.12","null","<p style='font-size: 60px; color: green'>正确!</p>","","","","","","","","","","","","","","","","","","","","","","","","","","","","","","","","","","","","","","","","","","","","","","","","",""
"","null","fixation","html-keyboard-response","42","67032","0.0-0.0-2.0-1.0-0.0-0.0-0.13","null","<p style='font-size: 48px; color: white'>+</p >","","","","","","","","","","","","","","","","","","","","","","","","","","","","","","","","","","","","","","","","","","","","","","","","",""
"","956","color_pract","rdk","43","67989","0.0-0.0-2.0-1.0-0.0-0.0-1.13","d","","true","[""d"",""k""]","d","3000","true","1","100","0","0","0","5.7","1","-1","3","600","600","[""hsl(0, 50%, 50%)"",""hsl(225, 50%, 50%)""]","[""hsl(0, 50%, 50%)"",""hsl(225, 50%, 50%)""]","6.826359037863549","0.58","0","circle","black","3","2","2","16.517241379310345","[1,15,17,17,17,17,17,17,17,18,17,16,17,17,17,17,16,18,17,17,17,17,16,16,18,16,17,16,18,16,18,16,17,16,17,18,16,16,17,17,17,16,16,18,16,17,16,16,18,17,17,17,16,17,17,15,18,17]","58","832","411.5","false","20","20","black","1","false","1","1","1680","998","rdk","d","","","","0.58","0.24",""
"","null","","html-keyboard-response","44","68491","0.0-0.0-2.0-1.0-0.0-0.0-2.13","null","<p style='font-size: 60px; color: green'>正确!</p>","","","","","","","","","","","","","","","","","","","","","","","","","","","","","","","","","","","","","","","","","","","","","","","","",""
"","null","fixation","html-keyboard-response","45","68993","0.0-0.0-2.0-1.0-0.0-0.0-0.14","null","<p style='font-size: 48px; color: white'>+</p >","","","","","","","","","","","","","","","","","","","","","","","","","","","","","","","","","","","","","","","","","","","","","","","","",""
"","944","color_pract","rdk","46","69939","0.0-0.0-2.0-1.0-0.0-0.0-1.14","k","","true","[""d"",""k""]","k","3000","true","1","100","0","0","0","5.7","1","-1","3","600","600","[""hsl(0, 50%, 50%)"",""hsl(225, 50%, 50%)""]","[""hsl(225, 50%, 50%)"",""hsl(0, 50%, 50%)""]","6.826359037863549","0.58","0","circle","black","3","2","2","16.54385964912281","[4,17,17,17,17,16,17,18,17,17,16,17,17,17,17,16,17,17,17,17,17,16,17,17,15,17,17,17,17,17,16,18,16,17,17,16,18,16,17,16,16,17,17,16,18,16,16,17,16,17,16,17,17,16,17,18,17]","57","832","411.5","false","20","20","black","1","false","1","1","1680","998","rdk","k","","","","0.58","0.24",""
"","null","","html-keyboard-response","47","70440","0.0-0.0-2.0-1.0-0.0-0.0-2.14","null","<p style='font-size: 60px; color: green'>正确!</p>","","","","","","","","","","","","","","","","","","","","","","","","","","","","","","","","","","","","","","","","","","","","","","","","",""
"","null","fixation","html-keyboard-response","48","70942","0.0-0.0-2.0-1.0-0.0-0.0-0.15","null","<p style='font-size: 48px; color: white'>+</p >","","","","","","","","","","","","","","","","","","","","","","","","","","","","","","","","","","","","","","","","","","","","","","","","",""
"","929","color_pract","rdk","49","71872","0.0-0.0-2.0-1.0-0.0-0.0-1.15","k","","true","[""d"",""k""]","k","3000","true","1","100","0","0","0","5.7","1","-1","3","600","600","[""hsl(0, 50%, 50%)"",""hsl(225, 50%, 50%)""]","[""hsl(225, 50%, 50%)"",""hsl(0, 50%, 50%)""]","6.826359037863549","0.58","0","circle","black","3","2","2","16.535714285714285","[7,16,16,17,17,17,16,18,17,15,17,17,17,16,16,17,17,16,17,17,17,17,16,17,16,17,17,16,16,17,17,18,16,16,17,18,17,16,16,16,17,17,16,18,16,18,16,17,16,17,18,17,17,17,16,17]","56","832","411.5","false","20","20","black","1","false","1","1","1680","998","rdk","k","","","","0.58","0.24",""
"","null","","html-keyboard-response","50","72373","0.0-0.0-2.0-1.0-0.0-0.0-2.15","null","<p style='font-size: 60px; color: green'>正确!</p>","","","","","","","","","","","","","","","","","","","","","","","","","","","","","","","","","","","","","","","","","","","","","","","","",""
"","null","fixation","html-keyboard-response","51","72874","0.0-0.0-2.0-1.0-0.0-0.0-0.16","null","<p style='font-size: 48px; color: white'>+</p >","","","","","","","","","","","","","","","","","","","","","","","","","","","","","","","","","","","","","","","","","","","","","","","","",""
"","945","color_pract","rdk","52","73821","0.0-0.0-2.0-1.0-0.0-0.0-1.16","d","","false","[""d"",""k""]","k","3000","true","1","100","0","0","0","5.7","1","-1","3","600","600","[""hsl(0, 50%, 50%)"",""hsl(225, 50%, 50%)""]","[""hsl(225, 50%, 50%)"",""hsl(0, 50%, 50%)""]","6.826359037863549","0.5599999999999999","0","circle","black","3","2","2","16.614035087719298","[7,17,16,18,16,17,17,16,17,17,16,17,17,17,17,17,16,17,17,18,17,16,16,17,17,17,17,17,16,16,18,16,17,16,17,18,16,16,17,18,16,18,16,16,18,16,16,18,16,17,16,17,18,17,17,17,16]","57","832","411.5","false","20","20","black","1","false","1","1","1680","998","rdk","k","","","","0.5599999999999999","0.24",""
"","null","","html-keyboard-response","53","74323","0.0-0.0-2.0-1.0-0.0-0.0-2.16","null","<p style='font-size: 60px; color: red'>错误!</p>","","","","","","","","","","","","","","","","","","","","","","","","","","","","","","","","","","","","","","","","","","","","","","","","",""
"","null","fixation","html-keyboard-response","54","74824","0.0-0.0-2.0-1.0-0.0-0.0-0.17","null","<p style='font-size: 48px; color: white'>+</p >","","","","","","","","","","","","","","","","","","","","","","","","","","","","","","","","","","","","","","","","","","","","","","","","",""
"","822","color_pract","rdk","55","75647","0.0-0.0-2.0-1.0-0.0-0.0-1.17","d","","true","[""d"",""k""]","d","3000","true","1","100","0","0","0","5.7","1","-1","3","600","600","[""hsl(0, 50%, 50%)"",""hsl(225, 50%, 50%)""]","[""hsl(0, 50%, 50%)"",""hsl(225, 50%, 50%)""]","6.826359037863549","0.58","0","circle","black","3","2","2","16.571428571428573","[8,17,17,16,17,17,17,16,17,17,16,17,17,17,17,17,16,18,15,17,17,16,17,17,16,16,17,16,17,17,17,17,16,18,15,18,16,18,16,18,16,17,17,16,17,17,17,17,17]","49","832","411.5","false","20","20","black","1","false","1","1","1680","998","rdk","d","","","","0.58","0.24",""
"","null","","html-keyboard-response","56","76149","0.0-0.0-2.0-1.0-0.0-0.0-2.17","null","<p style='font-size: 60px; color: green'>正确!</p>","","","","","","","","","","","","","","","","","","","","","","","","","","","","","","","","","","","","","","","","","","","","","","","","",""
"","null","fixation","html-keyboard-response","57","76651","0.0-0.0-2.0-1.0-0.0-0.0-0.18","null","<p style='font-size: 48px; color: white'>+</p >","","","","","","","","","","","","","","","","","","","","","","","","","","","","","","","","","","","","","","","","","","","","","","","","",""
"","1138","color_pract","rdk","58","77790","0.0-0.0-2.0-1.0-0.0-0.0-1.18","k","","true","[""d"",""k""]","k","3000","true","1","100","0","0","0","5.7","1","-1","3","600","600","[""hsl(0, 50%, 50%)"",""hsl(225, 50%, 50%)""]","[""hsl(225, 50%, 50%)"",""hsl(0, 50%, 50%)""]","6.826359037863549","0.58","0","circle","black","3","2","2","16.970149253731343","[14,16,18,16,17,17,17,17,18,16,17,17,16,17,16,17,17,17,16,17,16,17,17,16,17,18,16,16,17,17,16,17,17,17,17,16,17,17,16,17,17,17,17,16,17,16,16,17,18,17,16,16,17,17,17,16,18,17,17,16,17,16,17,17,17,17,34]","67","832","411.5","false","20","20","black","1","false","1","1","1680","998","rdk","k","","","","0.58","0.24",""
"","null","","html-keyboard-response","59","78292","0.0-0.0-2.0-1.0-0.0-0.0-2.18","null","<p style='font-size: 60px; color: green'>正确!</p>","","","","","","","","","","","","","","","","","","","","","","","","","","","","","","","","","","","","","","","","","","","","","","","","",""
"","null","fixation","html-keyboard-response","60","78793","0.0-0.0-2.0-1.0-0.0-0.0-0.19","null","<p style='font-size: 48px; color: white'>+</p >","","","","","","","","","","","","","","","","","","","","","","","","","","","","","","","","","","","","","","","","","","","","","","","","",""
"","792","color_pract","rdk","61","79586","0.0-0.0-2.0-1.0-0.0-0.0-1.19","d","","true","[""d"",""k""]","d","3000","true","1","100","0","0","0","5.7","1","-1","3","600","600","[""hsl(0, 50%, 50%)"",""hsl(225, 50%, 50%)""]","[""hsl(0, 50%, 50%)"",""hsl(225, 50%, 50%)""]","6.826359037863549","0.58","0","circle","black","3","2","2","16.4375","[4,17,18,17,17,17,17,17,16,17,17,18,15,18,16,17,17,17,17,16,16,17,17,17,17,17,17,15,16,18,16,17,16,17,17,15,17,17,16,16,17,16,16,18,15,18,17,16]","48","832","411.5","false","20","20","black","1","false","1","1","1680","998","rdk","d","","","","0.58","0.24",""
"","null","","html-keyboard-response","62","80087","0.0-0.0-2.0-1.0-0.0-0.0-2.19","null","<p style='font-size: 60px; color: green'>正确!</p>","","","","","","","","","","","","","","","","","","","","","","","","","","","","","","","","","","","","","","","","","","","","","","","","",""
"","null","fixation","html-keyboard-response","63","80589","0.0-0.0-2.0-1.0-0.0-0.0-0.20","null","<p style='font-size: 48px; color: white'>+</p >","","","","","","","","","","","","","","","","","","","","","","","","","","","","","","","","","","","","","","","","","","","","","","","","",""
"","1166","color_pract","rdk","64","81755","0.0-0.0-2.0-1.0-0.0-0.0-1.20","d","","false","[""d"",""k""]","k","3000","true","1","100","0","0","0","5.7","1","-1","3","600","600","[""hsl(0, 50%, 50%)"",""hsl(225, 50%, 50%)""]","[""hsl(225, 50%, 50%)"",""hsl(0, 50%, 50%)""]","6.826359037863549","0.58","0","circle","black","3","2","2","17.16176470588235","[10,17,17,16,18,17,15,18,16,17,17,16,18,17,16,17,18,16,17,16,18,17,16,17,16,18,17,16,17,17,16,18,15,18,16,17,17,16,18,15,17,18,16,17,17,17,17,17,16,17,17,16,16,18,16,17,17,17,17,16,18,15,18,17,16,17,32,34]","68","832","411.5","false","20","20","black","1","false","1","1","1680","998","rdk","k","","","","0.58","0.24",""
"","null","","html-keyboard-response","65","82256","0.0-0.0-2.0-1.0-0.0-0.0-2.20","null","<p style='font-size: 60px; color: red'>错误!</p>","","","","","","","","","","","","","","","","","","","","","","","","","","","","","","","","","","","","","","","","","","","","","","","","",""
"","null","fixation","html-keyboard-response","66","82757","0.0-0.0-2.0-1.0-0.0-0.0-0.21","null","<p style='font-size: 48px; color: white'>+</p >","","","","","","","","","","","","","","","","","","","","","","","","","","","","","","","","","","","","","","","","","","","","","","","","",""
"","778","color_pract","rdk","67","83536","0.0-0.0-2.0-1.0-0.0-0.0-1.21","d","","true","[""d"",""k""]","d","3000","true","1","100","0","0","0","5.7","1","-1","3","600","600","[""hsl(0, 50%, 50%)"",""hsl(225, 50%, 50%)""]","[""hsl(0, 50%, 50%)"",""hsl(225, 50%, 50%)""]","6.826359037863549","0.6","0","circle","black","3","2","2","16.5531914893617","[8,17,16,18,16,17,17,16,16,16,16,18,17,16,17,17,18,16,17,17,17,17,16,17,17,16,18,16,17,16,17,17,17,16,18,16,18,16,17,16,17,17,16,18,16,17,16]","47","832","411.5","false","20","20","black","1","false","1","1","1680","998","rdk","d","","","","0.6","0.24",""
"","null","","html-keyboard-response","68","84037","0.0-0.0-2.0-1.0-0.0-0.0-2.21","null","<p style='font-size: 60px; color: green'>正确!</p>","","","","","","","","","","","","","","","","","","","","","","","","","","","","","","","","","","","","","","","","","","","","","","","","",""
"","null","fixation","html-keyboard-response","69","84538","0.0-0.0-2.0-1.0-0.0-0.0-0.22","null","<p style='font-size: 48px; color: white'>+</p >","","","","","","","","","","","","","","","","","","","","","","","","","","","","","","","","","","","","","","","","","","","","","","","","",""
"","892","color_pract","rdk","70","85430","0.0-0.0-2.0-1.0-0.0-0.0-1.22","k","","true","[""d"",""k""]","k","3000","true","1","100","0","0","0","5.7","1","-1","3","600","600","[""hsl(0, 50%, 50%)"",""hsl(225, 50%, 50%)""]","[""hsl(225, 50%, 50%)"",""hsl(0, 50%, 50%)""]","6.826359037863549","0.6","0","circle","black","3","2","2","16.641509433962263","[12,16,16,17,17,15,18,16,17,18,15,18,16,17,17,17,16,18,16,17,17,17,16,17,17,18,16,17,17,15,16,17,17,17,18,17,16,17,17,17,16,18,17,16,18,16,17,17,17,16,17,16,16]","53","832","411.5","false","20","20","black","1","false","1","1","1680","998","rdk","k","","","","0.6","0.24",""
"","null","","html-keyboard-response","71","85931","0.0-0.0-2.0-1.0-0.0-0.0-2.22","null","<p style='font-size: 60px; color: green'>正确!</p>","","","","","","","","","","","","","","","","","","","","","","","","","","","","","","","","","","","","","","","","","","","","","","","","",""
"","null","fixation","html-keyboard-response","72","86433","0.0-0.0-2.0-1.0-0.0-0.0-0.23","null","<p style='font-size: 48px; color: white'>+</p >","","","","","","","","","","","","","","","","","","","","","","","","","","","","","","","","","","","","","","","","","","","","","","","","",""
"","799","color_pract","rdk","73","87233","0.0-0.0-2.0-1.0-0.0-0.0-1.23","d","","true","[""d"",""k""]","d","3000","true","1","100","0","0","0","5.7","1","-1","3","600","600","[""hsl(0, 50%, 50%)"",""hsl(225, 50%, 50%)""]","[""hsl(0, 50%, 50%)"",""hsl(225, 50%, 50%)""]","6.826359037863549","0.6","0","circle","black","3","2","2","16.729166666666668","[14,18,16,18,16,18,16,18,17,17,17,16,18,17,17,16,17,16,17,17,16,17,17,17,17,17,15,18,15,17,17,16,17,16,18,17,16,17,16,17,16,18,16,18,16,17,17,16]","48","832","411.5","false","20","20","black","1","false","1","1","1680","998","rdk","d","","","","0.6","0.24",""
"","null","","html-keyboard-response","74","87734","0.0-0.0-2.0-1.0-0.0-0.0-2.23","null","<p style='font-size: 60px; color: green'>正确!</p>","","","","","","","","","","","","","","","","","","","","","","","","","","","","","","","","","","","","","","","","","","","","","","","","",""
"","null","fixation","html-keyboard-response","75","88236","0.0-0.0-2.0-1.0-0.0-0.0-0.24","null","<p style='font-size: 48px; color: white'>+</p >","","","","","","","","","","","","","","","","","","","","","","","","","","","","","","","","","","","","","","","","","","","","","","","","",""
"","862","color_pract","rdk","76","89099","0.0-0.0-2.0-1.0-0.0-0.0-1.24","d","","true","[""d"",""k""]","d","3000","true","1","100","0","0","0","5.7","1","-1","3","600","600","[""hsl(0, 50%, 50%)"",""hsl(225, 50%, 50%)""]","[""hsl(0, 50%, 50%)"",""hsl(225, 50%, 50%)""]","6.826359037863549","0.6","0","circle","black","3","2","2","16.647058823529413","[13,17,16,18,16,17,17,17,15,16,18,16,17,17,16,18,16,16,17,17,17,16,18,17,16,17,17,16,17,18,16,17,16,17,16,17,17,17,16,17,17,17,16,17,16,17,16,17,17,16,18]","51","832","411.5","false","20","20","black","1","false","1","1","1680","998","rdk","d","","","","0.6","0.24",""
"","null","","html-keyboard-response","77","89600","0.0-0.0-2.0-1.0-0.0-0.0-2.24","null","<p style='font-size: 60px; color: green'>正确!</p>","","","","","","","","","","","","","","","","","","","","","","","","","","","","","","","","","","","","","","","","","","","","","","","","",""
"","null","fixation","html-keyboard-response","78","90103","0.0-0.0-2.0-1.0-0.0-0.0-0.25","null","<p style='font-size: 48px; color: white'>+</p >","","","","","","","","","","","","","","","","","","","","","","","","","","","","","","","","","","","","","","","","","","","","","","","","",""
"","985","color_pract","rdk","79","91088","0.0-0.0-2.0-1.0-0.0-0.0-1.25","k","","true","[""d"",""k""]","k","3000","true","1","100","0","0","0","5.7","1","-1","3","600","600","[""hsl(0, 50%, 50%)"",""hsl(225, 50%, 50%)""]","[""hsl(225, 50%, 50%)"",""hsl(0, 50%, 50%)""]","6.826359037863549","0.58","0","circle","black","3","2","2","16.677966101694917","[11,18,17,17,16,17,17,17,16,17,16,17,17,17,17,18,16,17,16,18,16,16,18,16,17,16,18,17,16,17,16,17,17,16,18,16,16,16,17,18,16,17,17,16,17,18,16,17,16,16,18,17,16,16,18,17,16,16,18]","59","832","411.5","false","20","20","black","1","false","1","1","1680","998","rdk","k","","","","0.58","0.24",""
"","null","","html-keyboard-response","80","91590","0.0-0.0-2.0-1.0-0.0-0.0-2.25","null","<p style='font-size: 60px; color: green'>正确!</p>","","","","","","","","","","","","","","","","","","","","","","","","","","","","","","","","","","","","","","","","","","","","","","","","",""
"","null","fixation","html-keyboard-response","81","92092","0.0-0.0-2.0-1.0-0.0-0.0-0.26","null","<p style='font-size: 48px; color: white'>+</p >","","","","","","","","","","","","","","","","","","","","","","","","","","","","","","","","","","","","","","","","","","","","","","","","",""
"","975","color_pract","rdk","82","93068","0.0-0.0-2.0-1.0-0.0-0.0-1.26","d","","true","[""d"",""k""]","d","3000","true","1","100","0","0","0","5.7","1","-1","3","600","600","[""hsl(0, 50%, 50%)"",""hsl(225, 50%, 50%)""]","[""hsl(0, 50%, 50%)"",""hsl(225, 50%, 50%)""]","6.826359037863549","0.58","0","circle","black","3","2","2","16.627118644067796","[6,16,18,17,17,16,16,17,16,17,16,17,18,17,17,16,17,16,17,18,15,18,17,16,17,17,17,17,17,17,17,17,17,16,18,17,17,16,17,16,17,17,17,17,18,16,18,17,15,17,16,17,18,17,17,17,17,15,17]","59","832","411.5","false","20","20","black","1","false","1","1","1680","998","rdk","d","","","","0.58","0.24",""
"","null","","html-keyboard-response","83","93570","0.0-0.0-2.0-1.0-0.0-0.0-2.26","null","<p style='font-size: 60px; color: green'>正确!</p>","","","","","","","","","","","","","","","","","","","","","","","","","","","","","","","","","","","","","","","","","","","","","","","","",""
"","null","fixation","html-keyboard-response","84","94072","0.0-0.0-2.0-1.0-0.0-0.0-0.27","null","<p style='font-size: 48px; color: white'>+</p >","","","","","","","","","","","","","","","","","","","","","","","","","","","","","","","","","","","","","","","","","","","","","","","","",""
"","1089","color_pract","rdk","85","95163","0.0-0.0-2.0-1.0-0.0-0.0-1.27","k","","true","[""d"",""k""]","k","3000","true","1","100","0","0","0","5.7","1","-1","3","600","600","[""hsl(0, 50%, 50%)"",""hsl(225, 50%, 50%)""]","[""hsl(225, 50%, 50%)"",""hsl(0, 50%, 50%)""]","6.826359037863549","0.58","0","circle","black","3","2","2","16.584615384615386","[10,16,18,16,16,17,17,16,17,17,16,17,16,17,17,17,16,18,16,16,18,17,17,16,17,16,17,17,17,17,17,17,17,16,16,18,16,17,16,17,16,17,16,16,18,16,17,17,16,16,18,16,17,16,17,16,17,17,15,18,16,17,17,17,17]","65","832","411.5","false","20","20","black","1","false","1","1","1680","998","rdk","k","","","","0.58","0.24",""
"","null","","html-keyboard-response","86","95664","0.0-0.0-2.0-1.0-0.0-0.0-2.27","null","<p style='font-size: 60px; color: green'>正确!</p>","","","","","","","","","","","","","","","","","","","","","","","","","","","","","","","","","","","","","","","","","","","","","","","","",""
"","null","fixation","html-keyboard-response","87","96166","0.0-0.0-2.0-1.0-0.0-0.0-0.28","null","<p style='font-size: 48px; color: white'>+</p >","","","","","","","","","","","","","","","","","","","","","","","","","","","","","","","","","","","","","","","","","","","","","","","","",""
"","797","color_pract","rdk","88","96964","0.0-0.0-2.0-1.0-0.0-0.0-1.28","d","","true","[""d"",""k""]","d","3000","true","1","100","0","0","0","5.7","1","-1","3","600","600","[""hsl(0, 50%, 50%)"",""hsl(225, 50%, 50%)""]","[""hsl(0, 50%, 50%)"",""hsl(225, 50%, 50%)""]","6.826359037863549","0.58","0","circle","black","3","2","2","16.70212765957447","[15,18,16,17,17,16,18,16,17,15,18,17,16,16,17,18,17,17,16,17,17,16,18,15,18,16,18,17,17,16,17,16,18,16,16,17,16,16,18,16,17,17,15,17,17,16,18]","47","832","411.5","false","20","20","black","1","false","1","1","1680","998","rdk","d","","","","0.58","0.24",""
"","null","","html-keyboard-response","89","97465","0.0-0.0-2.0-1.0-0.0-0.0-2.28","null","<p style='font-size: 60px; color: green'>正确!</p>","","","","","","","","","","","","","","","","","","","","","","","","","","","","","","","","","","","","","","","","","","","","","","","","",""
"","null","fixation","html-keyboard-response","90","97967","0.0-0.0-2.0-1.0-0.0-0.0-0.29","null","<p style='font-size: 48px; color: white'>+</p >","","","","","","","","","","","","","","","","","","","","","","","","","","","","","","","","","","","","","","","","","","","","","","","","",""
"","879","color_pract","rdk","91","98847","0.0-0.0-2.0-1.0-0.0-0.0-1.29","d","","false","[""d"",""k""]","k","3000","true","1","100","0","0","0","5.7","1","-1","3","600","600","[""hsl(0, 50%, 50%)"",""hsl(225, 50%, 50%)""]","[""hsl(225, 50%, 50%)"",""hsl(0, 50%, 50%)""]","6.826359037863549","0.5599999999999999","0","circle","black","3","2","2","16.673076923076923","[14,18,16,18,15,18,17,16,17,17,17,17,17,16,16,18,16,17,16,16,17,17,17,17,16,17,16,17,17,17,18,16,17,16,17,17,17,16,16,17,16,17,17,17,17,17,17,16,16,17,17,16]","52","832","411.5","false","20","20","black","1","false","1","1","1680","998","rdk","k","","","","0.5599999999999999","0.24",""
"","null","","html-keyboard-response","92","99348","0.0-0.0-2.0-1.0-0.0-0.0-2.29","null","<p style='font-size: 60px; color: red'>错误!</p>","","","","","","","","","","","","","","","","","","","","","","","","","","","","","","","","","","","","","","","","","","","","","","","","",""
"","null","fixation","html-keyboard-response","93","99850","0.0-0.0-2.0-1.0-0.0-0.0-0.30","null","<p style='font-size: 48px; color: white'>+</p >","","","","","","","","","","","","","","","","","","","","","","","","","","","","","","","","","","","","","","","","","","","","","","","","",""
"","833","color_pract","rdk","94","100684","0.0-0.0-2.0-1.0-0.0-0.0-1.30","d","","false","[""d"",""k""]","k","3000","true","1","100","0","0","0","5.7","1","-1","3","600","600","[""hsl(0, 50%, 50%)"",""hsl(225, 50%, 50%)""]","[""hsl(225, 50%, 50%)"",""hsl(0, 50%, 50%)""]","6.826359037863549","0.58","0","circle","black","3","2","2","16.7","[15,17,17,17,17,17,16,18,17,17,16,17,17,16,17,17,16,18,16,18,16,16,17,17,16,17,17,15,18,16,17,17,16,17,17,15,18,17,16,17,17,17,17,17,15,18,17,16,17,16]","50","832","411.5","false","20","20","black","1","false","1","1","1680","998","rdk","k","","","","0.58","0.24",""
"","null","","html-keyboard-response","95","101186","0.0-0.0-2.0-1.0-0.0-0.0-2.30","null","<p style='font-size: 60px; color: red'>错误!</p>","","","","","","","","","","","","","","","","","","","","","","","","","","","","","","","","","","","","","","","","","","","","","","","","",""
"","null","fixation","html-keyboard-response","96","101688","0.0-0.0-2.0-1.0-0.0-0.0-0.31","null","<p style='font-size: 48px; color: white'>+</p >","","","","","","","","","","","","","","","","","","","","","","","","","","","","","","","","","","","","","","","","","","","","","","","","",""
"","778","color_pract","rdk","97","102467","0.0-0.0-2.0-1.0-0.0-0.0-1.31","d","","true","[""d"",""k""]","d","3000","true","1","100","0","0","0","5.7","1","-1","3","600","600","[""hsl(0, 50%, 50%)"",""hsl(225, 50%, 50%)""]","[""hsl(0, 50%, 50%)"",""hsl(225, 50%, 50%)""]","6.826359037863549","0.6","0","circle","black","3","2","2","16.53191489361702","[10,16,18,16,16,17,17,16,16,17,16,18,17,15,18,16,18,16,16,18,16,17,16,18,16,18,17,16,18,16,17,15,18,16,17,17,17,15,17,17,16,17,16,18,16,17,16]","47","832","411.5","false","20","20","black","1","false","1","1","1680","998","rdk","d","","","","0.6","0.24",""
"","null","","html-keyboard-response","98","102968","0.0-0.0-2.0-1.0-0.0-0.0-2.31","null","<p style='font-size: 60px; color: green'>正确!</p>","","","","","","","","","","","","","","","","","","","","","","","","","","","","","","","","","","","","","","","","","","","","","","","","",""
"","null","fixation","html-keyboard-response","99","103469","0.0-0.0-2.0-1.0-0.0-0.0-0.32","null","<p style='font-size: 48px; color: white'>+</p >","","","","","","","","","","","","","","","","","","","","","","","","","","","","","","","","","","","","","","","","","","","","","","","","",""
"","788","color_pract","rdk","100","104258","0.0-0.0-2.0-1.0-0.0-0.0-1.32","k","","true","[""d"",""k""]","k","3000","true","1","100","0","0","0","5.7","1","-1","3","600","600","[""hsl(0, 50%, 50%)"",""hsl(225, 50%, 50%)""]","[""hsl(225, 50%, 50%)"",""hsl(0, 50%, 50%)""]","6.826359037863549","0.6","0","circle","black","3","2","2","16.659574468085108","[13,16,17,17,16,17,18,16,17,17,16,17,16,18,16,17,17,17,17,17,15,16,18,16,18,17,17,16,17,16,18,16,17,17,17,15,18,16,18,15,17,16,17,18,17,15,18]","47","832","411.5","false","20","20","black","1","false","1","1","1680","998","rdk","k","","","","0.6","0.24",""
"","null","","html-keyboard-response","101","104759","0.0-0.0-2.0-1.0-0.0-0.0-2.32","null","<p style='font-size: 60px; color: green'>正确!</p>","","","","","","","","","","","","","","","","","","","","","","","","","","","","","","","","","","","","","","","","","","","","","","","","",""
"","null","fixation","html-keyboard-response","102","105261","0.0-0.0-2.0-1.0-0.0-0.0-0.33","null","<p style='font-size: 48px; color: white'>+</p >","","","","","","","","","","","","","","","","","","","","","","","","","","","","","","","","","","","","","","","","","","","","","","","","",""
"","769","color_pract","rdk","103","106031","0.0-0.0-2.0-1.0-0.0-0.0-1.33","d","","true","[""d"",""k""]","d","3000","true","1","100","0","0","0","5.7","1","-1","3","600","600","[""hsl(0, 50%, 50%)"",""hsl(225, 50%, 50%)""]","[""hsl(0, 50%, 50%)"",""hsl(225, 50%, 50%)""]","6.826359037863549","0.6","0","circle","black","3","2","2","16.47826086956522","[3,17,16,18,16,17,17,16,17,16,17,17,17,16,17,17,17,16,17,16,17,16,18,16,17,16,17,17,16,17,18,17,17,17,17,16,17,18,17,17,15,18,17,17,15,18]","46","832","411.5","false","20","20","black","1","false","1","1","1680","998","rdk","d","","","","0.6","0.24",""
"","null","","html-keyboard-response","104","106532","0.0-0.0-2.0-1.0-0.0-0.0-2.33","null","<p style='font-size: 60px; color: green'>正确!</p>","","","","","","","","","","","","","","","","","","","","","","","","","","","","","","","","","","","","","","","","","","","","","","","","",""
"","null","fixation","html-keyboard-response","105","107034","0.0-0.0-2.0-1.0-0.0-0.0-0.34","null","<p style='font-size: 48px; color: white'>+</p >","","","","","","","","","","","","","","","","","","","","","","","","","","","","","","","","","","","","","","","","","","","","","","","","",""
"","958","color_pract","rdk","106","107992","0.0-0.0-2.0-1.0-0.0-0.0-1.34","k","","true","[""d"",""k""]","k","3000","true","1","100","0","0","0","5.7","1","-1","3","600","600","[""hsl(0, 50%, 50%)"",""hsl(225, 50%, 50%)""]","[""hsl(225, 50%, 50%)"",""hsl(0, 50%, 50%)""]","6.826359037863549","0.6","0","circle","black","3","2","2","16.789473684210527","[16,16,17,17,17,16,17,18,16,17,17,18,16,17,18,17,17,17,17,17,17,16,17,17,16,16,17,17,16,17,16,18,16,16,18,16,17,16,17,18,16,17,18,16,18,16,16,17,16,16,18,16,17,17,17,16,18]","57","832","411.5","false","20","20","black","1","false","1","1","1680","998","rdk","k","","","","0.6","0.24",""
"","null","","html-keyboard-response","107","108493","0.0-0.0-2.0-1.0-0.0-0.0-2.34","null","<p style='font-size: 60px; color: green'>正确!</p>","","","","","","","","","","","","","","","","","","","","","","","","","","","","","","","","","","","","","","","","","","","","","","","","",""
"","null","fixation","html-keyboard-response","108","108996","0.0-0.0-2.0-1.0-0.0-0.0-0.35","null","<p style='font-size: 48px; color: white'>+</p >","","","","","","","","","","","","","","","","","","","","","","","","","","","","","","","","","","","","","","","","","","","","","","","","",""
"","961","color_pract","rdk","109","109957","0.0-0.0-2.0-1.0-0.0-0.0-1.35","d","","true","[""d"",""k""]","d","3000","true","1","100","0","0","0","5.7","1","-1","3","600","600","[""hsl(0, 50%, 50%)"",""hsl(225, 50%, 50%)""]","[""hsl(0, 50%, 50%)"",""hsl(225, 50%, 50%)""]","6.826359037863549","0.58","0","circle","black","3","2","2","16.551724137931036","[2,17,17,18,17,17,15,18,17,16,17,16,17,17,17,17,15,17,17,18,17,17,17,17,15,18,16,18,16,18,17,16,17,16,17,17,16,17,17,16,18,16,16,18,16,17,17,17,16,17,18,17,16,16,17,17,17,17]","58","832","411.5","false","20","20","black","1","false","1","1","1680","998","rdk","d","","","","0.58","0.24",""
"","null","","html-keyboard-response","110","110459","0.0-0.0-2.0-1.0-0.0-0.0-2.35","null","<p style='font-size: 60px; color: green'>正确!</p>","","","","","","","","","","","","","","","","","","","","","","","","","","","","","","","","","","","","","","","","","","","","","","","","",""
"","null","fixation","html-keyboard-response","111","110960","0.0-0.0-2.0-1.0-0.0-0.0-0.36","null","<p style='font-size: 48px; color: white'>+</p >","","","","","","","","","","","","","","","","","","","","","","","","","","","","","","","","","","","","","","","","","","","","","","","","",""
"","997","color_pract","rdk","112","111958","0.0-0.0-2.0-1.0-0.0-0.0-1.36","d","","false","[""d"",""k""]","k","3000","true","1","100","0","0","0","5.7","1","-1","3","600","600","[""hsl(0, 50%, 50%)"",""hsl(225, 50%, 50%)""]","[""hsl(225, 50%, 50%)"",""hsl(0, 50%, 50%)""]","6.826359037863549","0.58","0","circle","black","3","2","2","16.583333333333332","[5,17,17,17,17,17,16,17,17,17,17,16,16,17,17,17,16,16,17,18,17,16,17,17,18,17,16,17,16,17,18,17,17,17,16,17,16,17,15,18,16,18,17,17,16,16,17,18,17,16,17,16,17,16,17,17,17,17,16,17]","60","832","411.5","false","20","20","black","1","false","1","1","1680","998","rdk","k","","","","0.58","0.24",""
"","null","","html-keyboard-response","113","112459","0.0-0.0-2.0-1.0-0.0-0.0-2.36","null","<p style='font-size: 60px; color: red'>错误!</p>","","","","","","","","","","","","","","","","","","","","","","","","","","","","","","","","","","","","","","","","","","","","","","","","",""
"","null","fixation","html-keyboard-response","114","112961","0.0-0.0-2.0-1.0-0.0-0.0-0.37","null","<p style='font-size: 48px; color: white'>+</p >","","","","","","","","","","","","","","","","","","","","","","","","","","","","","","","","","","","","","","","","","","","","","","","","",""
"","920","color_pract","rdk","115","113881","0.0-0.0-2.0-1.0-0.0-0.0-1.37","k","","true","[""d"",""k""]","k","3000","true","1","100","0","0","0","5.7","1","-1","3","600","600","[""hsl(0, 50%, 50%)"",""hsl(225, 50%, 50%)""]","[""hsl(225, 50%, 50%)"",""hsl(0, 50%, 50%)""]","6.826359037863549","0.6","0","circle","black","3","2","2","16.545454545454547","[4,17,17,17,16,18,17,17,17,16,18,17,17,16,17,16,17,16,17,17,16,17,17,17,17,17,17,17,16,17,16,18,16,18,16,16,17,17,17,17,16,17,17,17,17,17,15,18,17,17,16,16,17,16,17]","55","832","411.5","false","20","20","black","1","false","1","1","1680","998","rdk","k","","","","0.6","0.24",""
"","null","","html-keyboard-response","116","114383","0.0-0.0-2.0-1.0-0.0-0.0-2.37","null","<p style='font-size: 60px; color: green'>正确!</p>","","","","","","","","","","","","","","","","","","","","","","","","","","","","","","","","","","","","","","","","","","","","","","","","",""
"","null","fixation","html-keyboard-response","117","114885","0.0-0.0-2.0-1.0-0.0-0.0-0.38","null","<p style='font-size: 48px; color: white'>+</p >","","","","","","","","","","","","","","","","","","","","","","","","","","","","","","","","","","","","","","","","","","","","","","","","",""
"","721","color_pract","rdk","118","115607","0.0-0.0-2.0-1.0-0.0-0.0-1.38","d","","true","[""d"",""k""]","d","3000","true","1","100","0","0","0","5.7","1","-1","3","600","600","[""hsl(0, 50%, 50%)"",""hsl(225, 50%, 50%)""]","[""hsl(0, 50%, 50%)"",""hsl(225, 50%, 50%)""]","6.826359037863549","0.6","0","circle","black","3","2","2","16.627906976744185","[14,17,16,18,17,17,16,17,17,15,17,18,16,17,17,16,17,16,16,18,16,17,17,17,17,16,17,17,16,17,17,16,17,17,16,16,18,16,17,17,17,16,16]","43","832","411.5","false","20","20","black","1","false","1","1","1680","998","rdk","d","","","","0.6","0.24",""
"","null","","html-keyboard-response","119","116109","0.0-0.0-2.0-1.0-0.0-0.0-2.38","null","<p style='font-size: 60px; color: green'>正确!</p>","","","","","","","","","","","","","","","","","","","","","","","","","","","","","","","","","","","","","","","","","","","","","","","","",""
"","null","fixation","html-keyboard-response","120","116610","0.0-0.0-2.0-1.0-0.0-0.0-0.39","null","<p style='font-size: 48px; color: white'>+</p >","","","","","","","","","","","","","","","","","","","","","","","","","","","","","","","","","","","","","","","","","","","","","","","","",""
"","960","color_pract","rdk","121","117572","0.0-0.0-2.0-1.0-0.0-0.0-1.39","d","","true","[""d"",""k""]","d","3000","true","1","100","0","0","0","5.7","1","-1","3","600","600","[""hsl(0, 50%, 50%)"",""hsl(225, 50%, 50%)""]","[""hsl(0, 50%, 50%)"",""hsl(225, 50%, 50%)""]","6.826359037863549","0.6","0","circle","black","3","2","2","16.517241379310345","[5,16,17,16,18,16,17,16,16,17,16,17,17,17,17,17,16,16,17,16,17,17,17,16,17,17,16,16,17,18,15,18,16,17,17,18,16,16,18,17,16,18,17,16,17,16,17,16,17,18,16,17,17,17,17,17,16,17]","58","832","411.5","false","20","20","black","1","false","1","1","1680","998","rdk","d","","","","0.6","0.24",""
"","null","","html-keyboard-response","122","118072","0.0-0.0-2.0-1.0-0.0-0.0-2.39","null","<p style='font-size: 60px; color: green'>正确!</p>","","","","","","","","","","","","","","","","","","","","","","","","","","","","","","","","","","","","","","","","","","","","","","","","",""
"","null","fixation","html-keyboard-response","123","118574","0.0-0.0-2.0-1.0-0.1-0.1-0.40","null","<p style='font-size: 48px; color: white'>+</p >","","","","","","","","","","","","","","","","","","","","","","","","","","","","","","","","","","","","","","","","","","","","","","","","",""
"","1006","color_pract","rdk","124","119581","0.0-0.0-2.0-1.0-0.1-0.1-1.40","d","","false","[""d"",""k""]","k","3000","true","1","100","0","0","0","5.7","1","-1","3","600","600","[""hsl(0, 50%, 50%)"",""hsl(225, 50%, 50%)""]","[""hsl(225, 50%, 50%)"",""hsl(0, 50%, 50%)""]","6.826359037863549","0.6","0","circle","black","3","2","2","16.6","[9,16,16,18,15,17,18,17,16,17,17,16,18,16,18,16,17,16,16,18,15,18,16,17,18,17,17,16,17,17,16,17,17,17,16,17,17,16,17,16,17,17,16,17,16,17,17,16,16,17,17,17,16,17,17,17,18,17,16,17]","60","832","411.5","false","20","20","black","1","false","1","1","1680","998","rdk","k","","","","0.6","0.24",""
"","null","","html-keyboard-response","125","120082","0.0-0.0-2.0-1.0-0.1-0.1-2.40","null","<p style='font-size: 60px; color: red'>错误!</p>","","","","","","","","","","","","","","","","","","","","","","","","","","","","","","","","","","","","","","","","","","","","","","","","",""
"","null","fixation","html-keyboard-response","126","120584","0.0-0.0-2.0-1.0-0.1-0.1-0.41","null","<p style='font-size: 48px; color: white'>+</p >","","","","","","","","","","","","","","","","","","","","","","","","","","","","","","","","","","","","","","","","","","","","","","","","",""
"","920","color_pract","rdk","127","121505","0.0-0.0-2.0-1.0-0.1-0.1-1.41","d","","true","[""d"",""k""]","d","3000","true","1","100","0","0","0","5.7","1","-1","3","600","600","[""hsl(0, 50%, 50%)"",""hsl(225, 50%, 50%)""]","[""hsl(0, 50%, 50%)"",""hsl(225, 50%, 50%)""]","6.826359037863549","0.62","0","circle","black","3","2","2","16.69090909090909","[15,16,17,17,17,17,17,17,16,17,17,16,16,17,16,18,16,17,16,17,16,18,17,17,17,16,17,16,17,17,17,17,17,16,17,17,16,16,18,17,16,18,16,16,17,16,18,16,17,17,17,15,17,18,16]","55","832","411.5","false","20","20","black","1","false","1","1","1680","998","rdk","d","","","","0.62","0.24",""
"","null","","html-keyboard-response","128","122006","0.0-0.0-2.0-1.0-0.1-0.1-2.41","null","<p style='font-size: 60px; color: green'>正确!</p>","","","","","","","","","","","","","","","","","","","","","","","","","","","","","","","","","","","","","","","","","","","","","","","","",""
"","null","fixation","html-keyboard-response","129","122507","0.0-0.0-2.0-1.0-0.1-0.1-0.42","null","<p style='font-size: 48px; color: white'>+</p >","","","","","","","","","","","","","","","","","","","","","","","","","","","","","","","","","","","","","","","","","","","","","","","","",""
"","1007","color_pract","rdk","130","123515","0.0-0.0-2.0-1.0-0.1-0.1-1.42","k","","true","[""d"",""k""]","k","3000","true","1","100","0","0","0","5.7","1","-1","3","600","600","[""hsl(0, 50%, 50%)"",""hsl(225, 50%, 50%)""]","[""hsl(225, 50%, 50%)"",""hsl(0, 50%, 50%)""]","6.826359037863549","0.62","0","circle","black","3","2","2","16.566666666666666","[7,18,16,16,18,17,17,16,17,16,16,18,16,18,16,16,17,17,17,17,17,16,16,17,16,16,17,16,18,16,18,17,16,16,18,17,17,17,17,17,15,17,16,18,16,18,16,17,16,17,17,16,18,17,17,16,17,16,16,17]","60","832","411.5","false","20","20","black","1","false","1","1","1680","998","rdk","k","","","","0.62","0.24",""
"","null","","html-keyboard-response","131","124017","0.0-0.0-2.0-1.0-0.1-0.1-2.42","null","<p style='font-size: 60px; color: green'>正确!</p>","","","","","","","","","","","","","","","","","","","","","","","","","","","","","","","","","","","","","","","","","","","","","","","","",""
"","null","fixation","html-keyboard-response","132","124519","0.0-0.0-2.0-1.0-0.1-0.1-0.43","null","<p style='font-size: 48px; color: white'>+</p >","","","","","","","","","","","","","","","","","","","","","","","","","","","","","","","","","","","","","","","","","","","","","","","","",""
"","886","color_pract","rdk","133","125406","0.0-0.0-2.0-1.0-0.1-0.1-1.43","d","","true","[""d"",""k""]","d","3000","true","1","100","0","0","0","5.7","1","-1","3","600","600","[""hsl(0, 50%, 50%)"",""hsl(225, 50%, 50%)""]","[""hsl(0, 50%, 50%)"",""hsl(225, 50%, 50%)""]","6.826359037863549","0.62","0","circle","black","3","2","2","16.660377358490567","[13,17,17,18,16,17,17,17,17,16,17,17,16,17,16,17,17,16,18,17,16,17,16,17,17,16,18,17,16,17,15,18,16,16,17,18,17,16,16,17,16,16,18,16,17,17,17,15,17,18,17,16,17]","53","832","411.5","false","20","20","black","1","false","1","1","1680","998","rdk","d","","","","0.62","0.24",""
"","null","","html-keyboard-response","134","125907","0.0-0.0-2.0-1.0-0.1-0.1-2.43","null","<p style='font-size: 60px; color: green'>正确!</p>","","","","","","","","","","","","","","","","","","","","","","","","","","","","","","","","","","","","","","","","","","","","","","","","",""
"","null","fixation","html-keyboard-response","135","126408","0.0-0.0-2.0-1.0-0.1-0.1-0.44","null","<p style='font-size: 48px; color: white'>+</p >","","","","","","","","","","","","","","","","","","","","","","","","","","","","","","","","","","","","","","","","","","","","","","","","",""
"","895","color_pract","rdk","136","127305","0.0-0.0-2.0-1.0-0.1-0.1-1.44","d","","true","[""d"",""k""]","d","3000","true","1","100","0","0","0","5.7","1","-1","3","600","600","[""hsl(0, 50%, 50%)"",""hsl(225, 50%, 50%)""]","[""hsl(0, 50%, 50%)"",""hsl(225, 50%, 50%)""]","6.826359037863549","0.62","0","circle","black","3","2","2","16.574074074074073","[8,16,17,17,17,17,17,16,17,16,18,15,18,17,16,16,17,18,16,17,15,18,17,16,16,18,17,16,17,17,17,16,16,17,17,17,16,17,17,17,17,17,17,16,16,17,17,17,17,17,17,17,16,17]","54","832","411.5","false","20","20","black","1","false","1","1","1680","998","rdk","d","","","","0.62","0.24",""
"","null","","html-keyboard-response","137","127806","0.0-0.0-2.0-1.0-0.1-0.1-2.44","null","<p style='font-size: 60px; color: green'>正确!</p>","","","","","","","","","","","","","","","","","","","","","","","","","","","","","","","","","","","","","","","","","","","","","","","","",""
"","null","fixation","html-keyboard-response","138","128307","0.0-0.0-2.0-1.0-0.1-0.1-0.45","null","<p style='font-size: 48px; color: white'>+</p >","","","","","","","","","","","","","","","","","","","","","","","","","","","","","","","","","","","","","","","","","","","","","","","","",""
"","1114","color_pract","rdk","139","129423","0.0-0.0-2.0-1.0-0.1-0.1-1.45","k","","true","[""d"",""k""]","k","3000","true","1","100","0","0","0","5.7","1","-1","3","600","600","[""hsl(0, 50%, 50%)"",""hsl(225, 50%, 50%)""]","[""hsl(225, 50%, 50%)"",""hsl(0, 50%, 50%)""]","6.826359037863549","0.6","0","circle","black","3","2","2","16.545454545454547","[8,16,17,17,16,17,17,17,15,17,17,17,16,17,16,17,18,16,17,16,18,16,16,18,16,17,15,18,16,17,17,17,17,16,17,17,17,16,16,18,17,15,18,16,16,16,18,16,16,17,17,17,16,16,17,17,16,17,17,17,17,16,18,17,16,17]","66","832","411.5","false","20","20","black","1","false","1","1","1680","998","rdk","k","","","","0.6","0.24",""
"","null","","html-keyboard-response","140","129924","0.0-0.0-2.0-1.0-0.1-0.1-2.45","null","<p style='font-size: 60px; color: green'>正确!</p>","","","","","","","","","","","","","","","","","","","","","","","","","","","","","","","","","","","","","","","","","","","","","","","","",""
"","null","fixation","html-keyboard-response","141","130426","0.0-0.0-2.0-1.0-0.1-0.1-0.46","null","<p style='font-size: 48px; color: white'>+</p >","","","","","","","","","","","","","","","","","","","","","","","","","","","","","","","","","","","","","","","","","","","","","","","","",""
"","938","color_pract","rdk","142","131365","0.0-0.0-2.0-1.0-0.1-0.1-1.46","d","","false","[""d"",""k""]","k","3000","true","1","100","0","0","0","5.7","1","-1","3","600","600","[""hsl(0, 50%, 50%)"",""hsl(225, 50%, 50%)""]","[""hsl(225, 50%, 50%)"",""hsl(0, 50%, 50%)""]","6.826359037863549","0.6","0","circle","black","3","2","2","16.5","[6,17,17,16,18,16,16,18,16,17,16,18,16,17,17,16,17,17,16,17,16,16,17,16,17,17,16,17,17,15,18,17,17,17,16,17,16,17,16,18,16,17,17,16,18,17,16,17,16,17,17,16,18,16,17,16]","56","832","411.5","false","20","20","black","1","false","1","1","1680","998","rdk","k","","","","0.6","0.24",""
"","null","","html-keyboard-response","143","131866","0.0-0.0-2.0-1.0-0.1-0.1-2.46","null","<p style='font-size: 60px; color: red'>错误!</p>","","","","","","","","","","","","","","","","","","","","","","","","","","","","","","","","","","","","","","","","","","","","","","","","",""
"","null","fixation","html-keyboard-response","144","132368","0.0-0.0-2.0-1.0-0.1-0.1-0.47","null","<p style='font-size: 48px; color: white'>+</p >","","","","","","","","","","","","","","","","","","","","","","","","","","","","","","","","","","","","","","","","","","","","","","","","",""
"","779","color_pract","rdk","145","133148","0.0-0.0-2.0-1.0-0.1-0.1-1.47","d","","true","[""d"",""k""]","d","3000","true","1","100","0","0","0","5.7","1","-1","3","600","600","[""hsl(0, 50%, 50%)"",""hsl(225, 50%, 50%)""]","[""hsl(0, 50%, 50%)"",""hsl(225, 50%, 50%)""]","6.826359037863549","0.62","0","circle","black","3","2","2","16.652173913043477","[14,17,17,17,16,17,16,16,17,16,17,16,17,17,16,18,17,17,16,17,18,16,17,17,16,17,17,16,17,16,18,16,17,16,17,17,16,17,16,17,16,16,18,17,17,17]","46","832","411.5","false","20","20","black","1","false","1","1","1680","998","rdk","d","","","","0.62","0.24",""
"","null","","html-keyboard-response","146","133649","0.0-0.0-2.0-1.0-0.1-0.1-2.47","null","<p style='font-size: 60px; color: green'>正确!</p>","","","","","","","","","","","","","","","","","","","","","","","","","","","","","","","","","","","","","","","","","","","","","","","","",""
"","null","fixation","html-keyboard-response","147","134151","0.0-0.0-2.0-1.0-0.1-0.1-0.48","null","<p style='font-size: 48px; color: white'>+</p >","","","","","","","","","","","","","","","","","","","","","","","","","","","","","","","","","","","","","","","","","","","","","","","","",""
"","817","color_pract","rdk","148","134969","0.0-0.0-2.0-1.0-0.1-0.1-1.48","d","","true","[""d"",""k""]","d","3000","true","1","100","0","0","0","5.7","1","-1","3","600","600","[""hsl(0, 50%, 50%)"",""hsl(225, 50%, 50%)""]","[""hsl(0, 50%, 50%)"",""hsl(225, 50%, 50%)""]","6.826359037863549","0.62","0","circle","black","3","2","2","16.6734693877551","[16,16,17,16,17,17,16,16,17,17,17,17,17,16,17,17,16,16,18,16,18,16,17,17,17,16,16,18,16,16,17,17,16,18,16,18,15,18,16,17,18,17,17,16,17,17,16,16,16]","49","832","411.5","false","20","20","black","1","false","1","1","1680","998","rdk","d","","","","0.62","0.24",""
"","null","","html-keyboard-response","149","135470","0.0-0.0-2.0-1.0-0.1-0.1-2.48","null","<p style='font-size: 60px; color: green'>正确!</p>","","","","","","","","","","","","","","","","","","","","","","","","","","","","","","","","","","","","","","","","","","","","","","","","",""
"","null","fixation","html-keyboard-response","150","135971","0.0-0.0-2.0-1.0-0.1-0.1-0.49","null","<p style='font-size: 48px; color: white'>+</p >","","","","","","","","","","","","","","","","","","","","","","","","","","","","","","","","","","","","","","","","","","","","","","","","",""
"","863","color_pract","rdk","151","136835","0.0-0.0-2.0-1.0-0.1-0.1-1.49","k","","true","[""d"",""k""]","k","3000","true","1","100","0","0","0","5.7","1","-1","3","600","600","[""hsl(0, 50%, 50%)"",""hsl(225, 50%, 50%)""]","[""hsl(225, 50%, 50%)"",""hsl(0, 50%, 50%)""]","6.826359037863549","0.62","0","circle","black","3","2","2","16.653846153846153","[12,17,17,16,18,15,18,17,17,15,17,18,16,17,17,17,17,16,16,18,16,17,16,16,18,16,16,18,16,18,17,17,17,16,16,17,17,17,16,17,16,17,17,17,15,17,18,17,17,16,17,17]","52","832","411.5","false","20","20","black","1","false","1","1","1680","998","rdk","k","","","","0.62","0.24",""
"","null","","html-keyboard-response","152","137336","0.0-0.0-2.0-1.0-0.1-0.1-2.49","null","<p style='font-size: 60px; color: green'>正确!</p>","","","","","","","","","","","","","","","","","","","","","","","","","","","","","","","","","","","","","","","","","","","","","","","","",""
"","null","fixation","html-keyboard-response","153","137837","0.0-0.0-2.0-1.0-0.1-0.1-0.50","null","<p style='font-size: 48px; color: white'>+</p >","","","","","","","","","","","","","","","","","","","","","","","","","","","","","","","","","","","","","","","","","","","","","","","","",""
"","826","color_pract","rdk","154","138664","0.0-0.0-2.0-1.0-0.1-0.1-1.50","d","","true","[""d"",""k""]","d","3000","true","1","100","0","0","0","5.7","1","-1","3","600","600","[""hsl(0, 50%, 50%)"",""hsl(225, 50%, 50%)""]","[""hsl(0, 50%, 50%)"",""hsl(225, 50%, 50%)""]","6.826359037863549","0.62","0","circle","black","3","2","2","16.632653061224488","[11,17,17,16,18,17,17,18,15,17,17,17,15,18,17,17,17,16,17,16,16,18,16,17,17,17,17,16,16,18,15,18,17,16,16,18,17,16,17,16,17,16,17,16,18,17,17,17,16]","49","832","411.5","false","20","20","black","1","false","1","1","1680","998","rdk","d","","","","0.62","0.24",""
"","null","","html-keyboard-response","155","139165","0.0-0.0-2.0-1.0-0.1-0.1-2.50","null","<p style='font-size: 60px; color: green'>正确!</p>","","","","","","","","","","","","","","","","","","","","","","","","","","","","","","","","","","","","","","","","","","","","","","","","",""
"","null","fixation","html-keyboard-response","156","139667","0.0-0.0-2.0-1.0-0.1-0.1-0.51","null","<p style='font-size: 48px; color: white'>+</p >","","","","","","","","","","","","","","","","","","","","","","","","","","","","","","","","","","","","","","","","","","","","","","","","",""
"","1045","color_pract","rdk","157","140713","0.0-0.0-2.0-1.0-0.1-0.1-1.51","k","","true","[""d"",""k""]","k","3000","true","1","100","0","0","0","5.7","1","-1","3","600","600","[""hsl(0, 50%, 50%)"",""hsl(225, 50%, 50%)""]","[""hsl(225, 50%, 50%)"",""hsl(0, 50%, 50%)""]","6.826359037863549","0.6","0","circle","black","3","2","2","16.428571428571427","[1,13,17,16,18,16,18,16,17,17,17,17,16,17,16,18,16,16,16,17,17,17,17,18,17,15,18,16,17,16,17,18,17,16,17,16,16,17,18,16,16,18,17,17,16,17,17,16,17,17,16,17,16,17,17,16,16,18,16,17,16,17,17]","63","832","411.5","false","20","20","black","1","false","1","1","1680","998","rdk","k","","","","0.6","0.24",""
"","null","","html-keyboard-response","158","141215","0.0-0.0-2.0-1.0-0.1-0.1-2.51","null","<p style='font-size: 60px; color: green'>正确!</p>","","","","","","","","","","","","","","","","","","","","","","","","","","","","","","","","","","","","","","","","","","","","","","","","",""
"","null","fixation","html-keyboard-response","159","141716","0.0-0.0-2.0-1.0-0.1-0.1-0.52","null","<p style='font-size: 48px; color: white'>+</p >","","","","","","","","","","","","","","","","","","","","","","","","","","","","","","","","","","","","","","","","","","","","","","","","",""
"","824","color_pract","rdk","160","142541","0.0-0.0-2.0-1.0-0.1-0.1-1.52","d","","true","[""d"",""k""]","d","3000","true","1","100","0","0","0","5.7","1","-1","3","600","600","[""hsl(0, 50%, 50%)"",""hsl(225, 50%, 50%)""]","[""hsl(0, 50%, 50%)"",""hsl(225, 50%, 50%)""]","6.826359037863549","0.6","0","circle","black","3","2","2","16.693877551020407","[15,16,18,17,16,17,16,18,16,17,17,17,17,16,16,17,17,16,17,16,17,17,17,17,16,17,18,17,16,16,18,16,17,15,18,16,17,17,17,16,17,16,18,17,16,18,15,18,16]","49","832","411.5","false","20","20","black","1","false","1","1","1680","998","rdk","d","","","","0.6","0.24",""
"","null","","html-keyboard-response","161","143042","0.0-0.0-2.0-1.0-0.1-0.1-2.52","null","<p style='font-size: 60px; color: green'>正确!</p>","","","","","","","","","","","","","","","","","","","","","","","","","","","","","","","","","","","","","","","","","","","","","","","","",""
"","null","fixation","html-keyboard-response","162","143543","0.0-0.0-2.0-1.0-0.1-0.1-0.53","null","<p style='font-size: 48px; color: white'>+</p >","","","","","","","","","","","","","","","","","","","","","","","","","","","","","","","","","","","","","","","","","","","","","","","","",""
"","837","color_pract","rdk","163","144381","0.0-0.0-2.0-1.0-0.1-0.1-1.53","k","","true","[""d"",""k""]","k","3000","true","1","100","0","0","0","5.7","1","-1","3","600","600","[""hsl(0, 50%, 50%)"",""hsl(225, 50%, 50%)""]","[""hsl(225, 50%, 50%)"",""hsl(0, 50%, 50%)""]","6.826359037863549","0.6","0","circle","black","3","2","2","16.54","[7,15,18,16,17,18,16,17,17,17,16,18,16,18,16,17,16,17,17,16,17,16,17,16,18,16,17,16,16,18,16,17,17,17,17,16,17,16,17,17,17,15,18,16,17,17,17,16,18,17]","50","832","411.5","false","20","20","black","1","false","1","1","1680","998","rdk","k","","","","0.6","0.24",""
"","null","","html-keyboard-response","164","144882","0.0-0.0-2.0-1.0-0.1-0.1-2.53","null","<p style='font-size: 60px; color: green'>正确!</p>","","","","","","","","","","","","","","","","","","","","","","","","","","","","","","","","","","","","","","","","","","","","","","","","",""
"","null","fixation","html-keyboard-response","165","145383","0.0-0.0-2.0-1.0-0.1-0.1-0.54","null","<p style='font-size: 48px; color: white'>+</p >","","","","","","","","","","","","","","","","","","","","","","","","","","","","","","","","","","","","","","","","","","","","","","","","",""
"","789","color_pract","rdk","166","146173","0.0-0.0-2.0-1.0-0.1-0.1-1.54","d","","true","[""d"",""k""]","d","3000","true","1","100","0","0","0","5.7","1","-1","3","600","600","[""hsl(0, 50%, 50%)"",""hsl(225, 50%, 50%)""]","[""hsl(0, 50%, 50%)"",""hsl(225, 50%, 50%)""]","6.826359037863549","0.6","0","circle","black","3","2","2","16.80851063829787","[16,16,17,17,16,17,18,17,17,17,17,17,17,16,16,18,17,17,17,16,18,15,18,16,17,17,17,18,17,16,18,16,17,17,16,16,17,17,18,16,16,17,17,16,16,17,18]","47","832","411.5","false","20","20","black","1","false","1","1","1680","998","rdk","d","","","","0.6","0.24",""
"","null","","html-keyboard-response","167","146675","0.0-0.0-2.0-1.0-0.1-0.1-2.54","null","<p style='font-size: 60px; color: green'>正确!</p>","","","","","","","","","","","","","","","","","","","","","","","","","","","","","","","","","","","","","","","","","","","","","","","","",""
"","null","fixation","html-keyboard-response","168","147177","0.0-0.0-2.0-1.0-0.1-0.1-0.55","null","<p style='font-size: 48px; color: white'>+</p >","","","","","","","","","","","","","","","","","","","","","","","","","","","","","","","","","","","","","","","","","","","","","","","","",""
"","1017","color_pract","rdk","169","148195","0.0-0.0-2.0-1.0-0.1-0.1-1.55","k","","true","[""d"",""k""]","k","3000","true","1","100","0","0","0","5.7","1","-1","3","600","600","[""hsl(0, 50%, 50%)"",""hsl(225, 50%, 50%)""]","[""hsl(225, 50%, 50%)"",""hsl(0, 50%, 50%)""]","6.826359037863549","0.58","0","circle","black","3","2","2","16.57377049180328","[6,16,16,17,16,18,16,17,17,17,17,17,18,16,16,17,18,17,16,17,17,16,17,17,16,17,16,18,17,16,17,16,17,15,17,17,18,16,17,16,18,16,17,17,16,17,17,17,16,16,18,17,16,16,18,16,17,17,16,17,18]","61","832","411.5","false","20","20","black","1","false","1","1","1680","998","rdk","k","","","","0.58","0.24",""
"","null","","html-keyboard-response","170","148696","0.0-0.0-2.0-1.0-0.1-0.1-2.55","null","<p style='font-size: 60px; color: green'>正确!</p>","","","","","","","","","","","","","","","","","","","","","","","","","","","","","","","","","","","","","","","","","","","","","","","","",""
"","null","fixation","html-keyboard-response","171","149198","0.0-0.0-2.0-1.0-0.1-0.1-0.56","null","<p style='font-size: 48px; color: white'>+</p >","","","","","","","","","","","","","","","","","","","","","","","","","","","","","","","","","","","","","","","","","","","","","","","","",""
"","1141","color_pract","rdk","172","150340","0.0-0.0-2.0-1.0-0.1-0.1-1.56","k","","true","[""d"",""k""]","k","3000","true","1","100","0","0","0","5.7","1","-1","3","600","600","[""hsl(0, 50%, 50%)"",""hsl(225, 50%, 50%)""]","[""hsl(225, 50%, 50%)"",""hsl(0, 50%, 50%)""]","6.826359037863549","0.58","0","circle","black","3","2","2","16.791044776119403","[1,16,17,17,16,17,16,17,16,17,18,17,16,17,17,17,17,16,17,18,15,18,17,17,16,17,17,17,17,15,17,18,16,16,18,16,17,15,17,18,16,17,18,17,17,17,17,17,17,16,17,17,17,17,17,15,18,17,17,17,16,17,17,17,16,17,33]","67","832","411.5","false","20","20","black","1","false","1","1","1680","998","rdk","k","","","","0.58","0.24",""
"","null","","html-keyboard-response","173","150841","0.0-0.0-2.0-1.0-0.1-0.1-2.56","null","<p style='font-size: 60px; color: green'>正确!</p>","","","","","","","","","","","","","","","","","","","","","","","","","","","","","","","","","","","","","","","","","","","","","","","","",""
"","null","fixation","html-keyboard-response","174","151343","0.0-0.0-2.0-1.0-0.1-0.1-0.57","null","<p style='font-size: 48px; color: white'>+</p >","","","","","","","","","","","","","","","","","","","","","","","","","","","","","","","","","","","","","","","","","","","","","","","","",""
"","770","color_pract","rdk","175","152113","0.0-0.0-2.0-1.0-0.1-0.1-1.57","d","","true","[""d"",""k""]","d","3000","true","1","100","0","0","0","5.7","1","-1","3","600","600","[""hsl(0, 50%, 50%)"",""hsl(225, 50%, 50%)""]","[""hsl(0, 50%, 50%)"",""hsl(225, 50%, 50%)""]","6.826359037863549","0.58","0","circle","black","3","2","2","16.608695652173914","[6,18,17,17,17,17,16,18,17,16,18,16,17,17,16,17,16,17,17,15,18,16,18,16,16,18,16,18,16,18,17,16,16,18,17,17,16,16,17,17,17,17,17,17,17,17]","46","832","411.5","false","20","20","black","1","false","1","1","1680","998","rdk","d","","","","0.58","0.24",""
"","null","","html-keyboard-response","176","152615","0.0-0.0-2.0-1.0-0.1-0.1-2.57","null","<p style='font-size: 60px; color: green'>正确!</p>","","","","","","","","","","","","","","","","","","","","","","","","","","","","","","","","","","","","","","","","","","","","","","","","",""
"","null","fixation","html-keyboard-response","177","153116","0.0-0.0-2.0-1.0-0.1-0.1-0.58","null","<p style='font-size: 48px; color: white'>+</p >","","","","","","","","","","","","","","","","","","","","","","","","","","","","","","","","","","","","","","","","","","","","","","","","",""
"","954","color_pract","rdk","178","154071","0.0-0.0-2.0-1.0-0.1-0.1-1.58","d","","true","[""d"",""k""]","d","3000","true","1","100","0","0","0","5.7","1","-1","3","600","600","[""hsl(0, 50%, 50%)"",""hsl(225, 50%, 50%)""]","[""hsl(0, 50%, 50%)"",""hsl(225, 50%, 50%)""]","6.826359037863549","0.58","0","circle","black","3","2","2","16.5","[1,16,17,17,16,18,17,17,17,16,17,17,16,17,16,17,17,17,15,18,17,17,16,18,16,17,17,16,18,16,17,18,17,17,17,16,18,15,17,17,17,17,16,18,15,18,15,18,15,17,17,17,17,17,16,17,18,16]","58","832","411.5","false","20","20","black","1","false","1","1","1680","998","rdk","d","","","","0.58","0.24",""
"","null","","html-keyboard-response","179","154572","0.0-0.0-2.0-1.0-0.1-0.1-2.58","null","<p style='font-size: 60px; color: green'>正确!</p>","","","","","","","","","","","","","","","","","","","","","","","","","","","","","","","","","","","","","","","","","","","","","","","","",""
"","null","fixation","html-keyboard-response","180","155074","0.0-0.0-2.0-1.0-0.1-0.1-0.59","null","<p style='font-size: 48px; color: white'>+</p >","","","","","","","","","","","","","","","","","","","","","","","","","","","","","","","","","","","","","","","","","","","","","","","","",""
"","867","color_pract","rdk","181","155942","0.0-0.0-2.0-1.0-0.1-0.1-1.59","k","","true","[""d"",""k""]","k","3000","true","1","100","0","0","0","5.7","1","-1","3","600","600","[""hsl(0, 50%, 50%)"",""hsl(225, 50%, 50%)""]","[""hsl(225, 50%, 50%)"",""hsl(0, 50%, 50%)""]","6.826359037863549","0.5599999999999999","0","circle","black","3","2","2","16.557692307692307","[9,16,16,17,17,16,18,17,16,18,16,17,17,16,17,17,16,17,17,17,17,17,16,16,17,16,16,18,16,17,17,16,16,17,16,18,15,18,17,16,17,16,18,17,16,17,17,17,17,17,16,17]","52","832","411.5","false","20","20","black","1","false","1","1","1680","998","rdk","k","","","","0.5599999999999999","0.24",""
"","null","","html-keyboard-response","182","156443","0.0-0.0-2.0-1.0-0.1-0.1-2.59","null","<p style='font-size: 60px; color: green'>正确!</p>","","","","","","","","","","","","","","","","","","","","","","","","","","","","","","","","","","","","","","","","","","","","","","","","",""
"","null","fixation","html-keyboard-response","183","156945","0.0-0.0-2.0-1.0-0.1-0.1-0.60","null","<p style='font-size: 48px; color: white'>+</p >","","","","","","","","","","","","","","","","","","","","","","","","","","","","","","","","","","","","","","","","","","","","","","","","",""
"","938","color_pract","rdk","184","157884","0.0-0.0-2.0-1.0-0.1-0.1-1.60","k","","true","[""d"",""k""]","k","3000","true","1","100","0","0","0","5.7","1","-1","3","600","600","[""hsl(0, 50%, 50%)"",""hsl(225, 50%, 50%)""]","[""hsl(225, 50%, 50%)"",""hsl(0, 50%, 50%)""]","6.826359037863549","0.5599999999999999","0","circle","black","3","2","2","16.571428571428573","[4,17,17,18,17,17,16,17,16,17,16,16,17,18,17,15,18,16,18,16,16,17,16,17,17,16,17,18,17,17,17,17,16,17,18,17,16,17,16,18,16,18,17,16,17,16,18,16,16,17,16,18,16,18,17,16]","56","832","411.5","false","20","20","black","1","false","1","1","1680","998","rdk","k","","","","0.5599999999999999","0.24",""
"","null","","html-keyboard-response","185","158386","0.0-0.0-2.0-1.0-0.1-0.1-2.60","null","<p style='font-size: 60px; color: green'>正确!</p>","","","","","","","","","","","","","","","","","","","","","","","","","","","","","","","","","","","","","","","","","","","","","","","","",""
"","null","fixation","html-keyboard-response","186","158887","0.0-0.0-2.0-1.0-0.1-0.1-0.61","null","<p style='font-size: 48px; color: white'>+</p >","","","","","","","","","","","","","","","","","","","","","","","","","","","","","","","","","","","","","","","","","","","","","","","","",""
"","980","color_pract","rdk","187","159868","0.0-0.0-2.0-1.0-0.1-0.1-1.61","k","","true","[""d"",""k""]","k","3000","true","1","100","0","0","0","5.7","1","-1","3","600","600","[""hsl(0, 50%, 50%)"",""hsl(225, 50%, 50%)""]","[""hsl(225, 50%, 50%)"",""hsl(0, 50%, 50%)""]","6.826359037863549","0.5599999999999999","0","circle","black","3","2","2","16.64406779661017","[13,16,18,16,18,17,16,17,16,18,16,16,17,17,17,16,17,17,17,16,16,18,17,17,17,16,17,16,17,17,16,18,17,16,16,17,18,16,17,15,18,16,17,16,17,16,16,17,17,17,17,17,17,16,17,16,17,16,17]","59","832","411.5","false","20","20","black","1","false","1","1","1680","998","rdk","k","","","","0.5599999999999999","0.24",""
"","null","","html-keyboard-response","188","160369","0.0-0.0-2.0-1.0-0.1-0.1-2.61","null","<p style='font-size: 60px; color: green'>正确!</p>","","","","","","","","","","","","","","","","","","","","","","","","","","","","","","","","","","","","","","","","","","","","","","","","",""
"","null","fixation","html-keyboard-response","189","160870","0.0-0.0-2.0-1.0-0.1-0.1-0.62","null","<p style='font-size: 48px; color: white'>+</p >","","","","","","","","","","","","","","","","","","","","","","","","","","","","","","","","","","","","","","","","","","","","","","","","",""
"","880","color_pract","rdk","190","161752","0.0-0.0-2.0-1.0-0.1-0.1-1.62","d","","true","[""d"",""k""]","d","3000","true","1","100","0","0","0","5.7","1","-1","3","600","600","[""hsl(0, 50%, 50%)"",""hsl(225, 50%, 50%)""]","[""hsl(0, 50%, 50%)"",""hsl(225, 50%, 50%)""]","6.826359037863549","0.5599999999999999","0","circle","black","3","2","2","16.58490566037736","[13,15,17,17,16,17,17,17,16,16,17,17,16,18,16,17,18,16,16,17,17,17,17,15,17,18,17,16,17,16,18,16,16,16,17,16,17,17,17,15,18,16,17,17,16,18,16,18,16,16,17,17,16]","53","832","411.5","false","20","20","black","1","false","1","1","1680","998","rdk","d","","","","0.5599999999999999","0.24",""
"","null","","html-keyboard-response","191","162254","0.0-0.0-2.0-1.0-0.1-0.1-2.62","null","<p style='font-size: 60px; color: green'>正确!</p>","","","","","","","","","","","","","","","","","","","","","","","","","","","","","","","","","","","","","","","","","","","","","","","","",""
"","null","fixation","html-keyboard-response","192","162755","0.0-0.0-2.0-1.0-0.1-0.1-0.63","null","<p style='font-size: 48px; color: white'>+</p >","","","","","","","","","","","","","","","","","","","","","","","","","","","","","","","","","","","","","","","","","","","","","","","","",""
"","994","color_pract","rdk","193","163750","0.0-0.0-2.0-1.0-0.1-0.1-1.63","d","","true","[""d"",""k""]","d","3000","true","1","100","0","0","0","5.7","1","-1","3","600","600","[""hsl(0, 50%, 50%)"",""hsl(225, 50%, 50%)""]","[""hsl(0, 50%, 50%)"",""hsl(225, 50%, 50%)""]","6.826359037863549","0.5399999999999999","0","circle","black","3","2","2","16.610169491525422","[12,15,18,16,18,17,16,18,15,17,17,16,16,17,17,18,16,17,16,18,16,18,16,17,17,16,17,16,16,18,16,17,16,17,17,16,17,18,16,17,17,17,16,16,18,16,17,17,16,17,16,16,18,16,16,17,16,17,17]","59","832","411.5","false","20","20","black","1","false","1","1","1680","998","rdk","d","","","","0.5399999999999999","0.24",""
"","null","","html-keyboard-response","194","164251","0.0-0.0-2.0-1.0-0.1-0.1-2.63","null","<p style='font-size: 60px; color: green'>正确!</p>","","","","","","","","","","","","","","","","","","","","","","","","","","","","","","","","","","","","","","","","","","","","","","","","",""
"","null","fixation","html-keyboard-response","195","164753","0.0-0.0-2.0-1.0-0.1-0.1-0.64","null","<p style='font-size: 48px; color: white'>+</p >","","","","","","","","","","","","","","","","","","","","","","","","","","","","","","","","","","","","","","","","","","","","","","","","",""
"","830","color_pract","rdk","196","165585","0.0-0.0-2.0-1.0-0.1-0.1-1.64","k","","true","[""d"",""k""]","k","3000","true","1","100","0","0","0","5.7","1","-1","3","600","600","[""hsl(0, 50%, 50%)"",""hsl(225, 50%, 50%)""]","[""hsl(225, 50%, 50%)"",""hsl(0, 50%, 50%)""]","6.826359037863549","0.5399999999999999","0","circle","black","3","2","2","16.653061224489797","[13,17,17,17,17,17,17,17,16,16,16,16,18,17,17,16,17,17,16,17,16,17,16,17,17,17,17,15,17,18,16,17,17,17,17,16,16,18,17,17,16,18,16,16,17,16,18,17,16]","49","832","411.5","false","20","20","black","1","false","1","1","1680","998","rdk","k","","","","0.5399999999999999","0.24",""
"","null","","html-keyboard-response","197","166085","0.0-0.0-2.0-1.0-0.1-0.1-2.64","null","<p style='font-size: 60px; color: green'>正确!</p>","","","","","","","","","","","","","","","","","","","","","","","","","","","","","","","","","","","","","","","","","","","","","","","","",""
"","null","fixation","html-keyboard-response","198","166587","0.0-0.0-2.0-1.0-0.1-0.1-0.65","null","<p style='font-size: 48px; color: white'>+</p >","","","","","","","","","","","","","","","","","","","","","","","","","","","","","","","","","","","","","","","","","","","","","","","","",""
"","978","color_pract","rdk","199","167567","0.0-0.0-2.0-1.0-0.1-0.1-1.65","k","","true","[""d"",""k""]","k","3000","true","1","100","0","0","0","5.7","1","-1","3","600","600","[""hsl(0, 50%, 50%)"",""hsl(225, 50%, 50%)""]","[""hsl(225, 50%, 50%)"",""hsl(0, 50%, 50%)""]","6.826359037863549","0.5399999999999999","0","circle","black","3","2","2","16.655172413793103","[13,16,17,16,17,17,17,16,17,16,17,17,16,16,17,18,17,17,16,18,16,17,17,16,18,16,17,17,16,16,17,17,17,16,17,17,17,16,17,17,16,16,17,17,16,17,17,17,17,18,17,17,16,16,17,16,17,17]","58","832","411.5","false","20","20","black","1","false","1","1","1680","998","rdk","k","","","","0.5399999999999999","0.24",""
"","null","","html-keyboard-response","200","168068","0.0-0.0-2.0-1.0-0.1-0.1-2.65","null","<p style='font-size: 60px; color: green'>正确!</p>","","","","","","","","","","","","","","","","","","","","","","","","","","","","","","","","","","","","","","","","","","","","","","","","",""
"","null","fixation","html-keyboard-response","201","168570","0.0-0.0-2.0-1.0-0.1-0.1-0.66","null","<p style='font-size: 48px; color: white'>+</p >","","","","","","","","","","","","","","","","","","","","","","","","","","","","","","","","","","","","","","","","","","","","","","","","",""
"","847","color_pract","rdk","202","169418","0.0-0.0-2.0-1.0-0.1-0.1-1.66","d","","true","[""d"",""k""]","d","3000","true","1","100","0","0","0","5.7","1","-1","3","600","600","[""hsl(0, 50%, 50%)"",""hsl(225, 50%, 50%)""]","[""hsl(0, 50%, 50%)"",""hsl(225, 50%, 50%)""]","6.826359037863549","0.5399999999999999","0","circle","black","3","2","2","16.647058823529413","[13,16,16,16,17,17,16,18,15,18,16,17,16,17,16,18,16,17,17,16,18,16,17,18,17,17,17,17,17,16,17,16,18,17,17,16,17,17,15,18,17,16,17,16,18,17,16,17,17,17,15]","51","832","411.5","false","20","20","black","1","false","1","1","1680","998","rdk","d","","","","0.5399999999999999","0.24",""
"","null","","html-keyboard-response","203","169920","0.0-0.0-2.0-1.0-0.1-0.1-2.66","null","<p style='font-size: 60px; color: green'>正确!</p>","","","","","","","","","","","","","","","","","","","","","","","","","","","","","","","","","","","","","","","","","","","","","","","","",""
"","null","fixation","html-keyboard-response","204","170421","0.0-0.0-2.0-1.0-0.1-0.1-0.67","null","<p style='font-size: 48px; color: white'>+</p >","","","","","","","","","","","","","","","","","","","","","","","","","","","","","","","","","","","","","","","","","","","","","","","","",""
"","993","color_pract","rdk","205","171415","0.0-0.0-2.0-1.0-0.1-0.1-1.67","d","","true","[""d"",""k""]","d","3000","true","1","100","0","0","0","5.7","1","-1","3","600","600","[""hsl(0, 50%, 50%)"",""hsl(225, 50%, 50%)""]","[""hsl(0, 50%, 50%)"",""hsl(225, 50%, 50%)""]","6.826359037863549","0.5199999999999999","0","circle","black","3","2","2","16.694915254237287","[12,16,18,17,17,16,17,16,17,18,17,16,17,16,17,17,16,18,15,18,17,16,17,16,18,16,16,16,18,17,16,17,17,17,17,17,16,17,15,18,17,17,17,17,16,18,16,17,17,17,17,17,16,17,17,16,17,17,17]","59","832","411.5","false","20","20","black","1","false","1","1","1680","998","rdk","d","","","","0.5199999999999999","0.24",""
"","null","","html-keyboard-response","206","171916","0.0-0.0-2.0-1.0-0.1-0.1-2.67","null","<p style='font-size: 60px; color: green'>正确!</p>","","","","","","","","","","","","","","","","","","","","","","","","","","","","","","","","","","","","","","","","","","","","","","","","",""
"","null","fixation","html-keyboard-response","207","172417","0.0-0.0-2.0-1.0-0.1-0.1-0.68","null","<p style='font-size: 48px; color: white'>+</p >","","","","","","","","","","","","","","","","","","","","","","","","","","","","","","","","","","","","","","","","","","","","","","","","",""
"","973","color_pract","rdk","208","173391","0.0-0.0-2.0-1.0-0.1-0.1-1.68","k","","false","[""d"",""k""]","d","3000","true","1","100","0","0","0","5.7","1","-1","3","600","600","[""hsl(0, 50%, 50%)"",""hsl(225, 50%, 50%)""]","[""hsl(0, 50%, 50%)"",""hsl(225, 50%, 50%)""]","6.826359037863549","0.5199999999999999","0","circle","black","3","2","2","16.67241379310345","[16,17,17,16,16,17,17,17,17,16,16,18,17,17,16,16,18,16,18,17,17,17,17,16,17,17,15,18,16,17,16,16,16,18,16,16,17,16,18,16,17,17,17,17,16,17,17,16,17,16,16,17,17,17,17,15,17,17]","58","832","411.5","false","20","20","black","1","false","1","1","1680","998","rdk","d","","","","0.5199999999999999","0.24",""
"","null","","html-keyboard-response","209","173893","0.0-0.0-2.0-1.0-0.1-0.1-2.68","null","<p style='font-size: 60px; color: red'>错误!</p>","","","","","","","","","","","","","","","","","","","","","","","","","","","","","","","","","","","","","","","","","","","","","","","","",""
"","null","fixation","html-keyboard-response","210","174395","0.0-0.0-2.0-1.0-0.1-0.1-0.69","null","<p style='font-size: 48px; color: white'>+</p >","","","","","","","","","","","","","","","","","","","","","","","","","","","","","","","","","","","","","","","","","","","","","","","","",""
"","853","color_pract","rdk","211","175249","0.0-0.0-2.0-1.0-0.1-0.1-1.69","d","","true","[""d"",""k""]","d","3000","true","1","100","0","0","0","5.7","1","-1","3","600","600","[""hsl(0, 50%, 50%)"",""hsl(225, 50%, 50%)""]","[""hsl(0, 50%, 50%)"",""hsl(225, 50%, 50%)""]","6.826359037863549","0.5399999999999999","0","circle","black","3","2","2","16.58823529411765","[4,17,17,16,17,17,17,17,17,16,17,17,16,18,16,18,15,17,18,17,17,16,17,17,17,17,16,17,18,16,16,17,17,18,16,18,15,18,17,16,17,17,16,18,16,17,17,17,18,16,17]","51","832","411.5","false","20","20","black","1","false","1","1","1680","998","rdk","d","","","","0.5399999999999999","0.24",""
"","null","","html-keyboard-response","212","175750","0.0-0.0-2.0-1.0-0.1-0.1-2.69","null","<p style='font-size: 60px; color: green'>正确!</p>","","","","","","","","","","","","","","","","","","","","","","","","","","","","","","","","","","","","","","","","","","","","","","","","",""
"","null","fixation","html-keyboard-response","213","176251","0.0-0.0-2.0-1.0-0.1-0.1-0.70","null","<p style='font-size: 48px; color: white'>+</p >","","","","","","","","","","","","","","","","","","","","","","","","","","","","","","","","","","","","","","","","","","","","","","","","",""
"","1018","color_pract","rdk","214","177271","0.0-0.0-2.0-1.0-0.1-0.1-1.70","d","","false","[""d"",""k""]","k","3000","true","1","100","0","0","0","5.7","1","-1","3","600","600","[""hsl(0, 50%, 50%)"",""hsl(225, 50%, 50%)""]","[""hsl(225, 50%, 50%)"",""hsl(0, 50%, 50%)""]","6.826359037863549","0.5399999999999999","0","circle","black","3","2","2","16.62295081967213","[15,16,18,16,16,18,16,17,17,17,17,17,16,18,16,17,16,16,17,16,18,16,16,18,16,17,17,16,17,16,16,18,16,16,16,18,17,17,17,16,17,15,18,17,16,17,16,16,18,16,17,16,17,16,17,17,17,16,16,17,16]","61","832","411.5","false","20","20","black","1","false","1","1","1680","998","rdk","k","","","","0.5399999999999999","0.24",""
"","null","","html-keyboard-response","215","177771","0.0-0.0-2.0-1.0-0.1-0.1-2.70","null","<p style='font-size: 60px; color: red'>错误!</p>","","","","","","","","","","","","","","","","","","","","","","","","","","","","","","","","","","","","","","","","","","","","","","","","",""
"","null","fixation","html-keyboard-response","216","178272","0.0-0.0-2.0-1.0-0.1-0.1-0.71","null","<p style='font-size: 48px; color: white'>+</p >","","","","","","","","","","","","","","","","","","","","","","","","","","","","","","","","","","","","","","","","","","","","","","","","",""
"","959","color_pract","rdk","217","179233","0.0-0.0-2.0-1.0-0.1-0.1-1.71","d","","false","[""d"",""k""]","k","3000","true","1","100","0","0","0","5.7","1","-1","3","600","600","[""hsl(0, 50%, 50%)"",""hsl(225, 50%, 50%)""]","[""hsl(225, 50%, 50%)"",""hsl(0, 50%, 50%)""]","6.826359037863549","0.5599999999999999","0","circle","black","3","2","2","16.63157894736842","[10,17,16,18,16,16,17,18,17,16,18,17,16,16,18,15,18,17,17,17,16,17,16,16,17,17,17,16,18,17,16,17,16,16,18,17,17,16,16,17,17,17,17,16,18,15,17,17,17,17,16,17,17,17,17,16,17]","57","832","411.5","false","20","20","black","1","false","1","1","1680","998","rdk","k","","","","0.5599999999999999","0.24",""
"","null","","html-keyboard-response","218","179734","0.0-0.0-2.0-1.0-0.1-0.1-2.71","null","<p style='font-size: 60px; color: red'>错误!</p>","","","","","","","","","","","","","","","","","","","","","","","","","","","","","","","","","","","","","","","","","","","","","","","","",""
"","null","fixation","html-keyboard-response","219","180235","0.0-0.0-2.0-1.0-0.1-0.1-0.72","null","<p style='font-size: 48px; color: white'>+</p >","","","","","","","","","","","","","","","","","","","","","","","","","","","","","","","","","","","","","","","","","","","","","","","","",""
"","1202","color_pract","rdk","220","181438","0.0-0.0-2.0-1.0-0.1-0.1-1.72","k","","true","[""d"",""k""]","k","3000","true","1","100","0","0","0","5.7","1","-1","3","600","600","[""hsl(0, 50%, 50%)"",""hsl(225, 50%, 50%)""]","[""hsl(225, 50%, 50%)"",""hsl(0, 50%, 50%)""]","6.826359037863549","0.58","0","circle","black","3","2","2","17.44927536231884","[15,16,17,17,16,17,17,17,16,16,17,17,17,18,15,18,17,17,16,16,17,17,18,16,17,17,16,18,17,16,17,17,17,16,17,17,17,16,17,17,16,17,18,16,16,17,18,17,17,15,17,17,17,17,16,18,17,17,16,16,18,16,18,16,17,17,31,34,33]","69","832","411.5","false","20","20","black","1","false","1","1","1680","998","rdk","k","","","","0.58","0.24",""
"","null","","html-keyboard-response","221","181939","0.0-0.0-2.0-1.0-0.1-0.1-2.72","null","<p style='font-size: 60px; color: green'>正确!</p>","","","","","","","","","","","","","","","","","","","","","","","","","","","","","","","","","","","","","","","","","","","","","","","","",""
"","null","fixation","html-keyboard-response","222","182441","0.0-0.0-2.0-1.0-0.1-0.1-0.73","null","<p style='font-size: 48px; color: white'>+</p >","","","","","","","","","","","","","","","","","","","","","","","","","","","","","","","","","","","","","","","","","","","","","","","","",""
"","889","color_pract","rdk","223","183330","0.0-0.0-2.0-1.0-0.1-0.1-1.73","d","","true","[""d"",""k""]","d","3000","true","1","100","0","0","0","5.7","1","-1","3","600","600","[""hsl(0, 50%, 50%)"",""hsl(225, 50%, 50%)""]","[""hsl(0, 50%, 50%)"",""hsl(225, 50%, 50%)""]","6.826359037863549","0.58","0","circle","black","3","2","2","16.58490566037736","[10,15,18,17,16,17,16,17,18,16,17,16,17,17,15,18,16,17,18,15,18,16,18,17,16,17,17,17,15,17,17,16,18,17,16,17,17,15,18,16,18,15,17,17,16,18,16,16,17,18,17,16,17]","53","832","411.5","false","20","20","black","1","false","1","1","1680","998","rdk","d","","","","0.58","0.24",""
"","null","","html-keyboard-response","224","183832","0.0-0.0-2.0-1.0-0.1-0.1-2.73","null","<p style='font-size: 60px; color: green'>正确!</p>","","","","","","","","","","","","","","","","","","","","","","","","","","","","","","","","","","","","","","","","","","","","","","","","",""
"","null","fixation","html-keyboard-response","225","184334","0.0-0.0-2.0-1.0-0.1-0.1-0.74","null","<p style='font-size: 48px; color: white'>+</p >","","","","","","","","","","","","","","","","","","","","","","","","","","","","","","","","","","","","","","","","","","","","","","","","",""
"","1080","color_pract","rdk","226","185415","0.0-0.0-2.0-1.0-0.1-0.1-1.74","d","","false","[""d"",""k""]","k","3000","true","1","100","0","0","0","5.7","1","-1","3","600","600","[""hsl(0, 50%, 50%)"",""hsl(225, 50%, 50%)""]","[""hsl(225, 50%, 50%)"",""hsl(0, 50%, 50%)""]","6.826359037863549","0.58","0","circle","black","3","2","2","16.765625","[17,16,17,16,17,18,16,16,18,16,17,17,16,16,17,17,17,16,17,17,17,16,18,16,17,17,17,17,17,16,18,16,18,16,16,17,17,16,18,16,16,18,17,17,16,17,18,16,17,16,18,16,17,16,17,17,16,18,17,17,16,16,16,18]","64","832","411.5","false","20","20","black","1","false","1","1","1680","998","rdk","k","","","","0.58","0.24",""
"","null","","html-keyboard-response","227","185916","0.0-0.0-2.0-1.0-0.1-0.1-2.74","null","<p style='font-size: 60px; color: red'>错误!</p>","","","","","","","","","","","","","","","","","","","","","","","","","","","","","","","","","","","","","","","","","","","","","","","","",""
"","null","fixation","html-keyboard-response","228","186418","0.0-0.0-2.0-1.0-0.1-0.1-0.75","null","<p style='font-size: 48px; color: white'>+</p >","","","","","","","","","","","","","","","","","","","","","","","","","","","","","","","","","","","","","","","","","","","","","","","","",""
"","1016","color_pract","rdk","229","187435","0.0-0.0-2.0-1.0-0.1-0.1-1.75","d","","true","[""d"",""k""]","d","3000","true","1","100","0","0","0","5.7","1","-1","3","600","600","[""hsl(0, 50%, 50%)"",""hsl(225, 50%, 50%)""]","[""hsl(0, 50%, 50%)"",""hsl(225, 50%, 50%)""]","6.826359037863549","0.6","0","circle","black","3","2","2","16.766666666666666","[17,17,16,18,17,17,17,16,18,17,17,17,17,17,16,16,18,16,18,15,18,16,17,18,16,17,16,15,17,18,16,16,17,17,17,17,17,16,16,16,17,17,16,17,17,16,16,17,18,16,17,16,17,17,17,17,18,17,16,17]","60","832","411.5","false","20","20","black","1","false","1","1","1680","998","rdk","d","","","","0.6","0.24",""
"","null","","html-keyboard-response","230","187937","0.0-0.0-2.0-1.0-0.1-0.1-2.75","null","<p style='font-size: 60px; color: green'>正确!</p>","","","","","","","","","","","","","","","","","","","","","","","","","","","","","","","","","","","","","","","","","","","","","","","","",""
"","null","fixation","html-keyboard-response","231","188438","0.0-0.0-2.0-1.0-0.1-0.1-0.76","null","<p style='font-size: 48px; color: white'>+</p >","","","","","","","","","","","","","","","","","","","","","","","","","","","","","","","","","","","","","","","","","","","","","","","","",""
"","1266","color_pract","rdk","232","189705","0.0-0.0-2.0-1.0-0.1-0.1-1.76","d","","false","[""d"",""k""]","k","3000","true","1","100","0","0","0","5.7","1","-1","3","600","600","[""hsl(0, 50%, 50%)"",""hsl(225, 50%, 50%)""]","[""hsl(225, 50%, 50%)"",""hsl(0, 50%, 50%)""]","6.826359037863549","0.6","0","circle","black","3","2","2","17.830985915492956","[12,16,17,16,18,16,18,16,17,16,17,18,16,17,17,16,18,16,17,16,17,16,17,17,17,17,17,17,17,17,16,16,17,17,17,16,17,18,16,16,17,16,18,16,18,16,17,16,18,17,16,17,17,17,16,16,17,17,17,16,18,15,17,16,17,16,34,33,34,33,33]","71","832","411.5","false","20","20","black","1","false","1","1","1680","998","rdk","k","","","","0.6","0.24",""
"","null","","html-keyboard-response","233","190207","0.0-0.0-2.0-1.0-0.1-0.1-2.76","null","<p style='font-size: 60px; color: red'>错误!</p>","","","","","","","","","","","","","","","","","","","","","","","","","","","","","","","","","","","","","","","","","","","","","","","","",""
"","null","fixation","html-keyboard-response","234","190710","0.0-0.0-2.0-1.0-0.1-0.1-0.77","null","<p style='font-size: 48px; color: white'>+</p >","","","","","","","","","","","","","","","","","","","","","","","","","","","","","","","","","","","","","","","","","","","","","","","","",""
"","823","color_pract","rdk","235","191533","0.0-0.0-2.0-1.0-0.1-0.1-1.77","d","","true","[""d"",""k""]","d","3000","true","1","100","0","0","0","5.7","1","-1","3","600","600","[""hsl(0, 50%, 50%)"",""hsl(225, 50%, 50%)""]","[""hsl(0, 50%, 50%)"",""hsl(225, 50%, 50%)""]","6.826359037863549","0.62","0","circle","black","3","2","2","16.571428571428573","[7,16,17,16,17,18,16,16,18,16,17,18,16,17,17,16,18,17,17,17,17,17,16,18,16,17,17,15,18,17,16,16,17,17,16,18,17,16,17,16,17,17,16,18,16,17,17,16,17]","49","832","411.5","false","20","20","black","1","false","1","1","1680","998","rdk","d","","","","0.62","0.24",""
"","null","","html-keyboard-response","236","192035","0.0-0.0-2.0-1.0-0.1-0.1-2.77","null","<p style='font-size: 60px; color: green'>正确!</p>","","","","","","","","","","","","","","","","","","","","","","","","","","","","","","","","","","","","","","","","","","","","","","","","",""
"","null","fixation","html-keyboard-response","237","192537","0.0-0.0-2.0-1.0-0.1-0.1-0.78","null","<p style='font-size: 48px; color: white'>+</p >","","","","","","","","","","","","","","","","","","","","","","","","","","","","","","","","","","","","","","","","","","","","","","","","",""
"","796","color_pract","rdk","238","193335","0.0-0.0-2.0-1.0-0.1-0.1-1.78","k","","true","[""d"",""k""]","k","3000","true","1","100","0","0","0","5.7","1","-1","3","600","600","[""hsl(0, 50%, 50%)"",""hsl(225, 50%, 50%)""]","[""hsl(225, 50%, 50%)"",""hsl(0, 50%, 50%)""]","6.826359037863549","0.62","0","circle","black","3","2","2","16.6875","[13,17,17,17,17,17,17,17,16,16,18,16,17,17,16,18,16,17,17,16,16,17,18,16,17,17,17,17,17,15,18,16,18,16,17,18,16,17,17,16,16,17,16,18,16,18,17,15]","48","832","411.5","false","20","20","black","1","false","1","1","1680","998","rdk","k","","","","0.62","0.24",""
"","null","","html-keyboard-response","239","193836","0.0-0.0-2.0-1.0-0.1-0.1-2.78","null","<p style='font-size: 60px; color: green'>正确!</p>","","","","","","","","","","","","","","","","","","","","","","","","","","","","","","","","","","","","","","","","","","","","","","","","",""
"","null","fixation","html-keyboard-response","240","194337","0.0-0.0-2.0-1.0-0.1-0.1-0.79","null","<p style='font-size: 48px; color: white'>+</p >","","","","","","","","","","","","","","","","","","","","","","","","","","","","","","","","","","","","","","","","","","","","","","","","",""
