"success","rt","part","trial_type","trial_index","time_elapsed","internal_node_id","response","stimulus","correct","choices","correct_choice","trial_duration","response_ends_trial","number_of_apertures","number_of_dots","coherent_direction","coherence","opposite_coherence","dot_radius","dot_side_length","dot_life","move_distance","aperture_width","aperture_height","dot_color","dot_color_final","color_change_delay","target_color_proportion","motion_change_delay","dot_shape","background_color","RDK_type","aperture_type","reinsert_type","frame_rate","frame_rate_array","number_of_frames","aperture_center_x","aperture_center_y","fixation_cross","fixation_cross_width","fixation_cross_height","fixation_cross_color","fixation_cross_thickness","border","border_thickness","border_color","canvas_width","canvas_height","task","correct_responce","revs","correctNum","totalTrials","proportionColor","proportionMotion","data_label"
"true","29317","fullScreen","fullscreen","0","30322","0.0-0.0-0.0","","","","","","","","","","","","","","","","","","","","","","","","","","","","","","","","","","","","","","","","","","","","","","","","","","",""
"","21734","survey","survey","1","52125","0.0-0.0-1.0","{""sex"":""男"",""age"":31,""hands"":""左"",""color_blindness"":""都不是""}","","","","","","","","","","","","","","","","","","","","","","","","","","","","","","","","","","","","","","","","","","","","","","","","","",""
"","22954","pract_motion","html-keyboard-response","2","75080","0.0-0.0-2.0-0.0"," ","
    <div style=""text-align: left; color: white; padding: 10px""> 
      <h3 style=""text-align: center; font-size: 30px; margin: 10px"">运动方向判断任务</h3>
      <p>接下来，屏幕上会呈现一些运动的彩色圆点，</p>
      <p>大约 <span style=""font-weight: bold"">0.2秒</span> 后会有一定比例的点 <span style=""font-weight: bold"">一致地向左或向右运动</span> ，其余点随机运动</p >
      <p>您需要忽略点的颜色并又快又准地判断 <span style=""font-weight: bold"">点的一致运动方向是向左还是向右</span>:</p >
      <ul>
        <li><span style=""font-weight: bold"">向左</span>，请按键盘 <span style=""font-weight: bold"">左键</span></li>
        <li><span style=""font-weight: bold"">向右</span>，请按键盘 <span style=""font-weight: bold"">右键</span> </li>
      </ul>
      <p>请将手指放在相应按键上，按下空格键进入练习阶段</p>
    </div>","","","","","","","","","","","","","","","","","","","","","","","","","","","","","","","","","","","","","","","","","","","","","","","","",""
"","null","fixation","html-keyboard-response","3","75581","0.0-0.0-2.0-1.0-0.0-0.0-0.0-0.0","null","<p style='font-size: 48px; color: white'>+</p >","","","","","","","","","","","","","","","","","","","","","","","","","","","","","","","","","","","","","","","","","","","","","","","","",""
"","1773","motion_pract","rdk","4","77357","0.0-0.0-2.0-1.0-0.0-0.0-0.0-1.0","arrowleft","","true","[""ArrowLeft"",""ArrowRight""]","ArrowLeft","3000","true","1","100","180","0.24","0","5.7","1","-1","3","600","600","[""hsl(0, 50%, 50%)"",""hsl(225, 50%, 50%)""]","[""white""]","0","0","8.30724145902618","circle","black","3","2","2","16.79245283018868","[19,17,17,17,17,16,16,18,16,16,18,17,16,17,16,17,17,17,16,18,17,17,15,18,16,18,16,18,16,18,15,17,18,17,17,16,18,17,17,15,18,17,16,18,17,16,16,18,16,18,16,16,17,17,17,16,16,16,17,19,17,17,16,18,16,17,17,16,17,17,17,17,17,17,17,16,17,15,18,17,17,17,15,18,18,16,17,15,17,17,16,17,16,17,16,17,17,17,16,16,16,17,17,17,17,17]","106","716","358.5","false","20","20","black","1","false","1","1","1440","900","rdk","ArrowLeft","","","","0.6","0.24",""
"","null","","html-keyboard-response","5","77860","0.0-0.0-2.0-1.0-0.0-0.0-0.0-2.0","null","<p style='font-size: 60px; color: green'>正确!</p>","","","","","","","","","","","","","","","","","","","","","","","","","","","","","","","","","","","","","","","","","","","","","","","","",""
"","null","fixation","html-keyboard-response","6","78362","0.0-0.0-2.0-1.0-0.0-0.0-0.0-0.1","null","<p style='font-size: 48px; color: white'>+</p >","","","","","","","","","","","","","","","","","","","","","","","","","","","","","","","","","","","","","","","","","","","","","","","","",""
"","1316","motion_pract","rdk","7","79680","0.0-0.0-2.0-1.0-0.0-0.0-0.0-1.1","arrowright","","true","[""ArrowLeft"",""ArrowRight""]","ArrowRight","3000","true","1","100","0","0.24","0","5.7","1","-1","3","600","600","[""hsl(0, 50%, 50%)"",""hsl(225, 50%, 50%)""]","[""white""]","0","0","8.30724145902618","circle","black","3","2","2","16.807692307692307","[20,16,18,15,17,18,16,16,17,16,17,16,17,17,15,18,17,16,18,17,16,18,17,15,18,16,18,16,18,16,17,17,17,16,17,16,17,17,18,17,16,17,17,17,17,17,16,18,16,18,16,18,17,16,18,15,18,16,18,17,16,17,16,17,17,17,17,18,15,17,16,16,17,18,16,17,16,16]","78","716","358.5","false","20","20","black","1","false","1","1","1440","900","rdk","ArrowRight","","","","0.6","0.24",""
"","null","","html-keyboard-response","8","80181","0.0-0.0-2.0-1.0-0.0-0.0-0.0-2.1","null","<p style='font-size: 60px; color: green'>正确!</p>","","","","","","","","","","","","","","","","","","","","","","","","","","","","","","","","","","","","","","","","","","","","","","","","",""
"","null","fixation","html-keyboard-response","9","80684","0.0-0.0-2.0-1.0-0.0-0.0-0.0-0.2","null","<p style='font-size: 48px; color: white'>+</p >","","","","","","","","","","","","","","","","","","","","","","","","","","","","","","","","","","","","","","","","","","","","","","","","",""
"","1248","motion_pract","rdk","10","81934","0.0-0.0-2.0-1.0-0.0-0.0-0.0-1.2","arrowright","","true","[""ArrowLeft"",""ArrowRight""]","ArrowRight","3000","true","1","100","0","0.24","0","5.7","1","-1","3","600","600","[""hsl(0, 50%, 50%)"",""hsl(225, 50%, 50%)""]","[""white""]","0","0","8.30724145902618","circle","black","3","2","2","16.746666666666666","[13,17,17,16,18,15,18,16,18,17,16,17,16,17,17,16,18,16,17,17,17,17,17,17,17,17,17,16,17,17,16,17,16,17,17,16,18,16,18,17,16,17,16,16,18,17,16,18,16,18,17,15,18,17,17,17,17,16,17,17,18,16,17,17,17,16,17,16,17,17,17,17,17,17,15]","75","716","358.5","false","20","20","black","1","false","1","1","1440","900","rdk","ArrowRight","","","","0.6","0.24",""
"","null","","html-keyboard-response","11","82435","0.0-0.0-2.0-1.0-0.0-0.0-0.0-2.2","null","<p style='font-size: 60px; color: green'>正确!</p>","","","","","","","","","","","","","","","","","","","","","","","","","","","","","","","","","","","","","","","","","","","","","","","","",""
"","null","fixation","html-keyboard-response","12","82938","0.0-0.0-2.0-1.0-0.0-0.0-0.0-0.3","null","<p style='font-size: 48px; color: white'>+</p >","","","","","","","","","","","","","","","","","","","","","","","","","","","","","","","","","","","","","","","","","","","","","","","","",""
"","1096","motion_pract","rdk","13","84036","0.0-0.0-2.0-1.0-0.0-0.0-0.0-1.3","arrowleft","","true","[""ArrowLeft"",""ArrowRight""]","ArrowLeft","3000","true","1","100","180","0.24","0","5.7","1","-1","3","600","600","[""hsl(0, 50%, 50%)"",""hsl(225, 50%, 50%)""]","[""white""]","0","0","8.30724145902618","circle","black","3","2","2","16.651515151515152","[7,16,17,18,17,16,17,16,17,17,17,16,17,17,17,17,17,17,16,17,17,17,16,16,17,17,17,17,17,17,17,16,18,16,17,17,16,16,17,17,16,17,16,17,17,17,16,17,18,17,17,16,18,17,16,17,17,17,17,17,18,16,17,16,17,17]","66","716","358.5","false","20","20","black","1","false","1","1","1440","900","rdk","ArrowLeft","","","","0.6","0.24",""
"","null","","html-keyboard-response","14","84538","0.0-0.0-2.0-1.0-0.0-0.0-0.0-2.3","null","<p style='font-size: 60px; color: green'>正确!</p>","","","","","","","","","","","","","","","","","","","","","","","","","","","","","","","","","","","","","","","","","","","","","","","","",""
"","null","fixation","html-keyboard-response","15","85041","0.0-0.0-2.0-1.0-0.0-0.0-0.0-0.4","null","<p style='font-size: 48px; color: white'>+</p >","","","","","","","","","","","","","","","","","","","","","","","","","","","","","","","","","","","","","","","","","","","","","","","","",""
"","1783","motion_pract","rdk","16","86825","0.0-0.0-2.0-1.0-0.0-0.0-0.0-1.4","arrowleft","","true","[""ArrowLeft"",""ArrowRight""]","ArrowLeft","3000","true","1","100","180","0.22","0","5.7","1","-1","3","600","600","[""hsl(0, 50%, 50%)"",""hsl(225, 50%, 50%)""]","[""white""]","0","0","8.30724145902618","circle","black","3","2","2","16.77358490566038","[20,18,17,16,18,17,17,16,16,18,15,17,17,17,17,16,17,17,17,17,17,16,17,17,17,16,16,18,17,16,17,17,16,17,17,17,17,16,16,18,16,17,17,17,17,16,18,16,16,16,18,17,17,17,17,16,17,17,16,19,16,17,17,16,17,16,17,17,17,17,17,16,17,16,17,17,17,17,17,17,15,17,17,17,17,16,17,16,17,16,16,17,17,17,17,17,16,16,17,16,18,16,17,16,16,17]","106","716","358.5","false","20","20","black","1","false","1","1","1440","900","rdk","ArrowLeft","","","","0.6","0.22",""
"","null","","html-keyboard-response","17","87327","0.0-0.0-2.0-1.0-0.0-0.0-0.0-2.4","null","<p style='font-size: 60px; color: green'>正确!</p>","","","","","","","","","","","","","","","","","","","","","","","","","","","","","","","","","","","","","","","","","","","","","","","","",""
"","null","fixation","html-keyboard-response","18","87829","0.0-0.0-2.0-1.0-0.0-0.0-0.0-0.5","null","<p style='font-size: 48px; color: white'>+</p >","","","","","","","","","","","","","","","","","","","","","","","","","","","","","","","","","","","","","","","","","","","","","","","","",""
"","809","motion_pract","rdk","19","88640","0.0-0.0-2.0-1.0-0.0-0.0-0.0-1.5","arrowright","","true","[""ArrowLeft"",""ArrowRight""]","ArrowRight","3000","true","1","100","0","0.22","0","5.7","1","-1","3","600","600","[""hsl(0, 50%, 50%)"",""hsl(225, 50%, 50%)""]","[""white""]","0","0","8.30724145902618","circle","black","3","2","2","16.791666666666668","[12,18,17,15,17,17,17,18,17,17,17,17,15,17,18,16,17,17,17,17,17,17,17,17,17,18,16,17,17,17,17,17,17,17,17,17,16,17,17,17,17,17,16,17,16,18,17,16]","48","716","358.5","false","20","20","black","1","false","1","1","1440","900","rdk","ArrowRight","","","","0.6","0.22",""
"","null","","html-keyboard-response","20","89142","0.0-0.0-2.0-1.0-0.0-0.0-0.0-2.5","null","<p style='font-size: 60px; color: green'>正确!</p>","","","","","","","","","","","","","","","","","","","","","","","","","","","","","","","","","","","","","","","","","","","","","","","","",""
"","null","fixation","html-keyboard-response","21","89644","0.0-0.0-2.0-1.0-0.0-0.0-0.0-0.6","null","<p style='font-size: 48px; color: white'>+</p >","","","","","","","","","","","","","","","","","","","","","","","","","","","","","","","","","","","","","","","","","","","","","","","","",""
"","815","motion_pract","rdk","22","90460","0.0-0.0-2.0-1.0-0.0-0.0-0.0-1.6","arrowright","","true","[""ArrowLeft"",""ArrowRight""]","ArrowRight","3000","true","1","100","0","0.22","0","5.7","1","-1","3","600","600","[""hsl(0, 50%, 50%)"",""hsl(225, 50%, 50%)""]","[""white""]","0","0","8.30724145902618","circle","black","3","2","2","16.75","[15,16,18,15,18,17,17,16,17,17,17,16,17,17,16,18,15,17,17,17,16,18,17,16,18,17,15,18,17,17,17,16,17,16,17,16,17,17,17,17,17,16,17,17,17,17,16,18]","48","716","358.5","false","20","20","black","1","false","1","1","1440","900","rdk","ArrowRight","","","","0.6","0.22",""
"","null","","html-keyboard-response","23","90962","0.0-0.0-2.0-1.0-0.0-0.0-0.0-2.6","null","<p style='font-size: 60px; color: green'>正确!</p>","","","","","","","","","","","","","","","","","","","","","","","","","","","","","","","","","","","","","","","","","","","","","","","","",""
"","null","fixation","html-keyboard-response","24","91464","0.0-0.0-2.0-1.0-0.0-0.0-0.0-0.7","null","<p style='font-size: 48px; color: white'>+</p >","","","","","","","","","","","","","","","","","","","","","","","","","","","","","","","","","","","","","","","","","","","","","","","","",""
"","1083","motion_pract","rdk","25","92549","0.0-0.0-2.0-1.0-0.0-0.0-0.0-1.7","arrowleft","","true","[""ArrowLeft"",""ArrowRight""]","ArrowLeft","3000","true","1","100","180","0.22","0","5.7","1","-1","3","600","600","[""hsl(0, 50%, 50%)"",""hsl(225, 50%, 50%)""]","[""white""]","0","0","8.30724145902618","circle","black","3","2","2","16.753846153846155","[9,18,17,17,16,16,18,16,18,17,15,18,17,17,17,15,17,17,17,16,18,17,16,17,17,17,15,17,17,17,17,16,18,16,17,18,15,18,17,16,18,17,17,16,18,17,17,17,17,17,17,16,18,17,17,17,17,17,17,16,18,16,17,17,17]","65","716","358.5","false","20","20","black","1","false","1","1","1440","900","rdk","ArrowLeft","","","","0.6","0.22",""
"","null","","html-keyboard-response","26","93050","0.0-0.0-2.0-1.0-0.0-0.0-0.0-2.7","null","<p style='font-size: 60px; color: green'>正确!</p>","","","","","","","","","","","","","","","","","","","","","","","","","","","","","","","","","","","","","","","","","","","","","","","","",""
"","null","fixation","html-keyboard-response","27","93553","0.0-0.0-2.0-1.0-0.0-0.0-0.0-0.8","null","<p style='font-size: 48px; color: white'>+</p >","","","","","","","","","","","","","","","","","","","","","","","","","","","","","","","","","","","","","","","","","","","","","","","","",""
"","838","motion_pract","rdk","28","94392","0.0-0.0-2.0-1.0-0.0-0.0-0.0-1.8","arrowleft","","true","[""ArrowLeft"",""ArrowRight""]","ArrowLeft","3000","true","1","100","180","0.2","0","5.7","1","-1","3","600","600","[""hsl(0, 50%, 50%)"",""hsl(225, 50%, 50%)""]","[""white""]","0","0","8.30724145902618","circle","black","3","2","2","16.918367346938776","[20,17,18,17,16,17,18,15,18,16,17,17,16,18,17,16,17,17,17,17,17,17,16,15,18,17,16,17,17,17,17,17,17,17,16,17,17,17,17,17,16,18,16,17,16,18,17,16,18]","49","716","358.5","false","20","20","black","1","false","1","1","1440","900","rdk","ArrowLeft","","","","0.6","0.2",""
"","null","","html-keyboard-response","29","94893","0.0-0.0-2.0-1.0-0.0-0.0-0.0-2.8","null","<p style='font-size: 60px; color: green'>正确!</p>","","","","","","","","","","","","","","","","","","","","","","","","","","","","","","","","","","","","","","","","","","","","","","","","",""
"","null","fixation","html-keyboard-response","30","95396","0.0-0.0-2.0-1.0-0.0-0.0-0.0-0.9","null","<p style='font-size: 48px; color: white'>+</p >","","","","","","","","","","","","","","","","","","","","","","","","","","","","","","","","","","","","","","","","","","","","","","","","",""
"","1260","motion_pract","rdk","31","96658","0.0-0.0-2.0-1.0-0.0-0.0-0.0-1.9","arrowleft","","true","[""ArrowLeft"",""ArrowRight""]","ArrowLeft","3000","true","1","100","180","0.2","0","5.7","1","-1","3","600","600","[""hsl(0, 50%, 50%)"",""hsl(225, 50%, 50%)""]","[""white""]","0","0","8.30724145902618","circle","black","3","2","2","16.657894736842106","[9,16,16,17,17,16,17,18,16,16,17,17,17,17,17,16,17,16,17,17,17,17,16,18,16,17,17,17,17,17,17,16,17,17,17,17,17,17,17,17,17,16,17,16,18,16,16,17,17,16,18,16,17,16,18,16,17,17,16,18,18,16,17,15,17,17,17,17,16,16,18,15,17,18,17,16]","76","716","358.5","false","20","20","black","1","false","1","1","1440","900","rdk","ArrowLeft","","","","0.6","0.2",""
"","null","","html-keyboard-response","32","97159","0.0-0.0-2.0-1.0-0.0-0.0-0.0-2.9","null","<p style='font-size: 60px; color: green'>正确!</p>","","","","","","","","","","","","","","","","","","","","","","","","","","","","","","","","","","","","","","","","","","","","","","","","",""
"","null","fixation","html-keyboard-response","33","97660","0.0-0.0-2.0-1.0-0.0-0.0-0.0-0.10","null","<p style='font-size: 48px; color: white'>+</p >","","","","","","","","","","","","","","","","","","","","","","","","","","","","","","","","","","","","","","","","","","","","","","","","",""
"","758","motion_pract","rdk","34","98420","0.0-0.0-2.0-1.0-0.0-0.0-0.0-1.10","arrowright","","true","[""ArrowLeft"",""ArrowRight""]","ArrowRight","3000","true","1","100","0","0.2","0","5.7","1","-1","3","600","600","[""hsl(0, 50%, 50%)"",""hsl(225, 50%, 50%)""]","[""white""]","0","0","8.30724145902618","circle","black","3","2","2","16.666666666666668","[10,16,18,16,17,17,17,16,18,17,17,16,17,17,17,17,17,15,17,18,17,17,15,18,17,17,16,16,18,17,16,18,17,16,17,17,16,18,16,17,16,17,17,17,17]","45","716","358.5","false","20","20","black","1","false","1","1","1440","900","rdk","ArrowRight","","","","0.6","0.2",""
"","null","","html-keyboard-response","35","98922","0.0-0.0-2.0-1.0-0.0-0.0-0.0-2.10","null","<p style='font-size: 60px; color: green'>正确!</p>","","","","","","","","","","","","","","","","","","","","","","","","","","","","","","","","","","","","","","","","","","","","","","","","",""
"","null","fixation","html-keyboard-response","36","99423","0.0-0.0-2.0-1.0-0.0-0.0-0.0-0.11","null","<p style='font-size: 48px; color: white'>+</p >","","","","","","","","","","","","","","","","","","","","","","","","","","","","","","","","","","","","","","","","","","","","","","","","",""
"","693","motion_pract","rdk","37","100117","0.0-0.0-2.0-1.0-0.0-0.0-0.0-1.11","arrowright","","true","[""ArrowLeft"",""ArrowRight""]","ArrowRight","3000","true","1","100","0","0.2","0","5.7","1","-1","3","600","600","[""hsl(0, 50%, 50%)"",""hsl(225, 50%, 50%)""]","[""white""]","0","0","8.30724145902618","circle","black","3","2","2","16.73170731707317","[12,18,17,17,16,16,16,17,17,16,18,15,18,17,17,17,17,17,17,15,18,17,16,17,17,17,17,16,18,17,16,18,17,17,15,18,17,17,17,17,17]","41","716","358.5","false","20","20","black","1","false","1","1","1440","900","rdk","ArrowRight","","","","0.6","0.2",""
"","null","","html-keyboard-response","38","100619","0.0-0.0-2.0-1.0-0.0-0.0-0.0-2.11","null","<p style='font-size: 60px; color: green'>正确!</p>","","","","","","","","","","","","","","","","","","","","","","","","","","","","","","","","","","","","","","","","","","","","","","","","",""
"","null","fixation","html-keyboard-response","39","101121","0.0-0.0-2.0-1.0-0.0-0.0-0.0-0.12","null","<p style='font-size: 48px; color: white'>+</p >","","","","","","","","","","","","","","","","","","","","","","","","","","","","","","","","","","","","","","","","","","","","","","","","",""
"","926","motion_pract","rdk","40","102048","0.0-0.0-2.0-1.0-0.0-0.0-0.0-1.12","arrowright","","false","[""ArrowLeft"",""ArrowRight""]","ArrowLeft","3000","true","1","100","180","0.18000000000000002","0","5.7","1","-1","3","600","600","[""hsl(0, 50%, 50%)"",""hsl(225, 50%, 50%)""]","[""white""]","0","0","8.30724145902618","circle","black","3","2","2","16.69090909090909","[13,16,18,17,17,17,17,16,17,17,16,18,15,18,16,18,15,16,17,18,16,17,17,17,16,18,17,17,16,17,18,16,17,17,17,15,18,15,18,16,17,17,17,15,18,17,16,16,17,16,18,16,18,17,16]","55","716","358.5","false","20","20","black","1","false","1","1","1440","900","rdk","ArrowLeft","","","","0.6","0.18000000000000002",""
"","null","","html-keyboard-response","41","102550","0.0-0.0-2.0-1.0-0.0-0.0-0.0-2.12","null","<p style='font-size: 60px; color: red'>错误!</p>","","","","","","","","","","","","","","","","","","","","","","","","","","","","","","","","","","","","","","","","","","","","","","","","",""
"","null","fixation","html-keyboard-response","42","103053","0.0-0.0-2.0-1.0-0.0-0.0-0.0-0.13","null","<p style='font-size: 48px; color: white'>+</p >","","","","","","","","","","","","","","","","","","","","","","","","","","","","","","","","","","","","","","","","","","","","","","","","",""
"","643","motion_pract","rdk","43","103696","0.0-0.0-2.0-1.0-0.0-0.0-0.0-1.13","arrowright","","true","[""ArrowLeft"",""ArrowRight""]","ArrowRight","3000","true","1","100","0","0.2","0","5.7","1","-1","3","600","600","[""hsl(0, 50%, 50%)"",""hsl(225, 50%, 50%)""]","[""white""]","0","0","8.30724145902618","circle","black","3","2","2","16.763157894736842","[14,18,17,16,18,15,18,17,15,18,17,16,18,16,18,16,17,17,17,17,15,17,17,16,18,17,17,17,17,17,16,17,17,16,18,17,17,16]","38","716","358.5","false","20","20","black","1","false","1","1","1440","900","rdk","ArrowRight","","","","0.6","0.2",""
"","null","","html-keyboard-response","44","104198","0.0-0.0-2.0-1.0-0.0-0.0-0.0-2.13","null","<p style='font-size: 60px; color: green'>正确!</p>","","","","","","","","","","","","","","","","","","","","","","","","","","","","","","","","","","","","","","","","","","","","","","","","",""
"","null","fixation","html-keyboard-response","45","104700","0.0-0.0-2.0-1.0-0.0-0.0-0.0-0.14","null","<p style='font-size: 48px; color: white'>+</p >","","","","","","","","","","","","","","","","","","","","","","","","","","","","","","","","","","","","","","","","","","","","","","","","",""
"","948","motion_pract","rdk","46","105649","0.0-0.0-2.0-1.0-0.0-0.0-0.0-1.14","arrowleft","","true","[""ArrowLeft"",""ArrowRight""]","ArrowLeft","3000","true","1","100","180","0.2","0","5.7","1","-1","3","600","600","[""hsl(0, 50%, 50%)"",""hsl(225, 50%, 50%)""]","[""white""]","0","0","8.30724145902618","circle","black","3","2","2","16.763636363636362","[16,17,16,18,16,18,15,18,16,17,17,17,17,15,17,17,17,17,17,17,16,17,17,16,17,16,18,17,17,17,16,17,16,17,17,17,15,18,17,16,17,17,16,18,17,17,15,18,17,17,17,17,17,16,17]","55","716","358.5","false","20","20","black","1","false","1","1","1440","900","rdk","ArrowLeft","","","","0.6","0.2",""
"","null","","html-keyboard-response","47","106151","0.0-0.0-2.0-1.0-0.0-0.0-0.0-2.14","null","<p style='font-size: 60px; color: green'>正确!</p>","","","","","","","","","","","","","","","","","","","","","","","","","","","","","","","","","","","","","","","","","","","","","","","","",""
"","null","fixation","html-keyboard-response","48","106652","0.0-0.0-2.0-1.0-0.0-0.0-0.0-0.15","null","<p style='font-size: 48px; color: white'>+</p >","","","","","","","","","","","","","","","","","","","","","","","","","","","","","","","","","","","","","","","","","","","","","","","","",""
"","913","motion_pract","rdk","49","107566","0.0-0.0-2.0-1.0-0.0-0.0-0.0-1.15","arrowright","","true","[""ArrowLeft"",""ArrowRight""]","ArrowRight","3000","true","1","100","0","0.2","0","5.7","1","-1","3","600","600","[""hsl(0, 50%, 50%)"",""hsl(225, 50%, 50%)""]","[""white""]","0","0","8.30724145902618","circle","black","3","2","2","16.74074074074074","[13,18,15,18,16,17,17,17,16,18,16,16,17,17,17,16,18,15,18,17,17,17,17,17,16,17,18,17,16,16,17,17,17,17,17,17,17,17,18,14,18,17,17,17,17,16,17,17,15,18,17,17,16,17]","54","716","358.5","false","20","20","black","1","false","1","1","1440","900","rdk","ArrowRight","","","","0.6","0.2",""
"","null","","html-keyboard-response","50","108068","0.0-0.0-2.0-1.0-0.0-0.0-0.0-2.15","null","<p style='font-size: 60px; color: green'>正确!</p>","","","","","","","","","","","","","","","","","","","","","","","","","","","","","","","","","","","","","","","","","","","","","","","","",""
"","null","fixation","html-keyboard-response","51","108570","0.0-0.0-2.0-1.0-0.0-0.0-0.0-0.16","null","<p style='font-size: 48px; color: white'>+</p >","","","","","","","","","","","","","","","","","","","","","","","","","","","","","","","","","","","","","","","","","","","","","","","","",""
"","899","motion_pract","rdk","52","109471","0.0-0.0-2.0-1.0-0.0-0.0-0.0-1.16","arrowright","","true","[""ArrowLeft"",""ArrowRight""]","ArrowRight","3000","true","1","100","0","0.2","0","5.7","1","-1","3","600","600","[""hsl(0, 50%, 50%)"",""hsl(225, 50%, 50%)""]","[""white""]","0","0","8.30724145902618","circle","black","3","2","2","16.574074074074073","[8,18,16,17,17,16,18,17,16,17,17,16,17,17,16,18,17,17,17,17,17,16,17,16,16,18,16,17,16,18,15,18,17,17,16,16,17,17,17,16,17,16,18,16,18,16,17,16,16,18,15,17,17,16]","54","716","358.5","false","20","20","black","1","false","1","1","1440","900","rdk","ArrowRight","","","","0.6","0.2",""
"","null","","html-keyboard-response","53","109973","0.0-0.0-2.0-1.0-0.0-0.0-0.0-2.16","null","<p style='font-size: 60px; color: green'>正确!</p>","","","","","","","","","","","","","","","","","","","","","","","","","","","","","","","","","","","","","","","","","","","","","","","","",""
"","null","fixation","html-keyboard-response","54","110476","0.0-0.0-2.0-1.0-0.0-0.0-0.0-0.17","null","<p style='font-size: 48px; color: white'>+</p >","","","","","","","","","","","","","","","","","","","","","","","","","","","","","","","","","","","","","","","","","","","","","","","","",""
"","1305","motion_pract","rdk","55","111782","0.0-0.0-2.0-1.0-0.0-0.0-0.0-1.17","arrowleft","","true","[""ArrowLeft"",""ArrowRight""]","ArrowLeft","3000","true","1","100","180","0.18000000000000002","0","5.7","1","-1","3","600","600","[""hsl(0, 50%, 50%)"",""hsl(225, 50%, 50%)""]","[""white""]","0","0","8.30724145902618","circle","black","3","2","2","16.76923076923077","[19,17,17,17,17,16,17,18,14,18,17,17,15,18,16,17,17,17,16,17,16,18,16,18,17,16,17,18,15,18,17,15,18,15,18,16,17,17,15,17,18,17,16,18,16,17,17,16,18,16,17,16,18,15,18,17,16,17,15,19,16,16,17,16,17,15,17,18,17,17,17,17,16,17,15,18,17,17]","78","716","358.5","false","20","20","black","1","false","1","1","1440","900","rdk","ArrowLeft","","","","0.6","0.18000000000000002",""
"","null","","html-keyboard-response","56","112284","0.0-0.0-2.0-1.0-0.0-0.0-0.0-2.17","null","<p style='font-size: 60px; color: green'>正确!</p>","","","","","","","","","","","","","","","","","","","","","","","","","","","","","","","","","","","","","","","","","","","","","","","","",""
"","null","fixation","html-keyboard-response","57","112786","0.0-0.0-2.0-1.0-0.0-0.0-0.0-0.18","null","<p style='font-size: 48px; color: white'>+</p >","","","","","","","","","","","","","","","","","","","","","","","","","","","","","","","","","","","","","","","","","","","","","","","","",""
"","1090","motion_pract","rdk","58","113878","0.0-0.0-2.0-1.0-0.0-0.0-0.0-1.18","arrowleft","","true","[""ArrowLeft"",""ArrowRight""]","ArrowLeft","3000","true","1","100","180","0.18000000000000002","0","5.7","1","-1","3","600","600","[""hsl(0, 50%, 50%)"",""hsl(225, 50%, 50%)""]","[""white""]","0","0","8.30724145902618","circle","black","3","2","2","16.890625","[24,17,17,15,18,17,17,17,16,16,17,17,15,18,16,17,16,18,17,15,17,17,17,17,17,17,17,17,17,16,17,17,17,17,16,17,18,17,17,17,17,16,17,16,17,18,17,16,17,17,16,17,16,17,17,16,16,17,16,19,16,17,17,17]","64","716","358.5","false","20","20","black","1","false","1","1","1440","900","rdk","ArrowLeft","","","","0.6","0.18000000000000002",""
"","null","","html-keyboard-response","59","114379","0.0-0.0-2.0-1.0-0.0-0.0-0.0-2.18","null","<p style='font-size: 60px; color: green'>正确!</p>","","","","","","","","","","","","","","","","","","","","","","","","","","","","","","","","","","","","","","","","","","","","","","","","",""
"","null","fixation","html-keyboard-response","60","114881","0.0-0.0-2.0-1.0-0.0-0.0-0.0-0.19","null","<p style='font-size: 48px; color: white'>+</p >","","","","","","","","","","","","","","","","","","","","","","","","","","","","","","","","","","","","","","","","","","","","","","","","",""
"","951","motion_pract","rdk","61","115834","0.0-0.0-2.0-1.0-0.0-0.0-0.0-1.19","arrowright","","true","[""ArrowLeft"",""ArrowRight""]","ArrowRight","3000","true","1","100","0","0.18000000000000002","0","5.7","1","-1","3","600","600","[""hsl(0, 50%, 50%)"",""hsl(225, 50%, 50%)""]","[""white""]","0","0","8.30724145902618","circle","black","3","2","2","16.719298245614034","[10,18,16,18,16,17,17,17,17,16,16,18,17,16,16,18,17,17,17,16,17,17,17,16,17,17,17,17,17,17,16,17,17,17,17,17,17,17,17,15,18,17,17,17,17,17,17,16,17,18,16,16,18,16,16,17,17]","57","716","358.5","false","20","20","black","1","false","1","1","1440","900","rdk","ArrowRight","","","","0.6","0.18000000000000002",""
"","null","","html-keyboard-response","62","116336","0.0-0.0-2.0-1.0-0.0-0.0-0.0-2.19","null","<p style='font-size: 60px; color: green'>正确!</p>","","","","","","","","","","","","","","","","","","","","","","","","","","","","","","","","","","","","","","","","","","","","","","","","",""
"","null","fixation","html-keyboard-response","63","116838","0.0-0.0-2.0-1.0-0.0-0.0-0.0-0.20","null","<p style='font-size: 48px; color: white'>+</p >","","","","","","","","","","","","","","","","","","","","","","","","","","","","","","","","","","","","","","","","","","","","","","","","",""
"","853","motion_pract","rdk","64","117692","0.0-0.0-2.0-1.0-0.0-0.0-0.0-1.20","arrowleft","","true","[""ArrowLeft"",""ArrowRight""]","ArrowLeft","3000","true","1","100","180","0.18000000000000002","0","5.7","1","-1","3","600","600","[""hsl(0, 50%, 50%)"",""hsl(225, 50%, 50%)""]","[""white""]","0","0","8.30724145902618","circle","black","3","2","2","16.88","[19,17,18,16,16,17,18,17,16,18,17,17,15,18,17,15,18,16,18,16,16,18,17,17,17,17,16,17,17,16,18,17,17,17,17,16,17,17,16,18,15,17,18,16,17,17,17,16,18,16]","50","716","358.5","false","20","20","black","1","false","1","1","1440","900","rdk","ArrowLeft","","","","0.6","0.18000000000000002",""
"","null","","html-keyboard-response","65","118194","0.0-0.0-2.0-1.0-0.0-0.0-0.0-2.20","null","<p style='font-size: 60px; color: green'>正确!</p>","","","","","","","","","","","","","","","","","","","","","","","","","","","","","","","","","","","","","","","","","","","","","","","","",""
"","null","fixation","html-keyboard-response","66","118695","0.0-0.0-2.0-1.0-0.0-0.0-0.0-0.21","null","<p style='font-size: 48px; color: white'>+</p >","","","","","","","","","","","","","","","","","","","","","","","","","","","","","","","","","","","","","","","","","","","","","","","","",""
"","806","motion_pract","rdk","67","119505","0.0-0.0-2.0-1.0-0.0-0.0-0.0-1.21","arrowright","","true","[""ArrowLeft"",""ArrowRight""]","ArrowRight","3000","true","1","100","0","0.16000000000000003","0","5.7","1","-1","3","600","600","[""hsl(0, 50%, 50%)"",""hsl(225, 50%, 50%)""]","[""white""]","0","0","8.30724145902618","circle","black","3","2","2","16.604166666666668","[9,17,18,17,17,16,18,17,16,16,16,18,17,16,17,16,17,18,15,18,17,17,16,17,17,16,16,18,17,16,18,15,17,17,17,17,17,16,16,16,18,17,17,17,16,17,17,16]","48","716","358.5","false","20","20","black","1","false","1","1","1440","900","rdk","ArrowRight","","","","0.6","0.16000000000000003",""
"","null","","html-keyboard-response","68","120007","0.0-0.0-2.0-1.0-0.0-0.0-0.0-2.21","null","<p style='font-size: 60px; color: green'>正确!</p>","","","","","","","","","","","","","","","","","","","","","","","","","","","","","","","","","","","","","","","","","","","","","","","","",""
"","null","fixation","html-keyboard-response","69","120509","0.0-0.0-2.0-1.0-0.0-0.0-0.0-0.22","null","<p style='font-size: 48px; color: white'>+</p >","","","","","","","","","","","","","","","","","","","","","","","","","","","","","","","","","","","","","","","","","","","","","","","","",""
"","1118","motion_pract","rdk","70","121628","0.0-0.0-2.0-1.0-0.0-0.0-0.0-1.22","arrowleft","","true","[""ArrowLeft"",""ArrowRight""]","ArrowLeft","3000","true","1","100","180","0.16000000000000003","0","5.7","1","-1","3","600","600","[""hsl(0, 50%, 50%)"",""hsl(225, 50%, 50%)""]","[""white""]","0","0","8.30724145902618","circle","black","3","2","2","16.746268656716417","[13,16,17,17,16,17,16,17,17,17,17,16,18,16,18,17,16,18,16,17,17,17,17,17,16,18,16,18,17,17,16,18,16,18,15,18,16,17,16,17,17,16,17,18,16,17,17,16,16,18,16,17,18,17,17,16,17,17,17,17,19,13,18,16,18,17,15]","67","716","358.5","false","20","20","black","1","false","1","1","1440","900","rdk","ArrowLeft","","","","0.6","0.16000000000000003",""
"","null","","html-keyboard-response","71","122129","0.0-0.0-2.0-1.0-0.0-0.0-0.0-2.22","null","<p style='font-size: 60px; color: green'>正确!</p>","","","","","","","","","","","","","","","","","","","","","","","","","","","","","","","","","","","","","","","","","","","","","","","","",""
"","null","fixation","html-keyboard-response","72","122631","0.0-0.0-2.0-1.0-0.0-0.0-0.0-0.23","null","<p style='font-size: 48px; color: white'>+</p >","","","","","","","","","","","","","","","","","","","","","","","","","","","","","","","","","","","","","","","","","","","","","","","","",""
"","902","motion_pract","rdk","73","123535","0.0-0.0-2.0-1.0-0.0-0.0-0.0-1.23","arrowright","","true","[""ArrowLeft"",""ArrowRight""]","ArrowRight","3000","true","1","100","0","0.16000000000000003","0","5.7","1","-1","3","600","600","[""hsl(0, 50%, 50%)"",""hsl(225, 50%, 50%)""]","[""white""]","0","0","8.30724145902618","circle","black","3","2","2","16.962264150943398","[23,15,17,17,16,18,17,17,16,17,17,16,17,18,17,17,16,17,17,17,17,17,17,17,17,16,16,18,17,16,18,17,15,18,17,16,18,15,17,18,15,18,16,18,17,16,18,17,17,17,17,17,17]","53","716","358.5","false","20","20","black","1","false","1","1","1440","900","rdk","ArrowRight","","","","0.6","0.16000000000000003",""
"","null","","html-keyboard-response","74","124036","0.0-0.0-2.0-1.0-0.0-0.0-0.0-2.23","null","<p style='font-size: 60px; color: green'>正确!</p>","","","","","","","","","","","","","","","","","","","","","","","","","","","","","","","","","","","","","","","","","","","","","","","","",""
"","null","fixation","html-keyboard-response","75","124539","0.0-0.0-2.0-1.0-0.0-0.0-0.0-0.24","null","<p style='font-size: 48px; color: white'>+</p >","","","","","","","","","","","","","","","","","","","","","","","","","","","","","","","","","","","","","","","","","","","","","","","","",""
"","1366","motion_pract","rdk","76","125906","0.0-0.0-2.0-1.0-0.0-0.0-0.0-1.24","arrowleft","","true","[""ArrowLeft"",""ArrowRight""]","ArrowLeft","3000","true","1","100","180","0.16000000000000003","0","5.7","1","-1","3","600","600","[""hsl(0, 50%, 50%)"",""hsl(225, 50%, 50%)""]","[""white""]","0","0","8.30724145902618","circle","black","3","2","2","16.74390243902439","[13,17,15,17,17,16,18,17,15,17,18,17,16,18,16,18,17,17,16,17,17,16,17,15,18,16,18,16,17,17,17,15,18,16,17,17,15,17,18,17,16,18,16,18,17,15,18,15,18,17,16,18,17,15,17,18,17,17,16,17,17,17,17,17,16,17,17,17,17,17,17,16,17,18,16,17,17,17,17,16,17,17]","82","716","358.5","false","20","20","black","1","false","1","1","1440","900","rdk","ArrowLeft","","","","0.6","0.16000000000000003",""
"","null","","html-keyboard-response","77","126407","0.0-0.0-2.0-1.0-0.0-0.0-0.0-2.24","null","<p style='font-size: 60px; color: green'>正确!</p>","","","","","","","","","","","","","","","","","","","","","","","","","","","","","","","","","","","","","","","","","","","","","","","","",""
"","null","fixation","html-keyboard-response","78","126909","0.0-0.0-2.0-1.0-0.0-0.0-0.0-0.25","null","<p style='font-size: 48px; color: white'>+</p >","","","","","","","","","","","","","","","","","","","","","","","","","","","","","","","","","","","","","","","","","","","","","","","","",""
"","850","motion_pract","rdk","79","127761","0.0-0.0-2.0-1.0-0.0-0.0-0.0-1.25","arrowright","","true","[""ArrowLeft"",""ArrowRight""]","ArrowRight","3000","true","1","100","0","0.14000000000000004","0","5.7","1","-1","3","600","600","[""hsl(0, 50%, 50%)"",""hsl(225, 50%, 50%)""]","[""white""]","0","0","8.30724145902618","circle","black","3","2","2","16.58823529411765","[8,16,17,17,17,17,17,16,17,16,18,17,17,17,16,17,16,17,17,17,15,17,17,16,18,16,18,16,17,16,18,17,16,17,18,16,16,17,16,18,17,16,16,17,17,17,18,16,17,16,17]","51","716","358.5","false","20","20","black","1","false","1","1","1440","900","rdk","ArrowRight","","","","0.6","0.14000000000000004",""
"","null","","html-keyboard-response","80","128262","0.0-0.0-2.0-1.0-0.0-0.0-0.0-2.25","null","<p style='font-size: 60px; color: green'>正确!</p>","","","","","","","","","","","","","","","","","","","","","","","","","","","","","","","","","","","","","","","","","","","","","","","","",""
"","null","fixation","html-keyboard-response","81","128765","0.0-0.0-2.0-1.0-0.0-0.0-0.0-0.26","null","<p style='font-size: 48px; color: white'>+</p >","","","","","","","","","","","","","","","","","","","","","","","","","","","","","","","","","","","","","","","","","","","","","","","","",""
"","668","motion_pract","rdk","82","129435","0.0-0.0-2.0-1.0-0.0-0.0-0.0-1.26","arrowright","","true","[""ArrowLeft"",""ArrowRight""]","ArrowRight","3000","true","1","100","0","0.14000000000000004","0","5.7","1","-1","3","600","600","[""hsl(0, 50%, 50%)"",""hsl(225, 50%, 50%)""]","[""white""]","0","0","8.30724145902618","circle","black","3","2","2","16.82051282051282","[18,17,17,16,17,17,17,17,18,15,17,18,16,17,17,16,17,17,17,17,17,16,17,17,17,17,17,17,16,17,16,17,17,17,17,16,17,16,17]","39","716","358.5","false","20","20","black","1","false","1","1","1440","900","rdk","ArrowRight","","","","0.6","0.14000000000000004",""
"","null","","html-keyboard-response","83","129936","0.0-0.0-2.0-1.0-0.0-0.0-0.0-2.26","null","<p style='font-size: 60px; color: green'>正确!</p>","","","","","","","","","","","","","","","","","","","","","","","","","","","","","","","","","","","","","","","","","","","","","","","","",""
"","null","fixation","html-keyboard-response","84","130437","0.0-0.0-2.0-1.0-0.0-0.0-0.0-0.27","null","<p style='font-size: 48px; color: white'>+</p >","","","","","","","","","","","","","","","","","","","","","","","","","","","","","","","","","","","","","","","","","","","","","","","","",""
"","882","motion_pract","rdk","85","131321","0.0-0.0-2.0-1.0-0.0-0.0-0.0-1.27","arrowleft","","true","[""ArrowLeft"",""ArrowRight""]","ArrowLeft","3000","true","1","100","180","0.14000000000000004","0","5.7","1","-1","3","600","600","[""hsl(0, 50%, 50%)"",""hsl(225, 50%, 50%)""]","[""white""]","0","0","8.30724145902618","circle","black","3","2","2","16.660377358490567","[10,18,17,17,16,17,17,16,17,17,17,15,18,17,16,16,17,16,18,17,17,15,17,18,17,16,17,17,17,17,16,18,16,17,17,16,18,16,17,17,17,16,16,18,17,17,16,17,17,16,18,16,17]","53","716","358.5","false","20","20","black","1","false","1","1","1440","900","rdk","ArrowLeft","","","","0.6","0.14000000000000004",""
"","null","","html-keyboard-response","86","131822","0.0-0.0-2.0-1.0-0.0-0.0-0.0-2.27","null","<p style='font-size: 60px; color: green'>正确!</p>","","","","","","","","","","","","","","","","","","","","","","","","","","","","","","","","","","","","","","","","","","","","","","","","",""
"","null","fixation","html-keyboard-response","87","132324","0.0-0.0-2.0-1.0-0.0-0.0-0.0-0.28","null","<p style='font-size: 48px; color: white'>+</p >","","","","","","","","","","","","","","","","","","","","","","","","","","","","","","","","","","","","","","","","","","","","","","","","",""
"","772","motion_pract","rdk","88","133099","0.0-0.0-2.0-1.0-0.0-0.0-0.0-1.28","arrowright","","false","[""ArrowLeft"",""ArrowRight""]","ArrowLeft","3000","true","1","100","180","0.14000000000000004","0","5.7","1","-1","3","600","600","[""hsl(0, 50%, 50%)"",""hsl(225, 50%, 50%)""]","[""white""]","0","0","8.30724145902618","circle","black","3","2","2","16.933333333333334","[21,18,17,17,17,18,14,16,19,17,16,17,16,17,17,17,17,17,17,17,17,16,17,16,17,16,18,16,18,17,15,16,18,17,17,16,18,17,17,16,17,17,17,17,17]","45","716","358.5","false","20","20","black","1","false","1","1","1440","900","rdk","ArrowLeft","","","","0.6","0.14000000000000004",""
"","null","","html-keyboard-response","89","133600","0.0-0.0-2.0-1.0-0.0-0.0-0.0-2.28","null","<p style='font-size: 60px; color: red'>错误!</p>","","","","","","","","","","","","","","","","","","","","","","","","","","","","","","","","","","","","","","","","","","","","","","","","",""
"","null","fixation","html-keyboard-response","90","134103","0.0-0.0-2.0-1.0-0.0-0.0-0.0-0.29","null","<p style='font-size: 48px; color: white'>+</p >","","","","","","","","","","","","","","","","","","","","","","","","","","","","","","","","","","","","","","","","","","","","","","","","",""
"","538","motion_pract","rdk","91","134643","0.0-0.0-2.0-1.0-0.0-0.0-0.0-1.29","arrowright","","true","[""ArrowLeft"",""ArrowRight""]","ArrowRight","3000","true","1","100","0","0.16000000000000003","0","5.7","1","-1","3","600","600","[""hsl(0, 50%, 50%)"",""hsl(225, 50%, 50%)""]","[""white""]","0","0","8.30724145902618","circle","black","3","2","2","16.59375","[9,16,18,17,17,17,16,18,16,17,16,18,16,18,17,16,17,17,17,16,18,17,17,16,18,17,14,17,18,17,17,16]","32","716","358.5","false","20","20","black","1","false","1","1","1440","900","rdk","ArrowRight","","","","0.6","0.16000000000000003",""
"","null","","html-keyboard-response","92","135145","0.0-0.0-2.0-1.0-0.0-0.0-0.0-2.29","null","<p style='font-size: 60px; color: green'>正确!</p>","","","","","","","","","","","","","","","","","","","","","","","","","","","","","","","","","","","","","","","","","","","","","","","","",""
"","null","fixation","html-keyboard-response","93","135648","0.0-0.0-2.0-1.0-0.0-0.0-0.0-0.30","null","<p style='font-size: 48px; color: white'>+</p >","","","","","","","","","","","","","","","","","","","","","","","","","","","","","","","","","","","","","","","","","","","","","","","","",""
"","1617","motion_pract","rdk","94","137266","0.0-0.0-2.0-1.0-0.0-0.0-0.0-1.30","arrowleft","","true","[""ArrowLeft"",""ArrowRight""]","ArrowLeft","3000","true","1","100","180","0.16000000000000003","0","5.7","1","-1","3","600","600","[""hsl(0, 50%, 50%)"",""hsl(225, 50%, 50%)""]","[""white""]","0","0","8.30724145902618","circle","black","3","2","2","16.783505154639176","[14,18,15,17,17,17,17,16,16,18,17,17,16,18,17,17,16,17,17,16,17,17,17,16,18,17,17,17,17,17,17,17,17,16,18,17,17,16,18,16,17,17,17,16,18,17,15,16,17,20,14,17,16,16,18,17,18,16,17,17,18,15,17,16,17,17,17,17,17,15,18,17,17,17,17,17,17,15,17,17,17,17,16,17,17,16,17,17,17,17,17,16,16,17,17,17,17]","97","716","358.5","false","20","20","black","1","false","1","1","1440","900","rdk","ArrowLeft","","","","0.6","0.16000000000000003",""
"","null","","html-keyboard-response","95","137767","0.0-0.0-2.0-1.0-0.0-0.0-0.0-2.30","null","<p style='font-size: 60px; color: green'>正确!</p>","","","","","","","","","","","","","","","","","","","","","","","","","","","","","","","","","","","","","","","","","","","","","","","","",""
"","null","fixation","html-keyboard-response","96","138269","0.0-0.0-2.0-1.0-0.0-0.0-0.0-0.31","null","<p style='font-size: 48px; color: white'>+</p >","","","","","","","","","","","","","","","","","","","","","","","","","","","","","","","","","","","","","","","","","","","","","","","","",""
"","692","motion_pract","rdk","97","138962","0.0-0.0-2.0-1.0-0.0-0.0-0.0-1.31","arrowright","","true","[""ArrowLeft"",""ArrowRight""]","ArrowRight","3000","true","1","100","0","0.16000000000000003","0","5.7","1","-1","3","600","600","[""hsl(0, 50%, 50%)"",""hsl(225, 50%, 50%)""]","[""white""]","0","0","8.30724145902618","circle","black","3","2","2","17.05","[24,18,17,16,18,17,17,17,17,16,16,17,17,17,16,17,16,18,17,18,16,17,16,18,17,17,16,17,16,18,17,16,18,16,18,15,17,18,17,16]","40","716","358.5","false","20","20","black","1","false","1","1","1440","900","rdk","ArrowRight","","","","0.6","0.16000000000000003",""
"","null","","html-keyboard-response","98","139464","0.0-0.0-2.0-1.0-0.0-0.0-0.0-2.31","null","<p style='font-size: 60px; color: green'>正确!</p>","","","","","","","","","","","","","","","","","","","","","","","","","","","","","","","","","","","","","","","","","","","","","","","","",""
"","null","fixation","html-keyboard-response","99","139965","0.0-0.0-2.0-1.0-0.0-0.0-0.0-0.32","null","<p style='font-size: 48px; color: white'>+</p >","","","","","","","","","","","","","","","","","","","","","","","","","","","","","","","","","","","","","","","","","","","","","","","","",""
"","698","motion_pract","rdk","100","140665","0.0-0.0-2.0-1.0-0.0-0.0-0.0-1.32","arrowright","","true","[""ArrowLeft"",""ArrowRight""]","ArrowRight","3000","true","1","100","0","0.16000000000000003","0","5.7","1","-1","3","600","600","[""hsl(0, 50%, 50%)"",""hsl(225, 50%, 50%)""]","[""white""]","0","0","8.30724145902618","circle","black","3","2","2","16.61904761904762","[9,18,18,16,17,17,17,17,17,15,18,17,15,18,17,16,18,16,17,17,16,17,17,17,16,17,17,16,17,17,17,16,18,16,17,17,17,16,17,18,16,16]","42","716","358.5","false","20","20","black","1","false","1","1","1440","900","rdk","ArrowRight","","","","0.6","0.16000000000000003",""
"","null","","html-keyboard-response","101","141166","0.0-0.0-2.0-1.0-0.0-0.0-0.0-2.32","null","<p style='font-size: 60px; color: green'>正确!</p>","","","","","","","","","","","","","","","","","","","","","","","","","","","","","","","","","","","","","","","","","","","","","","","","",""
"","null","fixation","html-keyboard-response","102","141668","0.0-0.0-2.0-1.0-0.0-0.0-0.0-0.33","null","<p style='font-size: 48px; color: white'>+</p >","","","","","","","","","","","","","","","","","","","","","","","","","","","","","","","","","","","","","","","","","","","","","","","","",""
"","774","motion_pract","rdk","103","142443","0.0-0.0-2.0-1.0-0.0-0.0-0.0-1.33","arrowleft","","true","[""ArrowLeft"",""ArrowRight""]","ArrowLeft","3000","true","1","100","180","0.14000000000000004","0","5.7","1","-1","3","600","600","[""hsl(0, 50%, 50%)"",""hsl(225, 50%, 50%)""]","[""white""]","0","0","8.30724145902618","circle","black","3","2","2","16.869565217391305","[23,17,17,15,18,17,16,18,15,16,17,18,16,17,17,17,17,17,17,17,17,16,17,16,17,17,17,16,17,17,15,18,17,17,16,16,17,17,17,17,17,17,16,17,17,16]","46","716","358.5","false","20","20","black","1","false","1","1","1440","900","rdk","ArrowLeft","","","","0.6","0.14000000000000004",""
"","null","","html-keyboard-response","104","142945","0.0-0.0-2.0-1.0-0.0-0.0-0.0-2.33","null","<p style='font-size: 60px; color: green'>正确!</p>","","","","","","","","","","","","","","","","","","","","","","","","","","","","","","","","","","","","","","","","","","","","","","","","",""
"","null","fixation","html-keyboard-response","105","143447","0.0-0.0-2.0-1.0-0.0-0.0-0.0-0.34","null","<p style='font-size: 48px; color: white'>+</p >","","","","","","","","","","","","","","","","","","","","","","","","","","","","","","","","","","","","","","","","","","","","","","","","",""
"","716","motion_pract","rdk","106","144164","0.0-0.0-2.0-1.0-0.0-0.0-0.0-1.34","arrowright","","true","[""ArrowLeft"",""ArrowRight""]","ArrowRight","3000","true","1","100","0","0.14000000000000004","0","5.7","1","-1","3","600","600","[""hsl(0, 50%, 50%)"",""hsl(225, 50%, 50%)""]","[""white""]","0","0","8.30724145902618","circle","black","3","2","2","16.58139534883721","[9,18,15,18,17,17,15,18,17,17,16,18,16,17,17,17,17,17,16,18,17,16,17,17,17,16,17,16,18,16,18,16,17,17,17,16,17,16,17,17,16,17,15]","43","716","358.5","false","20","20","black","1","false","1","1","1440","900","rdk","ArrowRight","","","","0.6","0.14000000000000004",""
"","null","","html-keyboard-response","107","144666","0.0-0.0-2.0-1.0-0.0-0.0-0.0-2.34","null","<p style='font-size: 60px; color: green'>正确!</p>","","","","","","","","","","","","","","","","","","","","","","","","","","","","","","","","","","","","","","","","","","","","","","","","",""
"","null","fixation","html-keyboard-response","108","145169","0.0-0.0-2.0-1.0-0.0-0.0-0.0-0.35","null","<p style='font-size: 48px; color: white'>+</p >","","","","","","","","","","","","","","","","","","","","","","","","","","","","","","","","","","","","","","","","","","","","","","","","",""
"","836","motion_pract","rdk","109","146006","0.0-0.0-2.0-1.0-0.0-0.0-0.0-1.35","arrowleft","","true","[""ArrowLeft"",""ArrowRight""]","ArrowLeft","3000","true","1","100","180","0.14000000000000004","0","5.7","1","-1","3","600","600","[""hsl(0, 50%, 50%)"",""hsl(225, 50%, 50%)""]","[""white""]","0","0","8.30724145902618","circle","black","3","2","2","16.877551020408163","[20,18,17,17,16,17,18,17,17,16,17,16,18,16,17,15,18,16,17,16,17,16,17,17,17,17,16,17,17,17,17,15,17,18,17,16,18,17,17,17,17,16,17,17,17,16,17,16,18]","49","716","358.5","false","20","20","black","1","false","1","1","1440","900","rdk","ArrowLeft","","","","0.6","0.14000000000000004",""
"","null","","html-keyboard-response","110","146508","0.0-0.0-2.0-1.0-0.0-0.0-0.0-2.35","null","<p style='font-size: 60px; color: green'>正确!</p>","","","","","","","","","","","","","","","","","","","","","","","","","","","","","","","","","","","","","","","","","","","","","","","","",""
"","null","fixation","html-keyboard-response","111","147010","0.0-0.0-2.0-1.0-0.0-0.0-0.0-0.36","null","<p style='font-size: 48px; color: white'>+</p >","","","","","","","","","","","","","","","","","","","","","","","","","","","","","","","","","","","","","","","","","","","","","","","","",""
"","576","motion_pract","rdk","112","147586","0.0-0.0-2.0-1.0-0.0-0.0-0.0-1.36","arrowright","","false","[""ArrowLeft"",""ArrowRight""]","ArrowLeft","3000","true","1","100","180","0.14000000000000004","0","5.7","1","-1","3","600","600","[""hsl(0, 50%, 50%)"",""hsl(225, 50%, 50%)""]","[""white""]","0","0","8.30724145902618","circle","black","3","2","2","16.61764705882353","[11,17,17,17,17,17,15,18,17,15,17,18,17,17,16,16,18,17,16,18,16,17,18,16,17,15,18,17,16,17,17,16,17,17]","34","716","358.5","false","20","20","black","1","false","1","1","1440","900","rdk","ArrowLeft","","","","0.6","0.14000000000000004",""
"","null","","html-keyboard-response","113","148088","0.0-0.0-2.0-1.0-0.0-0.0-0.0-2.36","null","<p style='font-size: 60px; color: red'>错误!</p>","","","","","","","","","","","","","","","","","","","","","","","","","","","","","","","","","","","","","","","","","","","","","","","","",""
"","null","fixation","html-keyboard-response","114","148590","0.0-0.0-2.0-1.0-0.0-0.0-0.0-0.37","null","<p style='font-size: 48px; color: white'>+</p >","","","","","","","","","","","","","","","","","","","","","","","","","","","","","","","","","","","","","","","","","","","","","","","","",""
"","1140","motion_pract","rdk","115","149732","0.0-0.0-2.0-1.0-0.0-0.0-0.0-1.37","arrowright","","true","[""ArrowLeft"",""ArrowRight""]","ArrowRight","3000","true","1","100","0","0.16000000000000003","0","5.7","1","-1","3","600","600","[""hsl(0, 50%, 50%)"",""hsl(225, 50%, 50%)""]","[""white""]","0","0","8.30724145902618","circle","black","3","2","2","16.735294117647058","[12,17,18,15,18,17,17,18,14,18,16,17,17,17,17,16,17,15,17,17,17,16,17,16,18,17,16,17,17,16,16,18,16,18,16,18,17,16,18,16,17,17,16,18,17,16,18,17,16,18,16,18,16,18,17,15,17,18,16,17,18,15,18,17,16,17,17,16]","68","716","358.5","false","20","20","black","1","false","1","1","1440","900","rdk","ArrowRight","","","","0.6","0.16000000000000003",""
"","null","","html-keyboard-response","116","150234","0.0-0.0-2.0-1.0-0.0-0.0-0.0-2.37","null","<p style='font-size: 60px; color: green'>正确!</p>","","","","","","","","","","","","","","","","","","","","","","","","","","","","","","","","","","","","","","","","","","","","","","","","",""
"","null","fixation","html-keyboard-response","117","150735","0.0-0.0-2.0-1.0-0.0-0.0-0.0-0.38","null","<p style='font-size: 48px; color: white'>+</p >","","","","","","","","","","","","","","","","","","","","","","","","","","","","","","","","","","","","","","","","","","","","","","","","",""
"","1664","motion_pract","rdk","118","152401","0.0-0.0-2.0-1.0-0.0-0.0-0.0-1.38","arrowleft","","false","[""ArrowLeft"",""ArrowRight""]","ArrowRight","3000","true","1","100","0","0.16000000000000003","0","5.7","1","-1","3","600","600","[""hsl(0, 50%, 50%)"",""hsl(225, 50%, 50%)""]","[""white""]","0","0","8.30724145902618","circle","black","3","2","2","16.87878787878788","[15,18,17,17,17,17,17,17,17,16,17,17,15,17,18,17,17,17,16,18,17,17,17,17,16,18,17,17,17,17,17,17,17,17,17,16,18,17,17,17,17,17,17,15,17,17,17,18,17,16,16,17,18,16,17,17,17,17,17,19,15,17,17,17,17,16,18,16,18,16,17,16,16,17,17,17,18,17,17,17,17,16,17,17,16,17,17,17,16,18,17,16,17,17,17,17,16,17,17]","99","716","358.5","false","20","20","black","1","false","1","1","1440","900","rdk","ArrowRight","","","","0.6","0.16000000000000003",""
"","null","","html-keyboard-response","119","152902","0.0-0.0-2.0-1.0-0.0-0.0-0.0-2.38","null","<p style='font-size: 60px; color: red'>错误!</p>","","","","","","","","","","","","","","","","","","","","","","","","","","","","","","","","","","","","","","","","","","","","","","","","",""
"","null","fixation","html-keyboard-response","120","153405","0.0-0.0-2.0-1.0-0.0-0.0-0.0-0.39","null","<p style='font-size: 48px; color: white'>+</p >","","","","","","","","","","","","","","","","","","","","","","","","","","","","","","","","","","","","","","","","","","","","","","","","",""
"","856","motion_pract","rdk","121","154263","0.0-0.0-2.0-1.0-0.0-0.0-0.0-1.39","arrowleft","","true","[""ArrowLeft"",""ArrowRight""]","ArrowLeft","3000","true","1","100","180","0.18000000000000002","0","5.7","1","-1","3","600","600","[""hsl(0, 50%, 50%)"",""hsl(225, 50%, 50%)""]","[""white""]","0","0","8.30724145902618","circle","black","3","2","2","16.666666666666668","[11,17,18,16,17,16,17,16,18,17,16,17,16,17,17,17,17,17,16,17,17,17,17,16,18,16,17,17,15,18,17,15,18,17,17,17,17,17,15,18,16,17,18,17,17,15,18,17,17,17,15]","51","716","358.5","false","20","20","black","1","false","1","1","1440","900","rdk","ArrowLeft","","","","0.6","0.18000000000000002",""
"","null","","html-keyboard-response","122","154765","0.0-0.0-2.0-1.0-0.0-0.0-0.0-2.39","null","<p style='font-size: 60px; color: green'>正确!</p>","","","","","","","","","","","","","","","","","","","","","","","","","","","","","","","","","","","","","","","","","","","","","","","","",""
"","null","fixation","html-keyboard-response","123","155267","0.0-0.0-2.0-1.0-0.1-0.1-0.1-0.40","null","<p style='font-size: 48px; color: white'>+</p >","","","","","","","","","","","","","","","","","","","","","","","","","","","","","","","","","","","","","","","","","","","","","","","","",""
"","1140","motion_pract","rdk","124","156409","0.0-0.0-2.0-1.0-0.1-0.1-0.1-1.40","arrowright","","true","[""ArrowLeft"",""ArrowRight""]","ArrowRight","3000","true","1","100","0","0.18000000000000002","0","5.7","1","-1","3","600","600","[""hsl(0, 50%, 50%)"",""hsl(225, 50%, 50%)""]","[""white""]","0","0","8.30724145902618","circle","black","3","2","2","16.83823529411765","[16,15,17,17,17,18,16,17,17,17,18,16,17,18,16,17,16,17,17,17,17,17,17,17,17,16,17,17,16,17,17,17,17,17,17,17,16,18,16,17,17,17,17,17,16,17,17,17,17,17,17,16,17,17,16,17,17,17,16,17,18,16,17,18,17,16,17,17]","68","716","358.5","false","20","20","black","1","false","1","1","1440","900","rdk","ArrowRight","","","","0.6","0.18000000000000002",""
"","null","","html-keyboard-response","125","156910","0.0-0.0-2.0-1.0-0.1-0.1-0.1-2.40","null","<p style='font-size: 60px; color: green'>正确!</p>","","","","","","","","","","","","","","","","","","","","","","","","","","","","","","","","","","","","","","","","","","","","","","","","",""
"","null","fixation","html-keyboard-response","126","157413","0.0-0.0-2.0-1.0-0.1-0.1-0.1-0.41","null","<p style='font-size: 48px; color: white'>+</p >","","","","","","","","","","","","","","","","","","","","","","","","","","","","","","","","","","","","","","","","","","","","","","","","",""
"","815","motion_pract","rdk","127","158229","0.0-0.0-2.0-1.0-0.1-0.1-0.1-1.41","arrowleft","","true","[""ArrowLeft"",""ArrowRight""]","ArrowLeft","3000","true","1","100","180","0.18000000000000002","0","5.7","1","-1","3","600","600","[""hsl(0, 50%, 50%)"",""hsl(225, 50%, 50%)""]","[""white""]","0","0","8.30724145902618","circle","black","3","2","2","16.9375","[17,18,17,17,17,17,16,17,17,17,17,17,17,17,17,17,16,18,17,17,17,16,18,15,17,17,17,18,16,17,17,17,18,16,17,17,17,17,17,16,17,17,17,17,17,17,17,17]","48","716","358.5","false","20","20","black","1","false","1","1","1440","900","rdk","ArrowLeft","","","","0.6","0.18000000000000002",""
"","null","","html-keyboard-response","128","158730","0.0-0.0-2.0-1.0-0.1-0.1-0.1-2.41","null","<p style='font-size: 60px; color: green'>正确!</p>","","","","","","","","","","","","","","","","","","","","","","","","","","","","","","","","","","","","","","","","","","","","","","","","",""
"","null","fixation","html-keyboard-response","129","159232","0.0-0.0-2.0-1.0-0.1-0.1-0.1-0.42","null","<p style='font-size: 48px; color: white'>+</p >","","","","","","","","","","","","","","","","","","","","","","","","","","","","","","","","","","","","","","","","","","","","","","","","",""
"","611","motion_pract","rdk","130","159844","0.0-0.0-2.0-1.0-0.1-0.1-0.1-1.42","arrowright","","true","[""ArrowLeft"",""ArrowRight""]","ArrowRight","3000","true","1","100","0","0.18000000000000002","0","5.7","1","-1","3","600","600","[""hsl(0, 50%, 50%)"",""hsl(225, 50%, 50%)""]","[""white""]","0","0","8.30724145902618","circle","black","3","2","2","16.77777777777778","[13,18,16,18,16,17,16,18,16,18,17,17,17,17,17,16,18,17,15,18,16,16,18,17,17,17,16,17,17,17,17,16,18,17,17,16]","36","716","358.5","false","20","20","black","1","false","1","1","1440","900","rdk","ArrowRight","","","","0.6","0.18000000000000002",""
"","null","","html-keyboard-response","131","160346","0.0-0.0-2.0-1.0-0.1-0.1-0.1-2.42","null","<p style='font-size: 60px; color: green'>正确!</p>","","","","","","","","","","","","","","","","","","","","","","","","","","","","","","","","","","","","","","","","","","","","","","","","",""
"","null","fixation","html-keyboard-response","132","160849","0.0-0.0-2.0-1.0-0.1-0.1-0.1-0.43","null","<p style='font-size: 48px; color: white'>+</p >","","","","","","","","","","","","","","","","","","","","","","","","","","","","","","","","","","","","","","","","","","","","","","","","",""
"","672","motion_pract","rdk","133","161523","0.0-0.0-2.0-1.0-0.1-0.1-0.1-1.43","arrowleft","","true","[""ArrowLeft"",""ArrowRight""]","ArrowLeft","3000","true","1","100","180","0.16000000000000003","0","5.7","1","-1","3","600","600","[""hsl(0, 50%, 50%)"",""hsl(225, 50%, 50%)""]","[""white""]","0","0","8.30724145902618","circle","black","3","2","2","16.725","[12,18,16,17,16,17,16,18,16,17,17,17,16,17,17,17,16,18,17,17,17,16,18,17,17,17,17,17,16,18,17,17,17,17,17,16,16,18,16,16]","40","716","358.5","false","20","20","black","1","false","1","1","1440","900","rdk","ArrowLeft","","","","0.6","0.16000000000000003",""
"","null","","html-keyboard-response","134","162024","0.0-0.0-2.0-1.0-0.1-0.1-0.1-2.43","null","<p style='font-size: 60px; color: green'>正确!</p>","","","","","","","","","","","","","","","","","","","","","","","","","","","","","","","","","","","","","","","","","","","","","","","","",""
"","null","fixation","html-keyboard-response","135","162528","0.0-0.0-2.0-1.0-0.1-0.1-0.1-0.44","null","<p style='font-size: 48px; color: white'>+</p >","","","","","","","","","","","","","","","","","","","","","","","","","","","","","","","","","","","","","","","","","","","","","","","","",""
"","1267","motion_pract","rdk","136","163797","0.0-0.0-2.0-1.0-0.1-0.1-0.1-1.44","arrowleft","","true","[""ArrowLeft"",""ArrowRight""]","ArrowLeft","3000","true","1","100","180","0.16000000000000003","0","5.7","1","-1","3","600","600","[""hsl(0, 50%, 50%)"",""hsl(225, 50%, 50%)""]","[""white""]","0","0","8.30724145902618","circle","black","3","2","2","16.75","[16,17,22,10,18,17,16,18,15,17,17,16,17,17,17,16,17,17,17,17,16,18,15,18,16,17,17,16,17,17,17,17,17,17,17,17,17,16,17,17,17,17,17,16,17,16,18,17,16,16,17,17,16,17,17,17,17,17,16,16,17,17,17,17,17,17,17,17,16,17,17,17,16,17,17,16]","76","716","358.5","false","20","20","black","1","false","1","1","1440","900","rdk","ArrowLeft","","","","0.6","0.16000000000000003",""
"","null","","html-keyboard-response","137","164299","0.0-0.0-2.0-1.0-0.1-0.1-0.1-2.44","null","<p style='font-size: 60px; color: green'>正确!</p>","","","","","","","","","","","","","","","","","","","","","","","","","","","","","","","","","","","","","","","","","","","","","","","","",""
"","null","fixation","html-keyboard-response","138","164801","0.0-0.0-2.0-1.0-0.1-0.1-0.1-0.45","null","<p style='font-size: 48px; color: white'>+</p >","","","","","","","","","","","","","","","","","","","","","","","","","","","","","","","","","","","","","","","","","","","","","","","","",""
"","760","motion_pract","rdk","139","165563","0.0-0.0-2.0-1.0-0.1-0.1-0.1-1.45","arrowright","","true","[""ArrowLeft"",""ArrowRight""]","ArrowRight","3000","true","1","100","0","0.16000000000000003","0","5.7","1","-1","3","600","600","[""hsl(0, 50%, 50%)"",""hsl(225, 50%, 50%)""]","[""white""]","0","0","8.30724145902618","circle","black","3","2","2","16.955555555555556","[23,17,18,16,17,17,17,16,18,16,16,17,17,18,16,16,18,17,16,18,17,16,17,17,17,17,17,16,17,17,17,16,17,17,17,17,17,16,17,17,17,17,17,15,17]","45","716","358.5","false","20","20","black","1","false","1","1","1440","900","rdk","ArrowRight","","","","0.6","0.16000000000000003",""
"","null","","html-keyboard-response","140","166064","0.0-0.0-2.0-1.0-0.1-0.1-0.1-2.45","null","<p style='font-size: 60px; color: green'>正确!</p>","","","","","","","","","","","","","","","","","","","","","","","","","","","","","","","","","","","","","","","","","","","","","","","","",""
"","null","fixation","html-keyboard-response","141","166566","0.0-0.0-2.0-1.0-0.1-0.1-0.1-0.46","null","<p style='font-size: 48px; color: white'>+</p >","","","","","","","","","","","","","","","","","","","","","","","","","","","","","","","","","","","","","","","","","","","","","","","","",""
"","639","motion_pract","rdk","142","167207","0.0-0.0-2.0-1.0-0.1-0.1-0.1-1.46","arrowright","","true","[""ArrowLeft"",""ArrowRight""]","ArrowRight","3000","true","1","100","0","0.16000000000000003","0","5.7","1","-1","3","600","600","[""hsl(0, 50%, 50%)"",""hsl(225, 50%, 50%)""]","[""white""]","0","0","8.30724145902618","circle","black","3","2","2","16.55263157894737","[8,17,17,16,18,16,16,18,16,17,17,18,16,17,17,16,17,17,16,17,17,17,17,17,17,16,17,17,17,16,17,17,17,16,17,16,17,17]","38","716","358.5","false","20","20","black","1","false","1","1","1440","900","rdk","ArrowRight","","","","0.6","0.16000000000000003",""
"","null","","html-keyboard-response","143","167709","0.0-0.0-2.0-1.0-0.1-0.1-0.1-2.46","null","<p style='font-size: 60px; color: green'>正确!</p>","","","","","","","","","","","","","","","","","","","","","","","","","","","","","","","","","","","","","","","","","","","","","","","","",""
"","null","fixation","html-keyboard-response","144","168212","0.0-0.0-2.0-1.0-0.1-0.1-0.1-0.47","null","<p style='font-size: 48px; color: white'>+</p >","","","","","","","","","","","","","","","","","","","","","","","","","","","","","","","","","","","","","","","","","","","","","","","","",""
"","775","motion_pract","rdk","145","168988","0.0-0.0-2.0-1.0-0.1-0.1-0.1-1.47","arrowleft","","true","[""ArrowLeft"",""ArrowRight""]","ArrowLeft","3000","true","1","100","180","0.14000000000000004","0","5.7","1","-1","3","600","600","[""hsl(0, 50%, 50%)"",""hsl(225, 50%, 50%)""]","[""white""]","0","0","8.30724145902618","circle","black","3","2","2","16.73913043478261","[12,18,17,15,18,17,16,18,17,15,18,17,16,18,16,18,17,17,16,16,18,17,16,18,16,16,17,17,17,17,17,16,17,17,17,17,17,17,17,17,17,15,18,16,17,17]","46","716","358.5","false","20","20","black","1","false","1","1","1440","900","rdk","ArrowLeft","","","","0.6","0.14000000000000004",""
"","null","","html-keyboard-response","146","169489","0.0-0.0-2.0-1.0-0.1-0.1-0.1-2.47","null","<p style='font-size: 60px; color: green'>正确!</p>","","","","","","","","","","","","","","","","","","","","","","","","","","","","","","","","","","","","","","","","","","","","","","","","",""
"","null","fixation","html-keyboard-response","147","169992","0.0-0.0-2.0-1.0-0.1-0.1-0.1-0.48","null","<p style='font-size: 48px; color: white'>+</p >","","","","","","","","","","","","","","","","","","","","","","","","","","","","","","","","","","","","","","","","","","","","","","","","",""
"","818","motion_pract","rdk","148","170812","0.0-0.0-2.0-1.0-0.1-0.1-0.1-1.48","arrowleft","","true","[""ArrowLeft"",""ArrowRight""]","ArrowLeft","3000","true","1","100","180","0.14000000000000004","0","5.7","1","-1","3","600","600","[""hsl(0, 50%, 50%)"",""hsl(225, 50%, 50%)""]","[""white""]","0","0","8.30724145902618","circle","black","3","2","2","16.73469387755102","[14,16,17,17,17,16,18,16,18,17,15,18,16,18,17,16,17,17,18,17,17,16,18,16,17,17,17,17,16,18,17,17,16,16,16,18,16,17,16,17,18,16,17,17,16,18,15,18,15]","49","716","358.5","false","20","20","black","1","false","1","1","1440","900","rdk","ArrowLeft","","","","0.6","0.14000000000000004",""
"","null","","html-keyboard-response","149","171313","0.0-0.0-2.0-1.0-0.1-0.1-0.1-2.48","null","<p style='font-size: 60px; color: green'>正确!</p>","","","","","","","","","","","","","","","","","","","","","","","","","","","","","","","","","","","","","","","","","","","","","","","","",""
"","null","fixation","html-keyboard-response","150","171815","0.0-0.0-2.0-1.0-0.1-0.1-0.1-0.49","null","<p style='font-size: 48px; color: white'>+</p >","","","","","","","","","","","","","","","","","","","","","","","","","","","","","","","","","","","","","","","","","","","","","","","","",""
"","818","motion_pract","rdk","151","172635","0.0-0.0-2.0-1.0-0.1-0.1-0.1-1.49","arrowleft","","true","[""ArrowLeft"",""ArrowRight""]","ArrowLeft","3000","true","1","100","180","0.14000000000000004","0","5.7","1","-1","3","600","600","[""hsl(0, 50%, 50%)"",""hsl(225, 50%, 50%)""]","[""white""]","0","0","8.30724145902618","circle","black","3","2","2","16.9375","[24,15,18,17,17,16,17,16,17,16,18,16,18,16,17,17,17,17,15,17,16,17,16,18,17,17,16,18,17,17,17,16,17,17,16,18,17,17,17,17,17,17,16,17,16,17,17,17]","48","716","358.5","false","20","20","black","1","false","1","1","1440","900","rdk","ArrowLeft","","","","0.6","0.14000000000000004",""
"","null","","html-keyboard-response","152","173137","0.0-0.0-2.0-1.0-0.1-0.1-0.1-2.49","null","<p style='font-size: 60px; color: green'>正确!</p>","","","","","","","","","","","","","","","","","","","","","","","","","","","","","","","","","","","","","","","","","","","","","","","","",""
"","null","fixation","html-keyboard-response","153","173639","0.0-0.0-2.0-1.0-0.1-0.1-0.1-0.50","null","<p style='font-size: 48px; color: white'>+</p >","","","","","","","","","","","","","","","","","","","","","","","","","","","","","","","","","","","","","","","","","","","","","","","","",""
"","749","motion_pract","rdk","154","174389","0.0-0.0-2.0-1.0-0.1-0.1-0.1-1.50","arrowright","","true","[""ArrowLeft"",""ArrowRight""]","ArrowRight","3000","true","1","100","0","0.14000000000000004","0","5.7","1","-1","3","600","600","[""hsl(0, 50%, 50%)"",""hsl(225, 50%, 50%)""]","[""white""]","0","0","8.30724145902618","circle","black","3","2","2","16.767441860465116","[15,17,16,18,16,18,17,17,17,18,14,16,18,17,16,17,17,17,17,16,17,17,17,15,18,17,17,16,17,15,18,16,17,16,17,18,17,17,17,17,17,17,17]","43","716","358.5","false","20","20","black","1","false","1","1","1440","900","rdk","ArrowRight","","","","0.6","0.14000000000000004",""
"","null","","html-keyboard-response","155","174891","0.0-0.0-2.0-1.0-0.1-0.1-0.1-2.50","null","<p style='font-size: 60px; color: green'>正确!</p>","","","","","","","","","","","","","","","","","","","","","","","","","","","","","","","","","","","","","","","","","","","","","","","","",""
"","null","fixation","html-keyboard-response","156","175392","0.0-0.0-2.0-1.0-0.1-0.1-0.1-0.51","null","<p style='font-size: 48px; color: white'>+</p >","","","","","","","","","","","","","","","","","","","","","","","","","","","","","","","","","","","","","","","","","","","","","","","","",""
"","637","motion_pract","rdk","157","176031","0.0-0.0-2.0-1.0-0.1-0.1-0.1-1.51","arrowright","","true","[""ArrowLeft"",""ArrowRight""]","ArrowRight","3000","true","1","100","0","0.12000000000000004","0","5.7","1","-1","3","600","600","[""hsl(0, 50%, 50%)"",""hsl(225, 50%, 50%)""]","[""white""]","0","0","8.30724145902618","circle","black","3","2","2","16.657894736842106","[10,17,16,17,17,16,17,16,18,16,18,16,18,17,17,16,18,17,16,18,16,17,17,15,18,16,18,16,18,17,16,17,16,18,17,17,17,16]","38","716","358.5","false","20","20","black","1","false","1","1","1440","900","rdk","ArrowRight","","","","0.6","0.12000000000000004",""
"","null","","html-keyboard-response","158","176532","0.0-0.0-2.0-1.0-0.1-0.1-0.1-2.51","null","<p style='font-size: 60px; color: green'>正确!</p>","","","","","","","","","","","","","","","","","","","","","","","","","","","","","","","","","","","","","","","","","","","","","","","","",""
"","null","fixation","html-keyboard-response","159","177035","0.0-0.0-2.0-1.0-0.1-0.1-0.1-0.52","null","<p style='font-size: 48px; color: white'>+</p >","","","","","","","","","","","","","","","","","","","","","","","","","","","","","","","","","","","","","","","","","","","","","","","","",""
"","811","motion_pract","rdk","160","177847","0.0-0.0-2.0-1.0-0.1-0.1-0.1-1.52","arrowright","","true","[""ArrowLeft"",""ArrowRight""]","ArrowRight","3000","true","1","100","0","0.12000000000000004","0","5.7","1","-1","3","600","600","[""hsl(0, 50%, 50%)"",""hsl(225, 50%, 50%)""]","[""white""]","0","0","8.30724145902618","circle","black","3","2","2","16.833333333333332","[15,16,18,17,16,18,16,18,16,17,17,17,17,16,17,17,17,17,17,18,16,17,17,17,17,17,17,17,17,16,16,17,17,17,17,17,18,16,17,17,17,17,17,16,17,17,16,17]","48","716","358.5","false","20","20","black","1","false","1","1","1440","900","rdk","ArrowRight","","","","0.6","0.12000000000000004",""
"","null","","html-keyboard-response","161","178348","0.0-0.0-2.0-1.0-0.1-0.1-0.1-2.52","null","<p style='font-size: 60px; color: green'>正确!</p>","","","","","","","","","","","","","","","","","","","","","","","","","","","","","","","","","","","","","","","","","","","","","","","","",""
"","null","fixation","html-keyboard-response","162","178850","0.0-0.0-2.0-1.0-0.1-0.1-0.1-0.53","null","<p style='font-size: 48px; color: white'>+</p >","","","","","","","","","","","","","","","","","","","","","","","","","","","","","","","","","","","","","","","","","","","","","","","","",""
"","504","motion_pract","rdk","163","179356","0.0-0.0-2.0-1.0-0.1-0.1-0.1-1.53","arrowright","","false","[""ArrowLeft"",""ArrowRight""]","ArrowLeft","3000","true","1","100","180","0.12000000000000004","0","5.7","1","-1","3","600","600","[""hsl(0, 50%, 50%)"",""hsl(225, 50%, 50%)""]","[""white""]","0","0","8.30724145902618","circle","black","3","2","2","16.733333333333334","[17,15,17,17,16,17,17,17,17,17,17,17,16,17,17,16,17,17,17,17,16,17,17,17,17,16,17,17,16,17]","30","716","358.5","false","20","20","black","1","false","1","1","1440","900","rdk","ArrowLeft","","","","0.6","0.12000000000000004",""
"","null","","html-keyboard-response","164","179857","0.0-0.0-2.0-1.0-0.1-0.1-0.1-2.53","null","<p style='font-size: 60px; color: red'>错误!</p>","","","","","","","","","","","","","","","","","","","","","","","","","","","","","","","","","","","","","","","","","","","","","","","","",""
"","null","fixation","html-keyboard-response","165","180360","0.0-0.0-2.0-1.0-0.1-0.1-0.1-0.54","null","<p style='font-size: 48px; color: white'>+</p >","","","","","","","","","","","","","","","","","","","","","","","","","","","","","","","","","","","","","","","","","","","","","","","","",""
"","872","motion_pract","rdk","166","181233","0.0-0.0-2.0-1.0-0.1-0.1-0.1-1.54","arrowright","","false","[""ArrowLeft"",""ArrowRight""]","ArrowLeft","3000","true","1","100","180","0.14000000000000004","0","5.7","1","-1","3","600","600","[""hsl(0, 50%, 50%)"",""hsl(225, 50%, 50%)""]","[""white""]","0","0","8.30724145902618","circle","black","3","2","2","16.88235294117647","[22,16,18,18,16,17,16,18,16,18,17,17,16,17,16,18,15,18,16,17,17,16,17,17,17,17,17,16,17,16,16,17,17,17,17,16,17,17,16,18,17,17,17,17,16,17,16,17,16,17,17]","51","716","358.5","false","20","20","black","1","false","1","1","1440","900","rdk","ArrowLeft","","","","0.6","0.14000000000000004",""
"","null","","html-keyboard-response","167","181735","0.0-0.0-2.0-1.0-0.1-0.1-0.1-2.54","null","<p style='font-size: 60px; color: red'>错误!</p>","","","","","","","","","","","","","","","","","","","","","","","","","","","","","","","","","","","","","","","","","","","","","","","","",""
"","null","fixation","html-keyboard-response","168","182237","0.0-0.0-2.0-1.0-0.1-0.1-0.1-0.55","null","<p style='font-size: 48px; color: white'>+</p >","","","","","","","","","","","","","","","","","","","","","","","","","","","","","","","","","","","","","","","","","","","","","","","","",""
"","925","motion_pract","rdk","169","183163","0.0-0.0-2.0-1.0-0.1-0.1-0.1-1.55","arrowleft","","false","[""ArrowLeft"",""ArrowRight""]","ArrowRight","3000","true","1","100","0","0.16000000000000003","0","5.7","1","-1","3","600","600","[""hsl(0, 50%, 50%)"",""hsl(225, 50%, 50%)""]","[""white""]","0","0","8.30724145902618","circle","black","3","2","2","16.672727272727272","[11,17,16,17,17,17,17,17,16,18,17,17,17,16,18,16,17,17,18,16,18,15,23,10,17,18,16,17,16,17,16,16,17,18,17,15,18,17,15,17,17,17,17,17,17,17,16,16,18,17,17,16,17,16,17]","55","716","358.5","false","20","20","black","1","false","1","1","1440","900","rdk","ArrowRight","","","","0.6","0.16000000000000003",""
"","null","","html-keyboard-response","170","183665","0.0-0.0-2.0-1.0-0.1-0.1-0.1-2.55","null","<p style='font-size: 60px; color: red'>错误!</p>","","","","","","","","","","","","","","","","","","","","","","","","","","","","","","","","","","","","","","","","","","","","","","","","",""
"","null","fixation","html-keyboard-response","171","184168","0.0-0.0-2.0-1.0-0.1-0.1-0.1-0.56","null","<p style='font-size: 48px; color: white'>+</p >","","","","","","","","","","","","","","","","","","","","","","","","","","","","","","","","","","","","","","","","","","","","","","","","",""
"","743","motion_pract","rdk","172","184911","0.0-0.0-2.0-1.0-0.1-0.1-0.1-1.56","arrowleft","","true","[""ArrowLeft"",""ArrowRight""]","ArrowLeft","3000","true","1","100","180","0.18000000000000002","0","5.7","1","-1","3","600","600","[""hsl(0, 50%, 50%)"",""hsl(225, 50%, 50%)""]","[""white""]","0","0","8.30724145902618","circle","black","3","2","2","16.65909090909091","[13,18,16,17,17,15,18,16,17,17,16,17,17,17,17,16,17,17,17,16,16,17,18,16,18,16,18,16,16,17,17,16,18,16,18,16,15,17,17,17,17,16,16,18]","44","716","358.5","false","20","20","black","1","false","1","1","1440","900","rdk","ArrowLeft","","","","0.6","0.18000000000000002",""
"","null","","html-keyboard-response","173","185412","0.0-0.0-2.0-1.0-0.1-0.1-0.1-2.56","null","<p style='font-size: 60px; color: green'>正确!</p>","","","","","","","","","","","","","","","","","","","","","","","","","","","","","","","","","","","","","","","","","","","","","","","","",""
"","null","fixation","html-keyboard-response","174","185914","0.0-0.0-2.0-1.0-0.1-0.1-0.1-0.57","null","<p style='font-size: 48px; color: white'>+</p >","","","","","","","","","","","","","","","","","","","","","","","","","","","","","","","","","","","","","","","","","","","","","","","","",""
"","890","motion_pract","rdk","175","186805","0.0-0.0-2.0-1.0-0.1-0.1-0.1-1.57","arrowright","","false","[""ArrowLeft"",""ArrowRight""]","ArrowLeft","3000","true","1","100","180","0.18000000000000002","0","5.7","1","-1","3","600","600","[""hsl(0, 50%, 50%)"",""hsl(225, 50%, 50%)""]","[""white""]","0","0","8.30724145902618","circle","black","3","2","2","16.754716981132077","[15,16,17,17,17,17,16,17,16,17,18,16,18,17,17,17,17,16,17,17,17,17,17,17,17,16,17,17,17,16,18,17,17,16,18,16,18,17,16,17,16,17,17,15,17,17,17,16,17,17,17,16,16]","53","716","358.5","false","20","20","black","1","false","1","1","1440","900","rdk","ArrowLeft","","","","0.6","0.18000000000000002",""
"","null","","html-keyboard-response","176","187307","0.0-0.0-2.0-1.0-0.1-0.1-0.1-2.57","null","<p style='font-size: 60px; color: red'>错误!</p>","","","","","","","","","","","","","","","","","","","","","","","","","","","","","","","","","","","","","","","","","","","","","","","","",""
"","null","fixation","html-keyboard-response","177","187810","0.0-0.0-2.0-1.0-0.1-0.1-0.1-0.58","null","<p style='font-size: 48px; color: white'>+</p >","","","","","","","","","","","","","","","","","","","","","","","","","","","","","","","","","","","","","","","","","","","","","","","","",""
"","797","motion_pract","rdk","178","188608","0.0-0.0-2.0-1.0-0.1-0.1-0.1-1.58","arrowright","","true","[""ArrowLeft"",""ArrowRight""]","ArrowRight","3000","true","1","100","0","0.2","0","5.7","1","-1","3","600","600","[""hsl(0, 50%, 50%)"",""hsl(225, 50%, 50%)""]","[""white""]","0","0","8.30724145902618","circle","black","3","2","2","16.829787234042552","[18,16,17,17,17,16,17,17,17,17,17,17,17,17,17,17,17,16,17,17,17,17,17,17,17,17,16,17,17,17,17,17,16,17,17,17,17,17,15,18,17,15,18,16,16,17,17]","47","716","358.5","false","20","20","black","1","false","1","1","1440","900","rdk","ArrowRight","","","","0.6","0.2",""
"","null","","html-keyboard-response","179","189110","0.0-0.0-2.0-1.0-0.1-0.1-0.1-2.58","null","<p style='font-size: 60px; color: green'>正确!</p>","","","","","","","","","","","","","","","","","","","","","","","","","","","","","","","","","","","","","","","","","","","","","","","","",""
"","null","fixation","html-keyboard-response","180","189613","0.0-0.0-2.0-1.0-0.1-0.1-0.1-0.59","null","<p style='font-size: 48px; color: white'>+</p >","","","","","","","","","","","","","","","","","","","","","","","","","","","","","","","","","","","","","","","","","","","","","","","","",""
"","775","motion_pract","rdk","181","190389","0.0-0.0-2.0-1.0-0.1-0.1-0.1-1.59","arrowright","","true","[""ArrowLeft"",""ArrowRight""]","ArrowRight","3000","true","1","100","0","0.2","0","5.7","1","-1","3","600","600","[""hsl(0, 50%, 50%)"",""hsl(225, 50%, 50%)""]","[""white""]","0","0","8.30724145902618","circle","black","3","2","2","16.717391304347824","[15,16,18,17,17,17,17,16,17,16,17,16,17,17,17,17,17,17,16,17,17,16,17,16,16,16,17,18,17,16,17,17,17,15,18,17,17,16,18,16,18,16,17,16,18,16]","46","716","358.5","false","20","20","black","1","false","1","1","1440","900","rdk","ArrowRight","","","","0.6","0.2",""
"","null","","html-keyboard-response","182","190891","0.0-0.0-2.0-1.0-0.1-0.1-0.1-2.59","null","<p style='font-size: 60px; color: green'>正确!</p>","","","","","","","","","","","","","","","","","","","","","","","","","","","","","","","","","","","","","","","","","","","","","","","","",""
"","null","fixation","html-keyboard-response","183","191393","0.0-0.0-2.0-1.0-0.1-0.1-0.1-0.60","null","<p style='font-size: 48px; color: white'>+</p >","","","","","","","","","","","","","","","","","","","","","","","","","","","","","","","","","","","","","","","","","","","","","","","","",""
"","575","motion_pract","rdk","184","191970","0.0-0.0-2.0-1.0-0.1-0.1-0.1-1.60","arrowleft","","false","[""ArrowLeft"",""ArrowRight""]","ArrowRight","3000","true","1","100","0","0.2","0","5.7","1","-1","3","600","600","[""hsl(0, 50%, 50%)"",""hsl(225, 50%, 50%)""]","[""white""]","0","0","8.30724145902618","circle","black","3","2","2","16.61764705882353","[15,17,16,17,17,17,16,17,16,16,17,17,17,17,16,17,17,16,17,16,17,17,17,17,17,15,18,17,17,16,17,16,16,17]","34","716","358.5","false","20","20","black","1","false","1","1","1440","900","rdk","ArrowRight","","","","0.6","0.2",""
"","null","","html-keyboard-response","185","192470","0.0-0.0-2.0-1.0-0.1-0.1-0.1-2.60","null","<p style='font-size: 60px; color: red'>错误!</p>","","","","","","","","","","","","","","","","","","","","","","","","","","","","","","","","","","","","","","","","","","","","","","","","",""
"","null","fixation","html-keyboard-response","186","192972","0.0-0.0-2.0-1.0-0.1-0.1-0.1-0.61","null","<p style='font-size: 48px; color: white'>+</p >","","","","","","","","","","","","","","","","","","","","","","","","","","","","","","","","","","","","","","","","","","","","","","","","",""
"","794","motion_pract","rdk","187","193767","0.0-0.0-2.0-1.0-0.1-0.1-0.1-1.61","arrowright","","false","[""ArrowLeft"",""ArrowRight""]","ArrowLeft","3000","true","1","100","180","0.22","0","5.7","1","-1","3","600","600","[""hsl(0, 50%, 50%)"",""hsl(225, 50%, 50%)""]","[""white""]","0","0","8.30724145902618","circle","black","3","2","2","16.80851063829787","[19,15,16,18,16,18,16,17,17,17,17,17,17,16,16,17,17,17,17,17,17,17,17,17,17,17,17,16,17,17,17,16,17,16,16,17,18,16,17,17,17,17,17,17,17,16,16]","47","716","358.5","false","20","20","black","1","false","1","1","1440","900","rdk","ArrowLeft","","","","0.6","0.22",""
"","null","","html-keyboard-response","188","194269","0.0-0.0-2.0-1.0-0.1-0.1-0.1-2.61","null","<p style='font-size: 60px; color: red'>错误!</p>","","","","","","","","","","","","","","","","","","","","","","","","","","","","","","","","","","","","","","","","","","","","","","","","",""
"","null","fixation","html-keyboard-response","189","194770","0.0-0.0-2.0-1.0-0.1-0.1-0.1-0.62","null","<p style='font-size: 48px; color: white'>+</p >","","","","","","","","","","","","","","","","","","","","","","","","","","","","","","","","","","","","","","","","","","","","","","","","",""
"","622","motion_pract","rdk","190","195393","0.0-0.0-2.0-1.0-0.1-0.1-0.1-1.62","arrowleft","","true","[""ArrowLeft"",""ArrowRight""]","ArrowLeft","3000","true","1","100","180","0.24","0","5.7","1","-1","3","600","600","[""hsl(0, 50%, 50%)"",""hsl(225, 50%, 50%)""]","[""white""]","0","0","8.30724145902618","circle","black","3","2","2","16.864864864864863","[19,16,18,16,16,17,17,17,16,17,18,17,16,17,18,17,16,18,16,18,17,17,17,17,16,17,17,17,15,17,17,17,16,16,18,16,17]","37","716","358.5","false","20","20","black","1","false","1","1","1440","900","rdk","ArrowLeft","","","","0.6","0.24",""
"","null","","html-keyboard-response","191","195895","0.0-0.0-2.0-1.0-0.1-0.1-0.1-2.62","null","<p style='font-size: 60px; color: green'>正确!</p>","","","","","","","","","","","","","","","","","","","","","","","","","","","","","","","","","","","","","","","","","","","","","","","","",""
"","null","fixation","html-keyboard-response","192","196398","0.0-0.0-2.0-1.0-0.1-0.1-0.1-0.63","null","<p style='font-size: 48px; color: white'>+</p >","","","","","","","","","","","","","","","","","","","","","","","","","","","","","","","","","","","","","","","","","","","","","","","","",""
"","767","motion_pract","rdk","193","197167","0.0-0.0-2.0-1.0-0.1-0.1-0.1-1.63","arrowright","","true","[""ArrowLeft"",""ArrowRight""]","ArrowRight","3000","true","1","100","0","0.24","0","5.7","1","-1","3","600","600","[""hsl(0, 50%, 50%)"",""hsl(225, 50%, 50%)""]","[""white""]","0","0","8.30724145902618","circle","black","3","2","2","16.91111111111111","[23,17,16,16,17,17,18,18,16,16,18,17,15,17,18,17,17,17,17,17,16,16,16,18,16,17,17,17,16,16,18,17,17,15,18,16,17,17,17,16,17,17,16,18,16]","45","716","358.5","false","20","20","black","1","false","1","1","1440","900","rdk","ArrowRight","","","","0.6","0.24",""
"","null","","html-keyboard-response","194","197669","0.0-0.0-2.0-1.0-0.1-0.1-0.1-2.63","null","<p style='font-size: 60px; color: green'>正确!</p>","","","","","","","","","","","","","","","","","","","","","","","","","","","","","","","","","","","","","","","","","","","","","","","","",""
"","null","fixation","html-keyboard-response","195","198171","0.0-0.0-2.0-1.0-0.1-0.1-0.1-0.64","null","<p style='font-size: 48px; color: white'>+</p >","","","","","","","","","","","","","","","","","","","","","","","","","","","","","","","","","","","","","","","","","","","","","","","","",""
"","743","motion_pract","rdk","196","198915","0.0-0.0-2.0-1.0-0.1-0.1-0.1-1.64","arrowleft","","true","[""ArrowLeft"",""ArrowRight""]","ArrowLeft","3000","true","1","100","180","0.24","0","5.7","1","-1","3","600","600","[""hsl(0, 50%, 50%)"",""hsl(225, 50%, 50%)""]","[""white""]","0","0","8.30724145902618","circle","black","3","2","2","16.75","[18,17,16,17,17,17,17,15,18,17,17,17,17,16,17,16,17,17,17,17,16,18,15,17,17,17,17,17,16,17,17,16,17,17,16,17,17,17,16,17,17,16,17,16]","44","716","358.5","false","20","20","black","1","false","1","1","1440","900","rdk","ArrowLeft","","","","0.6","0.24",""
"","227","","html-keyboard-response","197","199143","0.0-0.0-2.0-1.0-0.1-0.1-0.1-2.64","arrowleft","<p style='font-size: 60px; color: green'>正确!</p>","","","","","","","","","","","","","","","","","","","","","","","","","","","","","","","","","","","","","","","","","","","","","","","","",""
"","null","fixation","html-keyboard-response","198","199644","0.0-0.0-2.0-1.0-0.1-0.1-0.1-0.65","null","<p style='font-size: 48px; color: white'>+</p >","","","","","","","","","","","","","","","","","","","","","","","","","","","","","","","","","","","","","","","","","","","","","","","","",""
"","908","motion_pract","rdk","199","200554","0.0-0.0-2.0-1.0-0.1-0.1-0.1-1.65","arrowright","","true","[""ArrowLeft"",""ArrowRight""]","ArrowRight","3000","true","1","100","0","0.24","0","5.7","1","-1","3","600","600","[""hsl(0, 50%, 50%)"",""hsl(225, 50%, 50%)""]","[""white""]","0","0","8.30724145902618","circle","black","3","2","2","16.88679245283019","[24,17,16,17,17,17,17,17,17,17,16,17,17,17,17,16,17,17,16,17,16,18,16,17,17,17,17,16,17,16,17,16,17,17,17,17,17,17,16,18,17,15,18,16,18,17,16,17,15,17,17,16,17]","53","716","358.5","false","20","20","black","1","false","1","1","1440","900","rdk","ArrowRight","","","","0.6","0.24",""
"","null","","html-keyboard-response","200","201056","0.0-0.0-2.0-1.0-0.1-0.1-0.1-2.65","null","<p style='font-size: 60px; color: green'>正确!</p>","","","","","","","","","","","","","","","","","","","","","","","","","","","","","","","","","","","","","","","","","","","","","","","","",""
"","null","fixation","html-keyboard-response","201","201559","0.0-0.0-2.0-1.0-0.1-0.1-0.1-0.66","null","<p style='font-size: 48px; color: white'>+</p >","","","","","","","","","","","","","","","","","","","","","","","","","","","","","","","","","","","","","","","","","","","","","","","","",""
"","865","motion_pract","rdk","202","202424","0.0-0.0-2.0-1.0-0.1-0.1-0.1-1.66","arrowright","","true","[""ArrowLeft"",""ArrowRight""]","ArrowRight","3000","true","1","100","0","0.22","0","5.7","1","-1","3","600","600","[""hsl(0, 50%, 50%)"",""hsl(225, 50%, 50%)""]","[""white""]","0","0","8.30724145902618","circle","black","3","2","2","17.3","[45,16,17,17,17,18,16,17,16,17,17,16,18,17,16,16,17,17,17,15,18,16,18,15,17,17,15,18,17,16,17,18,15,18,17,15,18,17,17,17,15,18,15,18,17,17,17,17,17,16]","50","716","358.5","false","20","20","black","1","false","1","1","1440","900","rdk","ArrowRight","","","","0.6","0.22",""
"","null","","html-keyboard-response","203","202926","0.0-0.0-2.0-1.0-0.1-0.1-0.1-2.66","null","<p style='font-size: 60px; color: green'>正确!</p>","","","","","","","","","","","","","","","","","","","","","","","","","","","","","","","","","","","","","","","","","","","","","","","","",""
"","null","fixation","html-keyboard-response","204","203428","0.0-0.0-2.0-1.0-0.1-0.1-0.1-0.67","null","<p style='font-size: 48px; color: white'>+</p >","","","","","","","","","","","","","","","","","","","","","","","","","","","","","","","","","","","","","","","","","","","","","","","","",""
"","800","motion_pract","rdk","205","204229","0.0-0.0-2.0-1.0-0.1-0.1-0.1-1.67","arrowleft","","true","[""ArrowLeft"",""ArrowRight""]","ArrowLeft","3000","true","1","100","180","0.22","0","5.7","1","-1","3","600","600","[""hsl(0, 50%, 50%)"",""hsl(225, 50%, 50%)""]","[""white""]","0","0","8.30724145902618","circle","black","3","2","2","16.95744680851064","[22,17,18,17,16,17,15,18,16,18,15,18,16,18,17,16,18,17,17,17,17,16,17,17,16,17,17,18,17,15,18,17,16,18,17,17,16,18,17,17,17,15,18,17,17,17,15]","47","716","358.5","false","20","20","black","1","false","1","1","1440","900","rdk","ArrowLeft","","","","0.6","0.22",""
"","null","","html-keyboard-response","206","204732","0.0-0.0-2.0-1.0-0.1-0.1-0.1-2.67","null","<p style='font-size: 60px; color: green'>正确!</p>","","","","","","","","","","","","","","","","","","","","","","","","","","","","","","","","","","","","","","","","","","","","","","","","",""
"","null","fixation","html-keyboard-response","207","205234","0.0-0.0-2.0-1.0-0.1-0.1-0.1-0.68","null","<p style='font-size: 48px; color: white'>+</p >","","","","","","","","","","","","","","","","","","","","","","","","","","","","","","","","","","","","","","","","","","","","","","","","",""
"","916","motion_pract","rdk","208","206151","0.0-0.0-2.0-1.0-0.1-0.1-0.1-1.68","arrowleft","","true","[""ArrowLeft"",""ArrowRight""]","ArrowLeft","3000","true","1","100","180","0.22","0","5.7","1","-1","3","600","600","[""hsl(0, 50%, 50%)"",""hsl(225, 50%, 50%)""]","[""white""]","0","0","8.30724145902618","circle","black","3","2","2","16.703703703703702","[16,16,16,17,17,16,17,17,17,16,18,16,17,16,18,16,18,16,17,17,17,17,16,17,15,17,17,17,16,17,17,17,17,17,16,17,17,17,16,17,17,17,17,17,17,17,17,15,17,17,17,16,18,15]","54","716","358.5","false","20","20","black","1","false","1","1","1440","900","rdk","ArrowLeft","","","","0.6","0.22",""
"","null","","html-keyboard-response","209","206652","0.0-0.0-2.0-1.0-0.1-0.1-0.1-2.68","null","<p style='font-size: 60px; color: green'>正确!</p>","","","","","","","","","","","","","","","","","","","","","","","","","","","","","","","","","","","","","","","","","","","","","","","","",""
"","null","fixation","html-keyboard-response","210","207154","0.0-0.0-2.0-1.0-0.1-0.1-0.1-0.69","null","<p style='font-size: 48px; color: white'>+</p >","","","","","","","","","","","","","","","","","","","","","","","","","","","","","","","","","","","","","","","","","","","","","","","","",""
"","840","motion_pract","rdk","211","207996","0.0-0.0-2.0-1.0-0.1-0.1-0.1-1.69","arrowright","","true","[""ArrowLeft"",""ArrowRight""]","ArrowRight","3000","true","1","100","0","0.22","0","5.7","1","-1","3","600","600","[""hsl(0, 50%, 50%)"",""hsl(225, 50%, 50%)""]","[""white""]","0","0","8.30724145902618","circle","black","3","2","2","16.64","[10,17,17,15,17,17,16,16,17,17,16,17,17,17,16,17,17,17,17,16,17,17,17,17,17,17,16,18,16,17,17,16,18,17,17,16,17,17,16,17,16,18,17,17,17,17,17,17,16,17]","50","716","358.5","false","20","20","black","1","false","1","1","1440","900","rdk","ArrowRight","","","","0.6","0.22",""
"","null","","html-keyboard-response","212","208497","0.0-0.0-2.0-1.0-0.1-0.1-0.1-2.69","null","<p style='font-size: 60px; color: green'>正确!</p>","","","","","","","","","","","","","","","","","","","","","","","","","","","","","","","","","","","","","","","","","","","","","","","","",""
"","null","fixation","html-keyboard-response","213","209000","0.0-0.0-2.0-1.0-0.1-0.1-0.1-0.70","null","<p style='font-size: 48px; color: white'>+</p >","","","","","","","","","","","","","","","","","","","","","","","","","","","","","","","","","","","","","","","","","","","","","","","","",""
"","678","motion_pract","rdk","214","209679","0.0-0.0-2.0-1.0-0.1-0.1-0.1-1.70","arrowleft","","true","[""ArrowLeft"",""ArrowRight""]","ArrowLeft","3000","true","1","100","180","0.2","0","5.7","1","-1","3","600","600","[""hsl(0, 50%, 50%)"",""hsl(225, 50%, 50%)""]","[""white""]","0","0","8.30724145902618","circle","black","3","2","2","16.7","[14,16,17,17,16,18,17,17,17,16,17,17,17,17,15,17,16,18,17,17,17,16,17,17,17,17,17,16,18,16,17,17,16,16,18,17,17,16,16,17]","40","716","358.5","false","20","20","black","1","false","1","1","1440","900","rdk","ArrowLeft","","","","0.6","0.2",""
"","null","","html-keyboard-response","215","210180","0.0-0.0-2.0-1.0-0.1-0.1-0.1-2.70","null","<p style='font-size: 60px; color: green'>正确!</p>","","","","","","","","","","","","","","","","","","","","","","","","","","","","","","","","","","","","","","","","","","","","","","","","",""
"","null","fixation","html-keyboard-response","216","210682","0.0-0.0-2.0-1.0-0.1-0.1-0.1-0.71","null","<p style='font-size: 48px; color: white'>+</p >","","","","","","","","","","","","","","","","","","","","","","","","","","","","","","","","","","","","","","","","","","","","","","","","",""
"","826","motion_pract","rdk","217","211510","0.0-0.0-2.0-1.0-0.1-0.1-0.1-1.71","arrowright","","true","[""ArrowLeft"",""ArrowRight""]","ArrowRight","3000","true","1","100","0","0.2","0","5.7","1","-1","3","600","600","[""hsl(0, 50%, 50%)"",""hsl(225, 50%, 50%)""]","[""white""]","0","0","8.30724145902618","circle","black","3","2","2","16.632653061224488","[12,18,17,17,17,15,18,17,16,17,18,16,16,17,17,17,15,18,15,18,16,16,17,17,17,17,17,16,17,16,17,17,17,16,17,17,16,16,18,17,17,17,17,15,17,16,18,17,16]","49","716","358.5","false","20","20","black","1","false","1","1","1440","900","rdk","ArrowRight","","","","0.6","0.2",""
"","null","","html-keyboard-response","218","212011","0.0-0.0-2.0-1.0-0.1-0.1-0.1-2.71","null","<p style='font-size: 60px; color: green'>正确!</p>","","","","","","","","","","","","","","","","","","","","","","","","","","","","","","","","","","","","","","","","","","","","","","","","",""
"","null","fixation","html-keyboard-response","219","212514","0.0-0.0-2.0-1.0-0.1-0.1-0.1-0.72","null","<p style='font-size: 48px; color: white'>+</p >","","","","","","","","","","","","","","","","","","","","","","","","","","","","","","","","","","","","","","","","","","","","","","","","",""
"","778","motion_pract","rdk","220","213294","0.0-0.0-2.0-1.0-0.1-0.1-0.1-1.72","arrowright","","true","[""ArrowLeft"",""ArrowRight""]","ArrowRight","3000","true","1","100","0","0.2","0","5.7","1","-1","3","600","600","[""hsl(0, 50%, 50%)"",""hsl(225, 50%, 50%)""]","[""white""]","0","0","8.30724145902618","circle","black","3","2","2","16.652173913043477","[13,16,17,16,16,16,17,18,17,17,16,17,17,16,17,17,16,17,17,18,17,17,16,17,17,16,16,18,17,16,16,18,16,17,17,17,15,17,17,17,17,16,17,17,17,17]","46","716","358.5","false","20","20","black","1","false","1","1","1440","900","rdk","ArrowRight","","","","0.6","0.2",""
"","null","","html-keyboard-response","221","213796","0.0-0.0-2.0-1.0-0.1-0.1-0.1-2.72","null","<p style='font-size: 60px; color: green'>正确!</p>","","","","","","","","","","","","","","","","","","","","","","","","","","","","","","","","","","","","","","","","","","","","","","","","",""
"","null","fixation","html-keyboard-response","222","214298","0.0-0.0-2.0-1.0-0.1-0.1-0.1-0.73","null","<p style='font-size: 48px; color: white'>+</p >","","","","","","","","","","","","","","","","","","","","","","","","","","","","","","","","","","","","","","","","","","","","","","","","",""
"","689","motion_pract","rdk","223","214990","0.0-0.0-2.0-1.0-0.1-0.1-0.1-1.73","arrowleft","","true","[""ArrowLeft"",""ArrowRight""]","ArrowLeft","3000","true","1","100","180","0.2","0","5.7","1","-1","3","600","600","[""hsl(0, 50%, 50%)"",""hsl(225, 50%, 50%)""]","[""white""]","0","0","8.30724145902618","circle","black","3","2","2","16.634146341463413","[10,18,16,17,17,17,18,17,17,17,17,16,17,16,17,17,17,15,17,18,16,16,18,16,17,16,17,16,17,17,17,16,17,16,18,17,17,17,16,18,16]","41","716","358.5","false","20","20","black","1","false","1","1","1440","900","rdk","ArrowLeft","","","","0.6","0.2",""
"","null","","html-keyboard-response","224","215491","0.0-0.0-2.0-1.0-0.1-0.1-0.1-2.73","null","<p style='font-size: 60px; color: green'>正确!</p>","","","","","","","","","","","","","","","","","","","","","","","","","","","","","","","","","","","","","","","","","","","","","","","","",""
"","null","fixation","html-keyboard-response","225","215993","0.0-0.0-2.0-1.0-0.1-0.1-0.1-0.74","null","<p style='font-size: 48px; color: white'>+</p >","","","","","","","","","","","","","","","","","","","","","","","","","","","","","","","","","","","","","","","","","","","","","","","","",""
"","796","motion_pract","rdk","226","216791","0.0-0.0-2.0-1.0-0.1-0.1-0.1-1.74","arrowright","","true","[""ArrowLeft"",""ArrowRight""]","ArrowRight","3000","true","1","100","0","0.18000000000000002","0","5.7","1","-1","3","600","600","[""hsl(0, 50%, 50%)"",""hsl(225, 50%, 50%)""]","[""white""]","0","0","8.30724145902618","circle","black","3","2","2","16.829787234042552","[16,16,17,17,18,15,17,17,17,17,17,17,17,17,17,17,17,17,17,17,17,17,17,16,17,17,16,17,17,17,17,17,17,17,17,17,16,17,17,17,17,17,17,17,16,16,17]","47","716","358.5","false","20","20","black","1","false","1","1","1440","900","rdk","ArrowRight","","","","0.6","0.18000000000000002",""
"","null","","html-keyboard-response","227","217292","0.0-0.0-2.0-1.0-0.1-0.1-0.1-2.74","null","<p style='font-size: 60px; color: green'>正确!</p>","","","","","","","","","","","","","","","","","","","","","","","","","","","","","","","","","","","","","","","","","","","","","","","","",""
"","null","fixation","html-keyboard-response","228","217795","0.0-0.0-2.0-1.0-0.1-0.1-0.1-0.75","null","<p style='font-size: 48px; color: white'>+</p >","","","","","","","","","","","","","","","","","","","","","","","","","","","","","","","","","","","","","","","","","","","","","","","","",""
"","639","motion_pract","rdk","229","218435","0.0-0.0-2.0-1.0-0.1-0.1-0.1-1.75","arrowleft","","true","[""ArrowLeft"",""ArrowRight""]","ArrowLeft","3000","true","1","100","180","0.18000000000000002","0","5.7","1","-1","3","600","600","[""hsl(0, 50%, 50%)"",""hsl(225, 50%, 50%)""]","[""white""]","0","0","8.30724145902618","circle","black","3","2","2","16.657894736842106","[12,17,17,16,18,17,17,18,14,18,17,17,16,17,17,16,18,17,16,17,16,17,17,17,17,17,17,17,17,15,18,17,17,16,17,16,18,15]","38","716","358.5","false","20","20","black","1","false","1","1","1440","900","rdk","ArrowLeft","","","","0.6","0.18000000000000002",""
"","null","","html-keyboard-response","230","218937","0.0-0.0-2.0-1.0-0.1-0.1-0.1-2.75","null","<p style='font-size: 60px; color: green'>正确!</p>","","","","","","","","","","","","","","","","","","","","","","","","","","","","","","","","","","","","","","","","","","","","","","","","",""
"","null","fixation","html-keyboard-response","231","219439","0.0-0.0-2.0-1.0-0.1-0.1-0.1-0.76","null","<p style='font-size: 48px; color: white'>+</p >","","","","","","","","","","","","","","","","","","","","","","","","","","","","","","","","","","","","","","","","","","","","","","","","",""
"","1259","motion_pract","rdk","232","220700","0.0-0.0-2.0-1.0-0.1-0.1-0.1-1.76","arrowright","","true","[""ArrowLeft"",""ArrowRight""]","ArrowRight","3000","true","1","100","0","0.18000000000000002","0","5.7","1","-1","3","600","600","[""hsl(0, 50%, 50%)"",""hsl(225, 50%, 50%)""]","[""white""]","0","0","8.30724145902618","circle","black","3","2","2","16.813333333333333","[18,17,17,17,17,16,17,16,16,18,17,16,17,17,17,16,17,17,17,17,17,16,16,17,17,17,17,17,17,17,17,17,16,16,18,17,16,17,17,17,16,17,17,17,16,18,16,17,17,17,17,17,17,17,17,17,17,17,17,17,16,17,17,16,17,17,16,17,17,16,16,18,17,16,17]","75","716","358.5","false","20","20","black","1","false","1","1","1440","900","rdk","ArrowRight","","","","0.6","0.18000000000000002",""
"","null","","html-keyboard-response","233","221201","0.0-0.0-2.0-1.0-0.1-0.1-0.1-2.76","null","<p style='font-size: 60px; color: green'>正确!</p>","","","","","","","","","","","","","","","","","","","","","","","","","","","","","","","","","","","","","","","","","","","","","","","","",""
"","null","fixation","html-keyboard-response","234","221703","0.0-0.0-2.0-1.0-0.1-0.1-0.1-0.77","null","<p style='font-size: 48px; color: white'>+</p >","","","","","","","","","","","","","","","","","","","","","","","","","","","","","","","","","","","","","","","","","","","","","","","","",""
"","1324","motion_pract","rdk","235","223029","0.0-0.0-2.0-1.0-0.1-0.1-0.1-1.77","arrowleft","","true","[""ArrowLeft"",""ArrowRight""]","ArrowLeft","3000","true","1","100","180","0.18000000000000002","0","5.7","1","-1","3","600","600","[""hsl(0, 50%, 50%)"",""hsl(225, 50%, 50%)""]","[""white""]","0","0","8.30724145902618","circle","black","3","2","2","16.78481012658228","[17,18,17,16,18,17,17,17,16,17,17,17,16,16,18,16,16,18,17,16,17,16,17,16,17,17,17,17,16,17,16,18,16,17,17,17,17,17,17,16,18,15,17,17,17,17,17,16,17,17,17,17,17,16,16,18,15,17,17,17,16,16,17,18,17,17,16,17,17,17,16,16,18,17,17,17,17,17,16]","79","716","358.5","false","20","20","black","1","false","1","1","1440","900","rdk","ArrowLeft","","","","0.6","0.18000000000000002",""
"","null","","html-keyboard-response","236","223531","0.0-0.0-2.0-1.0-0.1-0.1-0.1-2.77","null","<p style='font-size: 60px; color: green'>正确!</p>","","","","","","","","","","","","","","","","","","","","","","","","","","","","","","","","","","","","","","","","","","","","","","","","",""
