"success","rt","part","trial_type","trial_index","time_elapsed","internal_node_id","response","stimulus","correct","choices","correct_choice","trial_duration","response_ends_trial","number_of_apertures","number_of_dots","coherent_direction","coherence","opposite_coherence","dot_radius","dot_side_length","dot_life","move_distance","aperture_width","aperture_height","dot_color","dot_color_final","color_change_delay","target_color_proportion","motion_change_delay","dot_shape","background_color","RDK_type","aperture_type","reinsert_type","frame_rate","frame_rate_array","number_of_frames","aperture_center_x","aperture_center_y","fixation_cross","fixation_cross_width","fixation_cross_height","fixation_cross_color","fixation_cross_thickness","border","border_thickness","border_color","canvas_width","canvas_height","task","correct_responce","revs","correctNum","totalTrials","proportionColor","proportionMotion","data_label"
"true","1772","fullScreen","fullscreen","0","2787","0.0-0.0-0.0","","","","","","","","","","","","","","","","","","","","","","","","","","","","","","","","","","","","","","","","","","","","","","","","","","",""
"","7834","survey","survey","1","10725","0.0-0.0-1.0","{""sex"":""女"",""age"":23,""hands"":""右"",""color_blindness"":""都不是""}","","","","","","","","","","","","","","","","","","","","","","","","","","","","","","","","","","","","","","","","","","","","","","","","","",""
"","2962","pract_color","html-keyboard-response","2","13690","0.0-0.0-2.0-0.0-0.0"," ","
    <div style=""text-align: left; color: white; padding: 10px""> 
      <h3 style=""text-align: center; font-size: 30px; margin: 10px"">颜色判断任务</h3> 
      <p>接下来，屏幕上会呈现一些运动的圆点，其中一半为 <span style=""color: hsl(0, 50%, 50%)"">红色</span> ，一半为 <span style=""color: hsl(225, 50%, 50%)"">蓝色</span>，</p>
        <p><span style=""font-weight: bold"">大约0.2秒后,</span>  一部分点会随机变为另一种颜色（例如从红色变为蓝色），变化后某种颜色的数量会超过另一种。</p >
        <p>您需要又快又准地判断判断 <span style=""font-weight: bold"">变化后，散点图的整体颜色（即大多数点的颜色）是红色还是蓝色 </span>：</p >
        <ul>
          <li>整体为 <span style=""color: hsl(0, 50%, 50%)"">红色</span>，请按键盘 <span style=""color: hsl(0, 50%, 50%)"">""D"" 键</span></li>
          <li>整体为 <span style=""color: hsl(225, 50%, 50%)"">蓝色</span>，请按键盘 <span style=""color: hsl(225, 50%, 50%)"">""k"" 键</span> </li>
        </ul>
        <p>请按下空格键进入练习阶段</p>
      </div>","","","","","","","","","","","","","","","","","","","","","","","","","","","","","","","","","","","","","","","","","","","","","","","","",""
"","null","fixation","html-keyboard-response","3","14207","0.0-0.0-2.0-0.0-1.0-0.0-0.0-0.0","null","<p style='font-size: 48px; color: white'>+</p >","","","","","","","","","","","","","","","","","","","","","","","","","","","","","","","","","","","","","","","","","","","","","","","","",""
"","836","color_pract","rdk","4","15052","0.0-0.0-2.0-0.0-1.0-0.0-0.0-1.0","k","","true","[""d"",""k""]","k","3000","true","1","100","0","0","0","5.7","1","-1","3","600","600","[""hsl(0, 50%, 50%)"",""hsl(225, 50%, 50%)""]","[""hsl(225, 50%, 50%)"",""hsl(0, 50%, 50%)""]","7.6017647737322385","0.6","0","circle","black","3","2","2","16.244897959183675","[4,9,18,14,17,16,17,17,18,16,17,16,16,17,17,16,17,17,16,17,18,16,17,16,18,15,18,16,17,18,16,17,16,16,17,16,17,17,16,18,16,17,16,17,17,17,17,18,14]","49","716","417","false","20","20","black","1","false","1","1","1440","960","rdk","k","","","","0.6","0.24",""
"","null","","html-keyboard-response","5","15563","0.0-0.0-2.0-0.0-1.0-0.0-0.0-2.0","null","<p style='font-size: 60px; color: green'>正确!</p>","","","","","","","","","","","","","","","","","","","","","","","","","","","","","","","","","","","","","","","","","","","","","","","","",""
"","null","fixation","html-keyboard-response","6","16073","0.0-0.0-2.0-0.0-1.0-0.0-0.0-0.1","null","<p style='font-size: 48px; color: white'>+</p >","","","","","","","","","","","","","","","","","","","","","","","","","","","","","","","","","","","","","","","","","","","","","","","","",""
"","609","color_pract","rdk","7","16684","0.0-0.0-2.0-0.0-1.0-0.0-0.0-1.1","d","","true","[""d"",""k""]","d","3000","true","1","100","0","0","0","5.7","1","-1","3","600","600","[""hsl(0, 50%, 50%)"",""hsl(225, 50%, 50%)""]","[""hsl(0, 50%, 50%)"",""hsl(225, 50%, 50%)""]","7.6017647737322385","0.6","0","circle","black","3","2","2","16.583333333333332","[11,19,15,16,18,16,17,17,17,17,16,17,17,17,16,17,17,17,17,17,16,17,17,16,17,17,16,17,16,18,16,16,17,16,17,17]","36","716","417","false","20","20","black","1","false","1","1","1440","960","rdk","d","","","","0.6","0.24",""
"","null","","html-keyboard-response","8","17187","0.0-0.0-2.0-0.0-1.0-0.0-0.0-2.1","null","<p style='font-size: 60px; color: green'>正确!</p>","","","","","","","","","","","","","","","","","","","","","","","","","","","","","","","","","","","","","","","","","","","","","","","","",""
"","null","fixation","html-keyboard-response","9","17690","0.0-0.0-2.0-0.0-1.0-0.0-0.0-0.2","null","<p style='font-size: 48px; color: white'>+</p >","","","","","","","","","","","","","","","","","","","","","","","","","","","","","","","","","","","","","","","","","","","","","","","","",""
"","621","color_pract","rdk","10","18313","0.0-0.0-2.0-0.0-1.0-0.0-0.0-1.2","d","","true","[""d"",""k""]","d","3000","true","1","100","0","0","0","5.7","1","-1","3","600","600","[""hsl(0, 50%, 50%)"",""hsl(225, 50%, 50%)""]","[""hsl(0, 50%, 50%)"",""hsl(225, 50%, 50%)""]","7.6017647737322385","0.6","0","circle","black","3","2","2","16.64864864864865","[12,17,17,17,17,17,17,16,17,17,17,17,16,17,17,17,17,16,16,17,17,17,17,17,17,17,17,16,16,17,17,17,17,16,17,16,17]","37","716","417","false","20","20","black","1","false","1","1","1440","960","rdk","d","","","","0.6","0.24",""
"","null","","html-keyboard-response","11","18820","0.0-0.0-2.0-0.0-1.0-0.0-0.0-2.2","null","<p style='font-size: 60px; color: green'>正确!</p>","","","","","","","","","","","","","","","","","","","","","","","","","","","","","","","","","","","","","","","","","","","","","","","","",""
"","null","fixation","html-keyboard-response","12","19336","0.0-0.0-2.0-0.0-1.0-0.0-0.0-0.3","null","<p style='font-size: 48px; color: white'>+</p >","","","","","","","","","","","","","","","","","","","","","","","","","","","","","","","","","","","","","","","","","","","","","","","","",""
"","690","color_pract","rdk","13","20029","0.0-0.0-2.0-0.0-1.0-0.0-0.0-1.3","k","","true","[""d"",""k""]","k","3000","true","1","100","0","0","0","5.7","1","-1","3","600","600","[""hsl(0, 50%, 50%)"",""hsl(225, 50%, 50%)""]","[""hsl(225, 50%, 50%)"",""hsl(0, 50%, 50%)""]","7.6017647737322385","0.6","0","circle","black","3","2","2","16.829268292682926","[15,18,17,16,17,17,16,17,17,17,17,17,17,17,16,16,17,17,17,17,16,17,17,17,16,17,17,17,17,17,17,17,17,17,17,17,17,17,17,16,18]","41","716","417","false","20","20","black","1","false","1","1","1440","960","rdk","k","","","","0.6","0.24",""
"","null","","html-keyboard-response","14","20534","0.0-0.0-2.0-0.0-1.0-0.0-0.0-2.3","null","<p style='font-size: 60px; color: green'>正确!</p>","","","","","","","","","","","","","","","","","","","","","","","","","","","","","","","","","","","","","","","","","","","","","","","","",""
"","null","fixation","html-keyboard-response","15","21043","0.0-0.0-2.0-0.0-1.0-0.0-0.0-0.4","null","<p style='font-size: 48px; color: white'>+</p >","","","","","","","","","","","","","","","","","","","","","","","","","","","","","","","","","","","","","","","","","","","","","","","","",""
"","1007","color_pract","rdk","16","22051","0.0-0.0-2.0-0.0-1.0-0.0-0.0-1.4","k","","true","[""d"",""k""]","k","3000","true","1","100","0","0","0","5.7","1","-1","3","600","600","[""hsl(0, 50%, 50%)"",""hsl(225, 50%, 50%)""]","[""hsl(225, 50%, 50%)"",""hsl(0, 50%, 50%)""]","7.6017647737322385","0.58","0","circle","black","3","2","2","16.616666666666667","[7,17,16,17,16,17,17,17,17,17,17,16,17,17,17,17,16,17,17,17,17,16,17,17,17,17,17,17,17,16,17,17,17,16,17,17,17,17,17,17,16,17,17,16,17,17,17,17,17,16,17,17,16,17,16,17,16,17,17,17]","60","716","417","false","20","20","black","1","false","1","1","1440","960","rdk","k","","","","0.58","0.24",""
"","null","","html-keyboard-response","17","22559","0.0-0.0-2.0-0.0-1.0-0.0-0.0-2.4","null","<p style='font-size: 60px; color: green'>正确!</p>","","","","","","","","","","","","","","","","","","","","","","","","","","","","","","","","","","","","","","","","","","","","","","","","",""
"","null","fixation","html-keyboard-response","18","23069","0.0-0.0-2.0-0.0-1.0-0.0-0.0-0.5","null","<p style='font-size: 48px; color: white'>+</p >","","","","","","","","","","","","","","","","","","","","","","","","","","","","","","","","","","","","","","","","","","","","","","","","",""
"","594","color_pract","rdk","19","23666","0.0-0.0-2.0-0.0-1.0-0.0-0.0-1.5","d","","true","[""d"",""k""]","d","3000","true","1","100","0","0","0","5.7","1","-1","3","600","600","[""hsl(0, 50%, 50%)"",""hsl(225, 50%, 50%)""]","[""hsl(0, 50%, 50%)"",""hsl(225, 50%, 50%)""]","7.6017647737322385","0.58","0","circle","black","3","2","2","16.65714285714286","[21,9,17,17,17,17,16,17,17,16,17,17,17,17,17,16,17,17,16,17,17,16,17,16,17,18,15,17,17,16,17,17,17,17,17]","35","716","417","false","20","20","black","1","false","1","1","1440","960","rdk","d","","","","0.58","0.24",""
"","null","","html-keyboard-response","20","24170","0.0-0.0-2.0-0.0-1.0-0.0-0.0-2.5","null","<p style='font-size: 60px; color: green'>正确!</p>","","","","","","","","","","","","","","","","","","","","","","","","","","","","","","","","","","","","","","","","","","","","","","","","",""
"","null","fixation","html-keyboard-response","21","24686","0.0-0.0-2.0-0.0-1.0-0.0-0.0-0.6","null","<p style='font-size: 48px; color: white'>+</p >","","","","","","","","","","","","","","","","","","","","","","","","","","","","","","","","","","","","","","","","","","","","","","","","",""
"","696","color_pract","rdk","22","25384","0.0-0.0-2.0-0.0-1.0-0.0-0.0-1.6","k","","true","[""d"",""k""]","k","3000","true","1","100","0","0","0","5.7","1","-1","3","600","600","[""hsl(0, 50%, 50%)"",""hsl(225, 50%, 50%)""]","[""hsl(225, 50%, 50%)"",""hsl(0, 50%, 50%)""]","7.6017647737322385","0.58","0","circle","black","3","2","2","16.804878048780488","[16,17,17,17,16,17,17,17,16,17,17,17,16,17,17,17,16,16,17,18,17,17,17,17,17,17,16,16,17,17,17,17,16,17,17,17,17,17,16,17,18]","41","716","417","false","20","20","black","1","false","1","1","1440","960","rdk","k","","","","0.58","0.24",""
"","null","","html-keyboard-response","23","25900","0.0-0.0-2.0-0.0-1.0-0.0-0.0-2.6","null","<p style='font-size: 60px; color: green'>正确!</p>","","","","","","","","","","","","","","","","","","","","","","","","","","","","","","","","","","","","","","","","","","","","","","","","",""
"","null","fixation","html-keyboard-response","24","26411","0.0-0.0-2.0-0.0-1.0-0.0-0.0-0.7","null","<p style='font-size: 48px; color: white'>+</p >","","","","","","","","","","","","","","","","","","","","","","","","","","","","","","","","","","","","","","","","","","","","","","","","",""
"","586","color_pract","rdk","25","27000","0.0-0.0-2.0-0.0-1.0-0.0-0.0-1.7","d","","true","[""d"",""k""]","d","3000","true","1","100","0","0","0","5.7","1","-1","3","600","600","[""hsl(0, 50%, 50%)"",""hsl(225, 50%, 50%)""]","[""hsl(0, 50%, 50%)"",""hsl(225, 50%, 50%)""]","7.6017647737322385","0.58","0","circle","black","3","2","2","16.485714285714284","[5,18,17,17,16,17,17,17,17,17,16,17,16,17,17,16,17,16,18,17,23,10,18,16,17,17,17,16,17,17,16,17,17,17,17]","35","716","417","false","20","20","black","1","false","1","1","1440","960","rdk","d","","","","0.58","0.24",""
"","null","","html-keyboard-response","26","27504","0.0-0.0-2.0-0.0-1.0-0.0-0.0-2.7","null","<p style='font-size: 60px; color: green'>正确!</p>","","","","","","","","","","","","","","","","","","","","","","","","","","","","","","","","","","","","","","","","","","","","","","","","",""
"","null","fixation","html-keyboard-response","27","28020","0.0-0.0-2.0-0.0-1.0-0.0-0.0-0.8","null","<p style='font-size: 48px; color: white'>+</p >","","","","","","","","","","","","","","","","","","","","","","","","","","","","","","","","","","","","","","","","","","","","","","","","",""
"","791","color_pract","rdk","28","28814","0.0-0.0-2.0-0.0-1.0-0.0-0.0-1.8","d","","true","[""d"",""k""]","d","3000","true","1","100","0","0","0","5.7","1","-1","3","600","600","[""hsl(0, 50%, 50%)"",""hsl(225, 50%, 50%)""]","[""hsl(0, 50%, 50%)"",""hsl(225, 50%, 50%)""]","7.6017647737322385","0.5599999999999999","0","circle","black","3","2","2","16.80851063829787","[14,16,17,17,17,16,17,18,16,17,17,17,16,17,17,17,17,17,17,17,17,17,17,17,17,17,17,17,17,17,16,17,17,17,17,17,17,17,16,17,16,17,17,17,17,17,17]","47","716","417","false","20","20","black","1","false","1","1","1440","960","rdk","d","","","","0.5599999999999999","0.24",""
"","null","","html-keyboard-response","29","29316","0.0-0.0-2.0-0.0-1.0-0.0-0.0-2.8","null","<p style='font-size: 60px; color: green'>正确!</p>","","","","","","","","","","","","","","","","","","","","","","","","","","","","","","","","","","","","","","","","","","","","","","","","",""
"","null","fixation","html-keyboard-response","30","29826","0.0-0.0-2.0-0.0-1.0-0.0-0.0-0.9","null","<p style='font-size: 48px; color: white'>+</p >","","","","","","","","","","","","","","","","","","","","","","","","","","","","","","","","","","","","","","","","","","","","","","","","",""
"","885","color_pract","rdk","31","30713","0.0-0.0-2.0-0.0-1.0-0.0-0.0-1.9","k","","true","[""d"",""k""]","k","3000","true","1","100","0","0","0","5.7","1","-1","3","600","600","[""hsl(0, 50%, 50%)"",""hsl(225, 50%, 50%)""]","[""hsl(225, 50%, 50%)"",""hsl(0, 50%, 50%)""]","7.6017647737322385","0.5599999999999999","0","circle","black","3","2","2","16.566037735849058","[8,18,17,16,16,16,16,17,17,16,17,16,17,16,17,17,17,17,17,17,17,16,17,16,17,16,17,17,17,16,17,16,17,17,17,17,17,17,17,16,17,18,16,17,17,17,17,17,16,17,17,16,17]","53","716","417","false","20","20","black","1","false","1","1","1440","960","rdk","k","","","","0.5599999999999999","0.24",""
"","null","","html-keyboard-response","32","31225","0.0-0.0-2.0-0.0-1.0-0.0-0.0-2.9","null","<p style='font-size: 60px; color: green'>正确!</p>","","","","","","","","","","","","","","","","","","","","","","","","","","","","","","","","","","","","","","","","","","","","","","","","",""
"","null","fixation","html-keyboard-response","33","31740","0.0-0.0-2.0-0.0-1.0-0.0-0.0-0.10","null","<p style='font-size: 48px; color: white'>+</p >","","","","","","","","","","","","","","","","","","","","","","","","","","","","","","","","","","","","","","","","","","","","","","","","",""
"","728","color_pract","rdk","34","32471","0.0-0.0-2.0-0.0-1.0-0.0-0.0-1.10","d","","false","[""d"",""k""]","k","3000","true","1","100","0","0","0","5.7","1","-1","3","600","600","[""hsl(0, 50%, 50%)"",""hsl(225, 50%, 50%)""]","[""hsl(225, 50%, 50%)"",""hsl(0, 50%, 50%)""]","7.6017647737322385","0.5599999999999999","0","circle","black","3","2","2","16.6046511627907","[20,4,17,17,19,15,17,16,17,16,17,16,17,16,17,17,17,17,18,16,17,17,17,18,15,17,17,17,17,17,17,16,17,17,17,16,17,17,16,17,17,17,18]","43","716","417","false","20","20","black","1","false","1","1","1440","960","rdk","k","","","","0.5599999999999999","0.24",""
"","null","","html-keyboard-response","35","32983","0.0-0.0-2.0-0.0-1.0-0.0-0.0-2.10","null","<p style='font-size: 60px; color: red'>错误!</p>","","","","","","","","","","","","","","","","","","","","","","","","","","","","","","","","","","","","","","","","","","","","","","","","",""
"","null","fixation","html-keyboard-response","36","33491","0.0-0.0-2.0-0.0-1.0-0.0-0.0-0.11","null","<p style='font-size: 48px; color: white'>+</p >","","","","","","","","","","","","","","","","","","","","","","","","","","","","","","","","","","","","","","","","","","","","","","","","",""
"","576","color_pract","rdk","37","34070","0.0-0.0-2.0-0.0-1.0-0.0-0.0-1.11","d","","true","[""d"",""k""]","d","3000","true","1","100","0","0","0","5.7","1","-1","3","600","600","[""hsl(0, 50%, 50%)"",""hsl(225, 50%, 50%)""]","[""hsl(0, 50%, 50%)"",""hsl(225, 50%, 50%)""]","7.6017647737322385","0.58","0","circle","black","3","2","2","16.558823529411764","[8,18,17,17,16,17,17,17,16,17,17,16,17,16,17,17,17,17,17,17,16,17,17,17,17,17,17,16,17,17,16,17,17,17]","34","716","417","false","20","20","black","1","false","1","1","1440","960","rdk","d","","","","0.58","0.24",""
"","null","","html-keyboard-response","38","34585","0.0-0.0-2.0-0.0-1.0-0.0-0.0-2.11","null","<p style='font-size: 60px; color: green'>正确!</p>","","","","","","","","","","","","","","","","","","","","","","","","","","","","","","","","","","","","","","","","","","","","","","","","",""
"","null","fixation","html-keyboard-response","39","35087","0.0-0.0-2.0-0.0-1.0-0.0-0.0-0.12","null","<p style='font-size: 48px; color: white'>+</p >","","","","","","","","","","","","","","","","","","","","","","","","","","","","","","","","","","","","","","","","","","","","","","","","",""
"","691","color_pract","rdk","40","35780","0.0-0.0-2.0-0.0-1.0-0.0-0.0-1.12","k","","true","[""d"",""k""]","k","3000","true","1","100","0","0","0","5.7","1","-1","3","600","600","[""hsl(0, 50%, 50%)"",""hsl(225, 50%, 50%)""]","[""hsl(225, 50%, 50%)"",""hsl(0, 50%, 50%)""]","7.6017647737322385","0.58","0","circle","black","3","2","2","16.75609756097561","[16,15,17,17,17,17,17,17,17,16,18,17,16,17,16,17,16,17,16,17,17,16,17,17,17,17,17,17,17,17,16,17,16,17,16,17,17,17,17,16,19]","41","716","417","false","20","20","black","1","false","1","1","1440","960","rdk","k","","","","0.58","0.24",""
"","null","","html-keyboard-response","41","36284","0.0-0.0-2.0-0.0-1.0-0.0-0.0-2.12","null","<p style='font-size: 60px; color: green'>正确!</p>","","","","","","","","","","","","","","","","","","","","","","","","","","","","","","","","","","","","","","","","","","","","","","","","",""
"","null","fixation","html-keyboard-response","42","36788","0.0-0.0-2.0-0.0-1.0-0.0-0.0-0.13","null","<p style='font-size: 48px; color: white'>+</p >","","","","","","","","","","","","","","","","","","","","","","","","","","","","","","","","","","","","","","","","","","","","","","","","",""
"","608","color_pract","rdk","43","37399","0.0-0.0-2.0-0.0-1.0-0.0-0.0-1.13","d","","true","[""d"",""k""]","d","3000","true","1","100","0","0","0","5.7","1","-1","3","600","600","[""hsl(0, 50%, 50%)"",""hsl(225, 50%, 50%)""]","[""hsl(0, 50%, 50%)"",""hsl(225, 50%, 50%)""]","7.6017647737322385","0.58","0","circle","black","3","2","2","16.61111111111111","[12,17,16,17,17,16,17,17,17,17,17,17,16,17,17,16,16,18,18,16,17,17,16,17,17,16,17,17,17,17,16,17,16,17,16,17]","36","716","417","false","20","20","black","1","false","1","1","1440","960","rdk","d","","","","0.58","0.24",""
"","null","","html-keyboard-response","44","37903","0.0-0.0-2.0-0.0-1.0-0.0-0.0-2.13","null","<p style='font-size: 60px; color: green'>正确!</p>","","","","","","","","","","","","","","","","","","","","","","","","","","","","","","","","","","","","","","","","","","","","","","","","",""
"","null","fixation","html-keyboard-response","45","38420","0.0-0.0-2.0-0.0-1.0-0.0-0.0-0.14","null","<p style='font-size: 48px; color: white'>+</p >","","","","","","","","","","","","","","","","","","","","","","","","","","","","","","","","","","","","","","","","","","","","","","","","",""
"","608","color_pract","rdk","46","39030","0.0-0.0-2.0-0.0-1.0-0.0-0.0-1.14","d","","true","[""d"",""k""]","d","3000","true","1","100","0","0","0","5.7","1","-1","3","600","600","[""hsl(0, 50%, 50%)"",""hsl(225, 50%, 50%)""]","[""hsl(0, 50%, 50%)"",""hsl(225, 50%, 50%)""]","7.6017647737322385","0.58","0","circle","black","3","2","2","16.805555555555557","[16,16,17,17,16,17,17,17,17,16,17,17,18,17,17,17,17,17,16,17,17,17,17,17,16,17,17,17,17,17,17,16,17,17,17,16]","36","716","417","false","20","20","black","1","false","1","1","1440","960","rdk","d","","","","0.58","0.24",""
"","null","","html-keyboard-response","47","39535","0.0-0.0-2.0-0.0-1.0-0.0-0.0-2.14","null","<p style='font-size: 60px; color: green'>正确!</p>","","","","","","","","","","","","","","","","","","","","","","","","","","","","","","","","","","","","","","","","","","","","","","","","",""
"","null","fixation","html-keyboard-response","48","40050","0.0-0.0-2.0-0.0-1.0-0.0-0.0-0.15","null","<p style='font-size: 48px; color: white'>+</p >","","","","","","","","","","","","","","","","","","","","","","","","","","","","","","","","","","","","","","","","","","","","","","","","",""
"","669","color_pract","rdk","49","40719","0.0-0.0-2.0-0.0-1.0-0.0-0.0-1.15","k","","true","[""d"",""k""]","k","3000","true","1","100","0","0","0","5.7","1","-1","3","600","600","[""hsl(0, 50%, 50%)"",""hsl(225, 50%, 50%)""]","[""hsl(225, 50%, 50%)"",""hsl(0, 50%, 50%)""]","7.6017647737322385","0.5599999999999999","0","circle","black","3","2","2","16.5","[6,13,17,17,18,17,16,17,17,17,17,17,17,16,17,17,17,16,18,16,17,17,17,16,16,16,16,17,17,18,17,17,18,18,15,18,15,17,17,18]","40","716","417","false","20","20","black","1","false","1","1","1440","960","rdk","k","","","","0.5599999999999999","0.24",""
"","null","","html-keyboard-response","50","41232","0.0-0.0-2.0-0.0-1.0-0.0-0.0-2.15","null","<p style='font-size: 60px; color: green'>正确!</p>","","","","","","","","","","","","","","","","","","","","","","","","","","","","","","","","","","","","","","","","","","","","","","","","",""
"","null","fixation","html-keyboard-response","51","41734","0.0-0.0-2.0-0.0-1.0-0.0-0.0-0.16","null","<p style='font-size: 48px; color: white'>+</p >","","","","","","","","","","","","","","","","","","","","","","","","","","","","","","","","","","","","","","","","","","","","","","","","",""
"","610","color_pract","rdk","52","42346","0.0-0.0-2.0-0.0-1.0-0.0-0.0-1.16","d","","true","[""d"",""k""]","d","3000","true","1","100","0","0","0","5.7","1","-1","3","600","600","[""hsl(0, 50%, 50%)"",""hsl(225, 50%, 50%)""]","[""hsl(0, 50%, 50%)"",""hsl(225, 50%, 50%)""]","7.6017647737322385","0.5599999999999999","0","circle","black","3","2","2","16.805555555555557","[16,16,16,17,17,17,17,17,17,17,16,17,17,17,17,17,17,17,17,16,17,17,16,16,17,16,18,17,17,16,17,17,17,16,17,19]","36","716","417","false","20","20","black","1","false","1","1","1440","960","rdk","d","","","","0.5599999999999999","0.24",""
"","null","","html-keyboard-response","53","42852","0.0-0.0-2.0-0.0-1.0-0.0-0.0-2.16","null","<p style='font-size: 60px; color: green'>正确!</p>","","","","","","","","","","","","","","","","","","","","","","","","","","","","","","","","","","","","","","","","","","","","","","","","",""
"","null","fixation","html-keyboard-response","54","43366","0.0-0.0-2.0-0.0-1.0-0.0-0.0-0.17","null","<p style='font-size: 48px; color: white'>+</p >","","","","","","","","","","","","","","","","","","","","","","","","","","","","","","","","","","","","","","","","","","","","","","","","",""
"","998","color_pract","rdk","55","44365","0.0-0.0-2.0-0.0-1.0-0.0-0.0-1.17","d","","false","[""d"",""k""]","k","3000","true","1","100","0","0","0","5.7","1","-1","3","600","600","[""hsl(0, 50%, 50%)"",""hsl(225, 50%, 50%)""]","[""hsl(225, 50%, 50%)"",""hsl(0, 50%, 50%)""]","7.6017647737322385","0.5599999999999999","0","circle","black","3","2","2","16.616666666666667","[3,17,17,17,17,17,17,16,16,17,17,17,17,17,17,17,17,17,16,17,17,17,17,17,16,17,16,17,17,17,17,17,17,17,17,16,17,16,17,17,16,17,17,17,17,17,17,17,16,17,17,18,16,17,18,16,17,17,17,17]","60","716","417","false","20","20","black","1","false","1","1","1440","960","rdk","k","","","","0.5599999999999999","0.24",""
"","null","","html-keyboard-response","56","44872","0.0-0.0-2.0-0.0-1.0-0.0-0.0-2.17","null","<p style='font-size: 60px; color: red'>错误!</p>","","","","","","","","","","","","","","","","","","","","","","","","","","","","","","","","","","","","","","","","","","","","","","","","",""
"","null","fixation","html-keyboard-response","57","45388","0.0-0.0-2.0-0.0-1.0-0.0-0.0-0.18","null","<p style='font-size: 48px; color: white'>+</p >","","","","","","","","","","","","","","","","","","","","","","","","","","","","","","","","","","","","","","","","","","","","","","","","",""
"","1062","color_pract","rdk","58","46452","0.0-0.0-2.0-0.0-1.0-0.0-0.0-1.18","d","","false","[""d"",""k""]","k","3000","true","1","100","0","0","0","5.7","1","-1","3","600","600","[""hsl(0, 50%, 50%)"",""hsl(225, 50%, 50%)""]","[""hsl(225, 50%, 50%)"",""hsl(0, 50%, 50%)""]","7.6017647737322385","0.58","0","circle","black","3","2","2","16.58730158730159","[12,17,16,17,17,16,17,19,14,17,17,17,16,16,17,17,17,16,17,17,16,16,17,16,17,17,16,17,17,16,17,17,17,16,17,17,17,17,17,16,17,17,17,17,16,17,16,17,16,17,16,17,17,17,21,12,19,14,17,16,17,16,17]","63","716","417","false","20","20","black","1","false","1","1","1440","960","rdk","k","","","","0.58","0.24",""
"","null","","html-keyboard-response","59","46952","0.0-0.0-2.0-0.0-1.0-0.0-0.0-2.18","null","<p style='font-size: 60px; color: red'>错误!</p>","","","","","","","","","","","","","","","","","","","","","","","","","","","","","","","","","","","","","","","","","","","","","","","","",""
"","null","fixation","html-keyboard-response","60","47465","0.0-0.0-2.0-0.0-1.0-0.0-0.0-0.19","null","<p style='font-size: 48px; color: white'>+</p >","","","","","","","","","","","","","","","","","","","","","","","","","","","","","","","","","","","","","","","","","","","","","","","","",""
"","817","color_pract","rdk","61","48282","0.0-0.0-2.0-0.0-1.0-0.0-0.0-1.19","d","","true","[""d"",""k""]","d","3000","true","1","100","0","0","0","5.7","1","-1","3","600","600","[""hsl(0, 50%, 50%)"",""hsl(225, 50%, 50%)""]","[""hsl(0, 50%, 50%)"",""hsl(225, 50%, 50%)""]","7.6017647737322385","0.6","0","circle","black","3","2","2","16.489795918367346","[3,17,17,16,17,17,16,17,17,17,17,17,17,16,17,17,17,16,17,17,16,17,17,17,16,17,17,16,17,17,17,17,17,17,16,17,17,16,18,17,16,17,17,16,17,16,17,17,17]","49","716","417","false","20","20","black","1","false","1","1","1440","960","rdk","d","","","","0.6","0.24",""
"","null","","html-keyboard-response","62","48790","0.0-0.0-2.0-0.0-1.0-0.0-0.0-2.19","null","<p style='font-size: 60px; color: green'>正确!</p>","","","","","","","","","","","","","","","","","","","","","","","","","","","","","","","","","","","","","","","","","","","","","","","","",""
"","null","fixation","html-keyboard-response","63","49301","0.0-0.0-2.0-0.0-1.0-0.0-0.0-0.20","null","<p style='font-size: 48px; color: white'>+</p >","","","","","","","","","","","","","","","","","","","","","","","","","","","","","","","","","","","","","","","","","","","","","","","","",""
"","679","color_pract","rdk","64","49981","0.0-0.0-2.0-0.0-1.0-0.0-0.0-1.20","k","","true","[""d"",""k""]","k","3000","true","1","100","0","0","0","5.7","1","-1","3","600","600","[""hsl(0, 50%, 50%)"",""hsl(225, 50%, 50%)""]","[""hsl(225, 50%, 50%)"",""hsl(0, 50%, 50%)""]","7.6017647737322385","0.6","0","circle","black","3","2","2","16.71794871794872","[16,17,17,16,17,16,17,17,17,17,17,17,17,16,17,17,17,17,17,17,17,16,17,17,17,16,16,17,17,17,16,17,17,16,17,17,17,16,16]","39","716","417","false","20","20","black","1","false","1","1","1440","960","rdk","k","","","","0.6","0.24",""
"","null","","html-keyboard-response","65","50483","0.0-0.0-2.0-0.0-1.0-0.0-0.0-2.20","null","<p style='font-size: 60px; color: green'>正确!</p>","","","","","","","","","","","","","","","","","","","","","","","","","","","","","","","","","","","","","","","","","","","","","","","","",""
"","null","fixation","html-keyboard-response","66","50990","0.0-0.0-2.0-0.0-1.0-0.0-0.0-0.21","null","<p style='font-size: 48px; color: white'>+</p >","","","","","","","","","","","","","","","","","","","","","","","","","","","","","","","","","","","","","","","","","","","","","","","","",""
"","768","color_pract","rdk","67","51761","0.0-0.0-2.0-0.0-1.0-0.0-0.0-1.21","k","","false","[""d"",""k""]","d","3000","true","1","100","0","0","0","5.7","1","-1","3","600","600","[""hsl(0, 50%, 50%)"",""hsl(225, 50%, 50%)""]","[""hsl(0, 50%, 50%)"",""hsl(225, 50%, 50%)""]","7.6017647737322385","0.6","0","circle","black","3","2","2","16.67391304347826","[9,19,14,17,16,17,17,17,17,17,17,16,17,17,17,17,17,17,17,17,17,16,17,17,17,18,17,16,17,16,17,16,17,17,16,17,17,17,17,17,17,17,17,17,16,18]","46","716","417","false","20","20","black","1","false","1","1","1440","960","rdk","d","","","","0.6","0.24",""
"","null","","html-keyboard-response","68","52264","0.0-0.0-2.0-0.0-1.0-0.0-0.0-2.21","null","<p style='font-size: 60px; color: red'>错误!</p>","","","","","","","","","","","","","","","","","","","","","","","","","","","","","","","","","","","","","","","","","","","","","","","","",""
"","null","fixation","html-keyboard-response","69","52768","0.0-0.0-2.0-0.0-1.0-0.0-0.0-0.22","null","<p style='font-size: 48px; color: white'>+</p >","","","","","","","","","","","","","","","","","","","","","","","","","","","","","","","","","","","","","","","","","","","","","","","","",""
"","668","color_pract","rdk","70","53437","0.0-0.0-2.0-0.0-1.0-0.0-0.0-1.22","d","","true","[""d"",""k""]","d","3000","true","1","100","0","0","0","5.7","1","-1","3","600","600","[""hsl(0, 50%, 50%)"",""hsl(225, 50%, 50%)""]","[""hsl(0, 50%, 50%)"",""hsl(225, 50%, 50%)""]","7.6017647737322385","0.62","0","circle","black","3","2","2","16.76923076923077","[17,18,16,17,16,17,17,16,17,17,17,17,17,17,16,17,17,16,17,15,18,17,17,17,17,17,17,16,17,17,17,16,17,17,16,17,16,17,17]","39","716","417","false","20","20","black","1","false","1","1","1440","960","rdk","d","","","","0.62","0.24",""
"","null","","html-keyboard-response","71","53951","0.0-0.0-2.0-0.0-1.0-0.0-0.0-2.22","null","<p style='font-size: 60px; color: green'>正确!</p>","","","","","","","","","","","","","","","","","","","","","","","","","","","","","","","","","","","","","","","","","","","","","","","","",""
"","null","fixation","html-keyboard-response","72","54457","0.0-0.0-2.0-0.0-1.0-0.0-0.0-0.23","null","<p style='font-size: 48px; color: white'>+</p >","","","","","","","","","","","","","","","","","","","","","","","","","","","","","","","","","","","","","","","","","","","","","","","","",""
"","953","color_pract","rdk","73","55413","0.0-0.0-2.0-0.0-1.0-0.0-0.0-1.23","k","","true","[""d"",""k""]","k","3000","true","1","100","0","0","0","5.7","1","-1","3","600","600","[""hsl(0, 50%, 50%)"",""hsl(225, 50%, 50%)""]","[""hsl(225, 50%, 50%)"",""hsl(0, 50%, 50%)""]","7.6017647737322385","0.62","0","circle","black","3","2","2","16.596491228070175","[8,18,16,16,17,17,16,16,17,17,16,17,17,17,17,17,17,17,17,17,17,17,16,17,17,16,17,17,16,17,16,17,17,16,17,17,16,17,16,17,17,17,17,17,17,17,17,17,16,17,17,16,17,16,16,17,18]","57","716","417","false","20","20","black","1","false","1","1","1440","960","rdk","k","","","","0.62","0.24",""
"","null","","html-keyboard-response","74","55923","0.0-0.0-2.0-0.0-1.0-0.0-0.0-2.23","null","<p style='font-size: 60px; color: green'>正确!</p>","","","","","","","","","","","","","","","","","","","","","","","","","","","","","","","","","","","","","","","","","","","","","","","","",""
"","null","fixation","html-keyboard-response","75","56434","0.0-0.0-2.0-0.0-1.0-0.0-0.0-0.24","null","<p style='font-size: 48px; color: white'>+</p >","","","","","","","","","","","","","","","","","","","","","","","","","","","","","","","","","","","","","","","","","","","","","","","","",""
"","974","color_pract","rdk","76","57410","0.0-0.0-2.0-0.0-1.0-0.0-0.0-1.24","k","","true","[""d"",""k""]","k","3000","true","1","100","0","0","0","5.7","1","-1","3","600","600","[""hsl(0, 50%, 50%)"",""hsl(225, 50%, 50%)""]","[""hsl(225, 50%, 50%)"",""hsl(0, 50%, 50%)""]","7.6017647737322385","0.62","0","circle","black","3","2","2","16.70689655172414","[15,18,15,16,17,16,17,17,17,17,17,16,17,17,17,16,17,17,17,16,17,17,16,17,16,17,17,16,17,17,16,18,17,16,17,16,17,17,17,16,17,16,17,17,18,17,17,17,16,17,17,16,16,17,17,17,17,17]","58","716","417","false","20","20","black","1","false","1","1","1440","960","rdk","k","","","","0.62","0.24",""
"","null","","html-keyboard-response","77","57925","0.0-0.0-2.0-0.0-1.0-0.0-0.0-2.24","null","<p style='font-size: 60px; color: green'>正确!</p>","","","","","","","","","","","","","","","","","","","","","","","","","","","","","","","","","","","","","","","","","","","","","","","","",""
"","null","fixation","html-keyboard-response","78","58434","0.0-0.0-2.0-0.0-1.0-0.0-0.0-0.25","null","<p style='font-size: 48px; color: white'>+</p >","","","","","","","","","","","","","","","","","","","","","","","","","","","","","","","","","","","","","","","","","","","","","","","","",""
"","625","color_pract","rdk","79","59061","0.0-0.0-2.0-0.0-1.0-0.0-0.0-1.25","d","","true","[""d"",""k""]","d","3000","true","1","100","0","0","0","5.7","1","-1","3","600","600","[""hsl(0, 50%, 50%)"",""hsl(225, 50%, 50%)""]","[""hsl(0, 50%, 50%)"",""hsl(225, 50%, 50%)""]","7.6017647737322385","0.62","0","circle","black","3","2","2","16.783783783783782","[19,13,15,17,17,17,17,18,16,20,15,17,17,16,18,15,17,17,17,17,19,15,16,18,17,16,16,17,17,17,17,17,17,17,17,16,17]","37","716","417","false","20","20","black","1","false","1","1","1440","960","rdk","d","","","","0.62","0.24",""
"","null","","html-keyboard-response","80","59567","0.0-0.0-2.0-0.0-1.0-0.0-0.0-2.25","null","<p style='font-size: 60px; color: green'>正确!</p>","","","","","","","","","","","","","","","","","","","","","","","","","","","","","","","","","","","","","","","","","","","","","","","","",""
"","null","fixation","html-keyboard-response","81","60074","0.0-0.0-2.0-0.0-1.0-0.0-0.0-0.26","null","<p style='font-size: 48px; color: white'>+</p >","","","","","","","","","","","","","","","","","","","","","","","","","","","","","","","","","","","","","","","","","","","","","","","","",""
"","704","color_pract","rdk","82","60780","0.0-0.0-2.0-0.0-1.0-0.0-0.0-1.26","k","","true","[""d"",""k""]","k","3000","true","1","100","0","0","0","5.7","1","-1","3","600","600","[""hsl(0, 50%, 50%)"",""hsl(225, 50%, 50%)""]","[""hsl(225, 50%, 50%)"",""hsl(0, 50%, 50%)""]","7.6017647737322385","0.6","0","circle","black","3","2","2","16.642857142857142","[8,18,17,17,17,17,16,17,17,17,17,16,17,17,17,17,17,17,17,17,17,17,16,17,17,17,16,16,17,16,17,17,18,17,17,16,17,16,17,17,17,17]","42","716","417","false","20","20","black","1","false","1","1","1440","960","rdk","k","","","","0.6","0.24",""
"","null","","html-keyboard-response","83","61283","0.0-0.0-2.0-0.0-1.0-0.0-0.0-2.26","null","<p style='font-size: 60px; color: green'>正确!</p>","","","","","","","","","","","","","","","","","","","","","","","","","","","","","","","","","","","","","","","","","","","","","","","","",""
"","null","fixation","html-keyboard-response","84","61790","0.0-0.0-2.0-0.0-1.0-0.0-0.0-0.27","null","<p style='font-size: 48px; color: white'>+</p >","","","","","","","","","","","","","","","","","","","","","","","","","","","","","","","","","","","","","","","","","","","","","","","","",""
"","688","color_pract","rdk","85","62479","0.0-0.0-2.0-0.0-1.0-0.0-0.0-1.27","d","","true","[""d"",""k""]","d","3000","true","1","100","0","0","0","5.7","1","-1","3","600","600","[""hsl(0, 50%, 50%)"",""hsl(225, 50%, 50%)""]","[""hsl(0, 50%, 50%)"",""hsl(225, 50%, 50%)""]","7.6017647737322385","0.6","0","circle","black","3","2","2","16.78048780487805","[9,17,17,17,17,17,17,17,17,17,15,17,17,17,17,17,17,17,17,17,17,16,17,17,17,17,17,17,17,16,17,17,17,17,17,17,17,17,16,17,21]","41","716","417","false","20","20","black","1","false","1","1","1440","960","rdk","d","","","","0.6","0.24",""
"","null","","html-keyboard-response","86","62981","0.0-0.0-2.0-0.0-1.0-0.0-0.0-2.27","null","<p style='font-size: 60px; color: green'>正确!</p>","","","","","","","","","","","","","","","","","","","","","","","","","","","","","","","","","","","","","","","","","","","","","","","","",""
"","null","fixation","html-keyboard-response","87","63491","0.0-0.0-2.0-0.0-1.0-0.0-0.0-0.28","null","<p style='font-size: 48px; color: white'>+</p >","","","","","","","","","","","","","","","","","","","","","","","","","","","","","","","","","","","","","","","","","","","","","","","","",""
"","723","color_pract","rdk","88","64215","0.0-0.0-2.0-0.0-1.0-0.0-0.0-1.28","k","","true","[""d"",""k""]","k","3000","true","1","100","0","0","0","5.7","1","-1","3","600","600","[""hsl(0, 50%, 50%)"",""hsl(225, 50%, 50%)""]","[""hsl(225, 50%, 50%)"",""hsl(0, 50%, 50%)""]","7.6017647737322385","0.6","0","circle","black","3","2","2","16.674418604651162","[8,17,17,17,17,17,16,17,16,16,17,17,17,17,17,17,17,16,17,17,17,17,16,18,16,18,16,17,17,17,17,17,17,16,17,17,17,17,17,17,17,17,18]","43","716","417","false","20","20","black","1","false","1","1","1440","960","rdk","k","","","","0.6","0.24",""
"","null","","html-keyboard-response","89","64730","0.0-0.0-2.0-0.0-1.0-0.0-0.0-2.28","null","<p style='font-size: 60px; color: green'>正确!</p>","","","","","","","","","","","","","","","","","","","","","","","","","","","","","","","","","","","","","","","","","","","","","","","","",""
"","null","fixation","html-keyboard-response","90","65238","0.0-0.0-2.0-0.0-1.0-0.0-0.0-0.29","null","<p style='font-size: 48px; color: white'>+</p >","","","","","","","","","","","","","","","","","","","","","","","","","","","","","","","","","","","","","","","","","","","","","","","","",""
"","646","color_pract","rdk","91","65886","0.0-0.0-2.0-0.0-1.0-0.0-0.0-1.29","d","","true","[""d"",""k""]","d","3000","true","1","100","0","0","0","5.7","1","-1","3","600","600","[""hsl(0, 50%, 50%)"",""hsl(225, 50%, 50%)""]","[""hsl(0, 50%, 50%)"",""hsl(225, 50%, 50%)""]","7.6017647737322385","0.6","0","circle","black","3","2","2","16.710526315789473","[11,17,17,17,17,16,17,17,17,17,17,17,17,17,17,17,17,17,17,17,16,17,17,16,17,16,16,17,17,17,18,17,17,17,17,17,16,17]","38","716","417","false","20","20","black","1","false","1","1","1440","960","rdk","d","","","","0.6","0.24",""
"","null","","html-keyboard-response","92","66400","0.0-0.0-2.0-0.0-1.0-0.0-0.0-2.29","null","<p style='font-size: 60px; color: green'>正确!</p>","","","","","","","","","","","","","","","","","","","","","","","","","","","","","","","","","","","","","","","","","","","","","","","","",""
"","null","fixation","html-keyboard-response","93","66909","0.0-0.0-2.0-0.0-1.0-0.0-0.0-0.30","null","<p style='font-size: 48px; color: white'>+</p >","","","","","","","","","","","","","","","","","","","","","","","","","","","","","","","","","","","","","","","","","","","","","","","","",""
"","868","color_pract","rdk","94","67779","0.0-0.0-2.0-0.0-1.0-0.0-0.0-1.30","k","","true","[""d"",""k""]","k","3000","true","1","100","0","0","0","5.7","1","-1","3","600","600","[""hsl(0, 50%, 50%)"",""hsl(225, 50%, 50%)""]","[""hsl(225, 50%, 50%)"",""hsl(0, 50%, 50%)""]","7.6017647737322385","0.58","0","circle","black","3","2","2","16.634615384615383","[19,4,17,17,16,17,17,18,16,17,17,17,16,17,17,17,17,17,17,17,17,16,17,17,16,16,17,17,18,16,17,17,17,17,17,16,17,17,16,17,16,17,19,15,17,17,17,17,17,17,17,17]","52","716","417","false","20","20","black","1","false","1","1","1440","960","rdk","k","","","","0.58","0.24",""
"","null","","html-keyboard-response","95","68288","0.0-0.0-2.0-0.0-1.0-0.0-0.0-2.30","null","<p style='font-size: 60px; color: green'>正确!</p>","","","","","","","","","","","","","","","","","","","","","","","","","","","","","","","","","","","","","","","","","","","","","","","","",""
"","null","fixation","html-keyboard-response","96","68798","0.0-0.0-2.0-0.0-1.0-0.0-0.0-0.31","null","<p style='font-size: 48px; color: white'>+</p >","","","","","","","","","","","","","","","","","","","","","","","","","","","","","","","","","","","","","","","","","","","","","","","","",""
"","659","color_pract","rdk","97","69458","0.0-0.0-2.0-0.0-1.0-0.0-0.0-1.31","d","","true","[""d"",""k""]","d","3000","true","1","100","0","0","0","5.7","1","-1","3","600","600","[""hsl(0, 50%, 50%)"",""hsl(225, 50%, 50%)""]","[""hsl(0, 50%, 50%)"",""hsl(225, 50%, 50%)""]","7.6017647737322385","0.58","0","circle","black","3","2","2","16.4","[2,18,17,17,17,17,17,16,17,16,16,17,17,17,17,17,16,17,17,17,16,17,17,17,17,17,17,17,17,16,17,17,17,17,16,16,17,16,17,16]","40","716","417","false","20","20","black","1","false","1","1","1440","960","rdk","d","","","","0.58","0.24",""
"","null","","html-keyboard-response","98","69966","0.0-0.0-2.0-0.0-1.0-0.0-0.0-2.31","null","<p style='font-size: 60px; color: green'>正确!</p>","","","","","","","","","","","","","","","","","","","","","","","","","","","","","","","","","","","","","","","","","","","","","","","","",""
"","null","fixation","html-keyboard-response","99","70472","0.0-0.0-2.0-0.0-1.0-0.0-0.0-0.32","null","<p style='font-size: 48px; color: white'>+</p >","","","","","","","","","","","","","","","","","","","","","","","","","","","","","","","","","","","","","","","","","","","","","","","","",""
"","724","color_pract","rdk","100","71197","0.0-0.0-2.0-0.0-1.0-0.0-0.0-1.32","k","","true","[""d"",""k""]","k","3000","true","1","100","0","0","0","5.7","1","-1","3","600","600","[""hsl(0, 50%, 50%)"",""hsl(225, 50%, 50%)""]","[""hsl(225, 50%, 50%)"",""hsl(0, 50%, 50%)""]","7.6017647737322385","0.58","0","circle","black","3","2","2","16.767441860465116","[11,18,16,17,17,17,17,17,17,17,17,17,16,17,17,17,17,17,16,17,17,17,16,17,17,17,17,17,18,16,16,17,17,17,17,17,17,17,17,17,17,17,17]","43","716","417","false","20","20","black","1","false","1","1","1440","960","rdk","k","","","","0.58","0.24",""
"","null","","html-keyboard-response","101","71713","0.0-0.0-2.0-0.0-1.0-0.0-0.0-2.32","null","<p style='font-size: 60px; color: green'>正确!</p>","","","","","","","","","","","","","","","","","","","","","","","","","","","","","","","","","","","","","","","","","","","","","","","","",""
"","null","fixation","html-keyboard-response","102","72223","0.0-0.0-2.0-0.0-1.0-0.0-0.0-0.33","null","<p style='font-size: 48px; color: white'>+</p >","","","","","","","","","","","","","","","","","","","","","","","","","","","","","","","","","","","","","","","","","","","","","","","","",""
"","694","color_pract","rdk","103","72918","0.0-0.0-2.0-0.0-1.0-0.0-0.0-1.33","d","","true","[""d"",""k""]","d","3000","true","1","100","0","0","0","5.7","1","-1","3","600","600","[""hsl(0, 50%, 50%)"",""hsl(225, 50%, 50%)""]","[""hsl(0, 50%, 50%)"",""hsl(225, 50%, 50%)""]","7.6017647737322385","0.58","0","circle","black","3","2","2","16.682926829268293","[9,17,17,17,17,17,17,17,17,17,17,17,17,16,17,17,16,17,17,16,17,17,17,17,16,17,17,17,17,17,17,17,17,17,17,17,18,16,17,16,17]","41","716","417","false","20","20","black","1","false","1","1","1440","960","rdk","d","","","","0.58","0.24",""
"","null","","html-keyboard-response","104","73433","0.0-0.0-2.0-0.0-1.0-0.0-0.0-2.33","null","<p style='font-size: 60px; color: green'>正确!</p>","","","","","","","","","","","","","","","","","","","","","","","","","","","","","","","","","","","","","","","","","","","","","","","","",""
"","null","fixation","html-keyboard-response","105","73937","0.0-0.0-2.0-0.0-1.0-0.0-0.0-0.34","null","<p style='font-size: 48px; color: white'>+</p >","","","","","","","","","","","","","","","","","","","","","","","","","","","","","","","","","","","","","","","","","","","","","","","","",""
"","874","color_pract","rdk","106","74813","0.0-0.0-2.0-0.0-1.0-0.0-0.0-1.34","k","","true","[""d"",""k""]","k","3000","true","1","100","0","0","0","5.7","1","-1","3","600","600","[""hsl(0, 50%, 50%)"",""hsl(225, 50%, 50%)""]","[""hsl(225, 50%, 50%)"",""hsl(0, 50%, 50%)""]","7.6017647737322385","0.5599999999999999","0","circle","black","3","2","2","16.73076923076923","[12,17,17,17,17,17,17,16,17,17,17,16,17,17,17,17,17,17,17,17,17,17,16,17,17,17,17,16,17,17,17,17,17,17,17,17,16,17,16,16,17,17,18,16,17,15,17,17,17,17,17,17]","52","716","417","false","20","20","black","1","false","1","1","1440","960","rdk","k","","","","0.5599999999999999","0.24",""
"","null","","html-keyboard-response","107","75326","0.0-0.0-2.0-0.0-1.0-0.0-0.0-2.34","null","<p style='font-size: 60px; color: green'>正确!</p>","","","","","","","","","","","","","","","","","","","","","","","","","","","","","","","","","","","","","","","","","","","","","","","","",""
"","null","fixation","html-keyboard-response","108","75841","0.0-0.0-2.0-0.0-1.0-0.0-0.0-0.35","null","<p style='font-size: 48px; color: white'>+</p >","","","","","","","","","","","","","","","","","","","","","","","","","","","","","","","","","","","","","","","","","","","","","","","","",""
"","672","color_pract","rdk","109","76514","0.0-0.0-2.0-0.0-1.0-0.0-0.0-1.35","d","","true","[""d"",""k""]","d","3000","true","1","100","0","0","0","5.7","1","-1","3","600","600","[""hsl(0, 50%, 50%)"",""hsl(225, 50%, 50%)""]","[""hsl(0, 50%, 50%)"",""hsl(225, 50%, 50%)""]","7.6017647737322385","0.5599999999999999","0","circle","black","3","2","2","16.625","[20,4,17,17,17,17,16,17,17,17,17,17,18,16,17,17,17,17,17,17,18,16,17,17,17,17,16,17,17,16,16,17,17,17,17,17,17,16,17,17]","40","716","417","false","20","20","black","1","false","1","1","1440","960","rdk","d","","","","0.5599999999999999","0.24",""
"","null","","html-keyboard-response","110","77031","0.0-0.0-2.0-0.0-1.0-0.0-0.0-2.35","null","<p style='font-size: 60px; color: green'>正确!</p>","","","","","","","","","","","","","","","","","","","","","","","","","","","","","","","","","","","","","","","","","","","","","","","","",""
"","null","fixation","html-keyboard-response","111","77537","0.0-0.0-2.0-0.0-1.0-0.0-0.0-0.36","null","<p style='font-size: 48px; color: white'>+</p >","","","","","","","","","","","","","","","","","","","","","","","","","","","","","","","","","","","","","","","","","","","","","","","","",""
"","830","color_pract","rdk","112","78368","0.0-0.0-2.0-0.0-1.0-0.0-0.0-1.36","k","","true","[""d"",""k""]","k","3000","true","1","100","0","0","0","5.7","1","-1","3","600","600","[""hsl(0, 50%, 50%)"",""hsl(225, 50%, 50%)""]","[""hsl(225, 50%, 50%)"",""hsl(0, 50%, 50%)""]","7.6017647737322385","0.5599999999999999","0","circle","black","3","2","2","16.79591836734694","[14,16,18,17,17,17,17,16,18,17,16,16,16,17,17,17,17,18,17,17,16,17,17,17,17,16,17,17,18,16,17,16,17,17,16,17,17,17,17,17,17,17,16,17,17,17,17,17,17]","49","716","417","false","20","20","black","1","false","1","1","1440","960","rdk","k","","","","0.5599999999999999","0.24",""
"","null","","html-keyboard-response","113","78879","0.0-0.0-2.0-0.0-1.0-0.0-0.0-2.36","null","<p style='font-size: 60px; color: green'>正确!</p>","","","","","","","","","","","","","","","","","","","","","","","","","","","","","","","","","","","","","","","","","","","","","","","","",""
"","null","fixation","html-keyboard-response","114","79386","0.0-0.0-2.0-0.0-1.0-0.0-0.0-0.37","null","<p style='font-size: 48px; color: white'>+</p >","","","","","","","","","","","","","","","","","","","","","","","","","","","","","","","","","","","","","","","","","","","","","","","","",""
"","623","color_pract","rdk","115","80010","0.0-0.0-2.0-0.0-1.0-0.0-0.0-1.37","d","","true","[""d"",""k""]","d","3000","true","1","100","0","0","0","5.7","1","-1","3","600","600","[""hsl(0, 50%, 50%)"",""hsl(225, 50%, 50%)""]","[""hsl(0, 50%, 50%)"",""hsl(225, 50%, 50%)""]","7.6017647737322385","0.5599999999999999","0","circle","black","3","2","2","16.783783783783782","[16,16,17,16,16,17,18,17,17,16,17,17,17,17,17,16,17,17,17,17,16,17,17,16,16,17,17,17,17,17,17,17,17,17,16,17,18]","37","716","417","false","20","20","black","1","false","1","1","1440","960","rdk","d","","","","0.5599999999999999","0.24",""
"","null","","html-keyboard-response","116","80517","0.0-0.0-2.0-0.0-1.0-0.0-0.0-2.37","null","<p style='font-size: 60px; color: green'>正确!</p>","","","","","","","","","","","","","","","","","","","","","","","","","","","","","","","","","","","","","","","","","","","","","","","","",""
"","null","fixation","html-keyboard-response","117","81022","0.0-0.0-2.0-0.0-1.0-0.0-0.0-0.38","null","<p style='font-size: 48px; color: white'>+</p >","","","","","","","","","","","","","","","","","","","","","","","","","","","","","","","","","","","","","","","","","","","","","","","","",""
"","974","color_pract","rdk","118","81997","0.0-0.0-2.0-0.0-1.0-0.0-0.0-1.38","k","","true","[""d"",""k""]","k","3000","true","1","100","0","0","0","5.7","1","-1","3","600","600","[""hsl(0, 50%, 50%)"",""hsl(225, 50%, 50%)""]","[""hsl(225, 50%, 50%)"",""hsl(0, 50%, 50%)""]","7.6017647737322385","0.5399999999999999","0","circle","black","3","2","2","16.655172413793103","[12,18,16,17,16,18,15,17,18,16,16,16,17,17,17,18,17,16,17,17,16,18,16,17,16,17,16,17,17,16,17,17,16,17,17,17,17,15,18,17,16,17,16,17,16,21,13,18,15,17,17,18,17,17,17,16,18,15]","58","716","417","false","20","20","black","1","false","1","1","1440","960","rdk","k","","","","0.5399999999999999","0.24",""
"","null","","html-keyboard-response","119","82508","0.0-0.0-2.0-0.0-1.0-0.0-0.0-2.38","null","<p style='font-size: 60px; color: green'>正确!</p>","","","","","","","","","","","","","","","","","","","","","","","","","","","","","","","","","","","","","","","","","","","","","","","","",""
"","null","fixation","html-keyboard-response","120","83025","0.0-0.0-2.0-0.0-1.0-0.0-0.0-0.39","null","<p style='font-size: 48px; color: white'>+</p >","","","","","","","","","","","","","","","","","","","","","","","","","","","","","","","","","","","","","","","","","","","","","","","","",""
"","852","color_pract","rdk","121","83879","0.0-0.0-2.0-0.0-1.0-0.0-0.0-1.39","d","","true","[""d"",""k""]","d","3000","true","1","100","0","0","0","5.7","1","-1","3","600","600","[""hsl(0, 50%, 50%)"",""hsl(225, 50%, 50%)""]","[""hsl(0, 50%, 50%)"",""hsl(225, 50%, 50%)""]","7.6017647737322385","0.5399999999999999","0","circle","black","3","2","2","16.647058823529413","[8,17,17,16,17,17,16,17,16,18,16,16,16,18,17,19,15,17,17,16,17,17,17,17,16,17,17,17,17,17,17,16,17,17,16,17,17,17,17,17,16,17,17,17,17,16,16,18,16,17,19]","51","716","417","false","20","20","black","1","false","1","1","1440","960","rdk","d","","","","0.5399999999999999","0.24",""
"","null","","html-keyboard-response","122","84380","0.0-0.0-2.0-0.0-1.0-0.0-0.0-2.39","null","<p style='font-size: 60px; color: green'>正确!</p>","","","","","","","","","","","","","","","","","","","","","","","","","","","","","","","","","","","","","","","","","","","","","","","","",""
"","876","","html-keyboard-response","123","85261","0.0-0.0-2.0-0.0-1.0-1.0"," ","<p style='font-size: 35px; color: white'>您的正确率为： 90% 。平均反应时为：747毫秒。</p>","","","","","","","","","","","","","","","","","","","","","","","","","","","","","","","","","","","","","","","","","","","","","","","","",""
"","null","fixation","html-keyboard-response","124","85768","0.0-0.0-2.0-0.0-1.1-0.1-0.1-0.40","null","<p style='font-size: 48px; color: white'>+</p >","","","","","","","","","","","","","","","","","","","","","","","","","","","","","","","","","","","","","","","","","","","","","","","","",""
"","821","color_pract","rdk","125","86591","0.0-0.0-2.0-0.0-1.1-0.1-0.1-1.40","k","","true","[""d"",""k""]","k","3000","true","1","100","0","0","0","5.7","1","-1","3","600","600","[""hsl(0, 50%, 50%)"",""hsl(225, 50%, 50%)""]","[""hsl(225, 50%, 50%)"",""hsl(0, 50%, 50%)""]","7.6017647737322385","0.5399999999999999","0","circle","black","3","2","2","16.714285714285715","[20,10,16,16,18,16,18,17,17,17,17,16,16,17,16,17,18,16,17,17,17,17,17,17,17,17,16,16,17,17,17,17,16,17,17,17,17,17,17,16,17,17,17,16,17,17,16,17,17]","49","716","417","false","20","20","black","1","false","1","1","1440","960","rdk","k","","","","0.5399999999999999","0.24",""
"","null","","html-keyboard-response","126","87097","0.0-0.0-2.0-0.0-1.1-0.1-0.1-2.40","null","<p style='font-size: 60px; color: green'>正确!</p>","","","","","","","","","","","","","","","","","","","","","","","","","","","","","","","","","","","","","","","","","","","","","","","","",""
"","null","fixation","html-keyboard-response","127","87598","0.0-0.0-2.0-0.0-1.1-0.1-0.1-0.41","null","<p style='font-size: 48px; color: white'>+</p >","","","","","","","","","","","","","","","","","","","","","","","","","","","","","","","","","","","","","","","","","","","","","","","","",""
"","743","color_pract","rdk","128","88341","0.0-0.0-2.0-0.0-1.1-0.1-0.1-1.41","k","","true","[""d"",""k""]","k","3000","true","1","100","0","0","0","5.7","1","-1","3","600","600","[""hsl(0, 50%, 50%)"",""hsl(225, 50%, 50%)""]","[""hsl(225, 50%, 50%)"",""hsl(0, 50%, 50%)""]","7.6017647737322385","0.5399999999999999","0","circle","black","3","2","2","16.511111111111113","[2,17,17,17,16,17,17,17,17,17,16,17,17,17,17,17,17,17,16,17,17,17,17,17,17,16,17,17,17,17,17,17,16,17,17,17,17,17,17,17,16,17,16,17,17]","45","716","417","false","20","20","black","1","false","1","1","1440","960","rdk","k","","","","0.5399999999999999","0.24",""
"","null","","html-keyboard-response","129","88842","0.0-0.0-2.0-0.0-1.1-0.1-0.1-2.41","null","<p style='font-size: 60px; color: green'>正确!</p>","","","","","","","","","","","","","","","","","","","","","","","","","","","","","","","","","","","","","","","","","","","","","","","","",""
"","null","fixation","html-keyboard-response","130","89346","0.0-0.0-2.0-0.0-1.1-0.1-0.1-0.42","null","<p style='font-size: 48px; color: white'>+</p >","","","","","","","","","","","","","","","","","","","","","","","","","","","","","","","","","","","","","","","","","","","","","","","","",""
"","529","color_pract","rdk","131","89875","0.0-0.0-2.0-0.0-1.1-0.1-0.1-1.42","d","","true","[""d"",""k""]","d","3000","true","1","100","0","0","0","5.7","1","-1","3","600","600","[""hsl(0, 50%, 50%)"",""hsl(225, 50%, 50%)""]","[""hsl(0, 50%, 50%)"",""hsl(225, 50%, 50%)""]","7.6017647737322385","0.5399999999999999","0","circle","black","3","2","2","16.4375","[5,17,16,17,17,16,18,16,17,16,17,17,17,17,17,17,16,17,17,17,17,17,16,17,17,17,17,17,16,17,17,17]","32","716","417","false","20","20","black","1","false","1","1","1440","960","rdk","d","","","","0.5399999999999999","0.24",""
"","null","","html-keyboard-response","132","90383","0.0-0.0-2.0-0.0-1.1-0.1-0.1-2.42","null","<p style='font-size: 60px; color: green'>正确!</p>","","","","","","","","","","","","","","","","","","","","","","","","","","","","","","","","","","","","","","","","","","","","","","","","",""
"","null","fixation","html-keyboard-response","133","90897","0.0-0.0-2.0-0.0-1.1-0.1-0.1-0.43","null","<p style='font-size: 48px; color: white'>+</p >","","","","","","","","","","","","","","","","","","","","","","","","","","","","","","","","","","","","","","","","","","","","","","","","",""
"","652","color_pract","rdk","134","91550","0.0-0.0-2.0-0.0-1.1-0.1-0.1-1.43","d","","true","[""d"",""k""]","d","3000","true","1","100","0","0","0","5.7","1","-1","3","600","600","[""hsl(0, 50%, 50%)"",""hsl(225, 50%, 50%)""]","[""hsl(0, 50%, 50%)"",""hsl(225, 50%, 50%)""]","7.6017647737322385","0.5399999999999999","0","circle","black","3","2","2","16.41025641025641","[3,17,17,16,17,17,16,17,17,17,16,17,17,17,17,16,17,18,15,17,16,17,17,17,17,16,17,17,17,17,17,17,17,17,16,17,17,17,16]","39","716","417","false","20","20","black","1","false","1","1","1440","960","rdk","d","","","","0.5399999999999999","0.24",""
"","null","","html-keyboard-response","135","92064","0.0-0.0-2.0-0.0-1.1-0.1-0.1-2.43","null","<p style='font-size: 60px; color: green'>正确!</p>","","","","","","","","","","","","","","","","","","","","","","","","","","","","","","","","","","","","","","","","","","","","","","","","",""
"","null","fixation","html-keyboard-response","136","92577","0.0-0.0-2.0-0.0-1.1-0.1-0.1-0.44","null","<p style='font-size: 48px; color: white'>+</p >","","","","","","","","","","","","","","","","","","","","","","","","","","","","","","","","","","","","","","","","","","","","","","","","",""
"","760","color_pract","rdk","137","93339","0.0-0.0-2.0-0.0-1.1-0.1-0.1-1.44","k","","true","[""d"",""k""]","k","3000","true","1","100","0","0","0","5.7","1","-1","3","600","600","[""hsl(0, 50%, 50%)"",""hsl(225, 50%, 50%)""]","[""hsl(225, 50%, 50%)"",""hsl(0, 50%, 50%)""]","7.6017647737322385","0.5399999999999999","0","circle","black","3","2","2","16.52173913043478","[6,16,17,17,16,17,17,16,17,17,17,16,17,17,17,17,17,17,17,17,17,17,17,17,17,17,17,16,17,16,17,17,16,17,16,17,16,17,17,17,16,17,16,17,17,17]","46","716","417","false","20","20","black","1","false","1","1","1440","960","rdk","k","","","","0.5399999999999999","0.24",""
"","null","","html-keyboard-response","138","93844","0.0-0.0-2.0-0.0-1.1-0.1-0.1-2.44","null","<p style='font-size: 60px; color: green'>正确!</p>","","","","","","","","","","","","","","","","","","","","","","","","","","","","","","","","","","","","","","","","","","","","","","","","",""
"","null","fixation","html-keyboard-response","139","94348","0.0-0.0-2.0-0.0-1.1-0.1-0.1-0.45","null","<p style='font-size: 48px; color: white'>+</p >","","","","","","","","","","","","","","","","","","","","","","","","","","","","","","","","","","","","","","","","","","","","","","","","",""
"","588","color_pract","rdk","140","94937","0.0-0.0-2.0-0.0-1.1-0.1-0.1-1.45","d","","true","[""d"",""k""]","d","3000","true","1","100","0","0","0","5.7","1","-1","3","600","600","[""hsl(0, 50%, 50%)"",""hsl(225, 50%, 50%)""]","[""hsl(0, 50%, 50%)"",""hsl(225, 50%, 50%)""]","7.6017647737322385","0.5399999999999999","0","circle","black","3","2","2","16.305555555555557","[7,12,17,16,17,16,17,17,16,18,16,17,18,16,17,16,17,17,16,17,16,17,17,17,17,16,17,17,17,16,17,17,16,17,17,16]","36","716","417","false","20","20","black","1","false","1","1","1440","960","rdk","d","","","","0.5399999999999999","0.24",""
"","null","","html-keyboard-response","141","95450","0.0-0.0-2.0-0.0-1.1-0.1-0.1-2.45","null","<p style='font-size: 60px; color: green'>正确!</p>","","","","","","","","","","","","","","","","","","","","","","","","","","","","","","","","","","","","","","","","","","","","","","","","",""
"","null","fixation","html-keyboard-response","142","95960","0.0-0.0-2.0-0.0-1.1-0.1-0.1-0.46","null","<p style='font-size: 48px; color: white'>+</p >","","","","","","","","","","","","","","","","","","","","","","","","","","","","","","","","","","","","","","","","","","","","","","","","",""
"","719","color_pract","rdk","143","96679","0.0-0.0-2.0-0.0-1.1-0.1-0.1-1.46","d","","true","[""d"",""k""]","d","3000","true","1","100","0","0","0","5.7","1","-1","3","600","600","[""hsl(0, 50%, 50%)"",""hsl(225, 50%, 50%)""]","[""hsl(0, 50%, 50%)"",""hsl(225, 50%, 50%)""]","7.6017647737322385","0.5399999999999999","0","circle","black","3","2","2","16.58139534883721","[8,17,17,17,17,17,16,17,17,17,16,17,17,17,16,17,17,17,16,17,17,17,17,16,17,17,17,16,17,17,16,17,17,16,17,17,16,17,17,17,17,17,17]","43","716","417","false","20","20","black","1","false","1","1","1440","960","rdk","d","","","","0.5399999999999999","0.24",""
"","null","","html-keyboard-response","144","97194","0.0-0.0-2.0-0.0-1.1-0.1-0.1-2.46","null","<p style='font-size: 60px; color: green'>正确!</p>","","","","","","","","","","","","","","","","","","","","","","","","","","","","","","","","","","","","","","","","","","","","","","","","",""
"","null","fixation","html-keyboard-response","145","97696","0.0-0.0-2.0-0.0-1.1-0.1-0.1-0.47","null","<p style='font-size: 48px; color: white'>+</p >","","","","","","","","","","","","","","","","","","","","","","","","","","","","","","","","","","","","","","","","","","","","","","","","",""
"","835","color_pract","rdk","146","98532","0.0-0.0-2.0-0.0-1.1-0.1-0.1-1.47","k","","true","[""d"",""k""]","k","3000","true","1","100","0","0","0","5.7","1","-1","3","600","600","[""hsl(0, 50%, 50%)"",""hsl(225, 50%, 50%)""]","[""hsl(225, 50%, 50%)"",""hsl(0, 50%, 50%)""]","7.6017647737322385","0.5399999999999999","0","circle","black","3","2","2","16.5","[4,18,16,16,17,17,17,17,17,16,17,16,17,17,16,17,17,17,17,16,17,17,17,16,17,17,16,16,16,18,17,17,17,16,17,17,16,16,17,16,17,17,17,17,17,17,17,17,17,17]","50","716","417","false","20","20","black","1","false","1","1","1440","960","rdk","k","","","","0.5399999999999999","0.24",""
"","null","","html-keyboard-response","147","99046","0.0-0.0-2.0-0.0-1.1-0.1-0.1-2.47","null","<p style='font-size: 60px; color: green'>正确!</p>","","","","","","","","","","","","","","","","","","","","","","","","","","","","","","","","","","","","","","","","","","","","","","","","",""
"","null","fixation","html-keyboard-response","148","99554","0.0-0.0-2.0-0.0-1.1-0.1-0.1-0.48","null","<p style='font-size: 48px; color: white'>+</p >","","","","","","","","","","","","","","","","","","","","","","","","","","","","","","","","","","","","","","","","","","","","","","","","",""
"","740","color_pract","rdk","149","100295","0.0-0.0-2.0-0.0-1.1-0.1-0.1-1.48","d","","true","[""d"",""k""]","d","3000","true","1","100","0","0","0","5.7","1","-1","3","600","600","[""hsl(0, 50%, 50%)"",""hsl(225, 50%, 50%)""]","[""hsl(0, 50%, 50%)"",""hsl(225, 50%, 50%)""]","7.6017647737322385","0.5399999999999999","0","circle","black","3","2","2","16.681818181818183","[12,17,17,17,17,16,17,16,17,17,16,17,17,17,17,17,17,16,16,17,17,16,17,16,17,17,17,17,16,18,17,17,17,17,17,17,17,16,17,17,17,17,16,17]","44","716","417","false","20","20","black","1","false","1","1","1440","960","rdk","d","","","","0.5399999999999999","0.24",""
"","null","","html-keyboard-response","150","100796","0.0-0.0-2.0-0.0-1.1-0.1-0.1-2.48","null","<p style='font-size: 60px; color: green'>正确!</p>","","","","","","","","","","","","","","","","","","","","","","","","","","","","","","","","","","","","","","","","","","","","","","","","",""
"","null","fixation","html-keyboard-response","151","101306","0.0-0.0-2.0-0.0-1.1-0.1-0.1-0.49","null","<p style='font-size: 48px; color: white'>+</p >","","","","","","","","","","","","","","","","","","","","","","","","","","","","","","","","","","","","","","","","","","","","","","","","",""
"","921","color_pract","rdk","152","102229","0.0-0.0-2.0-0.0-1.1-0.1-0.1-1.49","d","","true","[""d"",""k""]","d","3000","true","1","100","0","0","0","5.7","1","-1","3","600","600","[""hsl(0, 50%, 50%)"",""hsl(225, 50%, 50%)""]","[""hsl(0, 50%, 50%)"",""hsl(225, 50%, 50%)""]","7.6017647737322385","0.5399999999999999","0","circle","black","3","2","2","16.745454545454546","[11,19,16,17,17,16,17,17,17,17,16,17,17,17,17,17,17,17,17,17,17,17,15,18,16,17,16,16,17,17,17,17,17,17,17,17,17,17,17,17,17,17,17,16,17,17,17,16,17,17,17,16,17,17,17]","55","716","417","false","20","20","black","1","false","1","1","1440","960","rdk","d","","","","0.5399999999999999","0.24",""
"","null","","html-keyboard-response","153","102737","0.0-0.0-2.0-0.0-1.1-0.1-0.1-2.49","null","<p style='font-size: 60px; color: green'>正确!</p>","","","","","","","","","","","","","","","","","","","","","","","","","","","","","","","","","","","","","","","","","","","","","","","","",""
"","null","fixation","html-keyboard-response","154","103251","0.0-0.0-2.0-0.0-1.1-0.1-0.1-0.50","null","<p style='font-size: 48px; color: white'>+</p >","","","","","","","","","","","","","","","","","","","","","","","","","","","","","","","","","","","","","","","","","","","","","","","","",""
"","880","color_pract","rdk","155","104133","0.0-0.0-2.0-0.0-1.1-0.1-0.1-1.50","k","","true","[""d"",""k""]","k","3000","true","1","100","0","0","0","5.7","1","-1","3","600","600","[""hsl(0, 50%, 50%)"",""hsl(225, 50%, 50%)""]","[""hsl(225, 50%, 50%)"",""hsl(0, 50%, 50%)""]","7.6017647737322385","0.5399999999999999","0","circle","black","3","2","2","16.634615384615383","[12,17,16,16,18,16,17,17,17,16,16,17,17,18,17,17,16,17,17,16,18,14,17,17,17,17,17,16,17,17,17,17,17,17,17,16,17,16,18,16,17,16,17,17,17,16,17,17,16,17,16,17]","52","716","417","false","20","20","black","1","false","1","1","1440","960","rdk","k","","","","0.5399999999999999","0.24",""
"","null","","html-keyboard-response","156","104642","0.0-0.0-2.0-0.0-1.1-0.1-0.1-2.50","null","<p style='font-size: 60px; color: green'>正确!</p>","","","","","","","","","","","","","","","","","","","","","","","","","","","","","","","","","","","","","","","","","","","","","","","","",""
"","null","fixation","html-keyboard-response","157","105153","0.0-0.0-2.0-0.0-1.1-0.1-0.1-0.51","null","<p style='font-size: 48px; color: white'>+</p >","","","","","","","","","","","","","","","","","","","","","","","","","","","","","","","","","","","","","","","","","","","","","","","","",""
"","876","color_pract","rdk","158","106030","0.0-0.0-2.0-0.0-1.1-0.1-0.1-1.51","k","","true","[""d"",""k""]","k","3000","true","1","100","0","0","0","5.7","1","-1","3","600","600","[""hsl(0, 50%, 50%)"",""hsl(225, 50%, 50%)""]","[""hsl(225, 50%, 50%)"",""hsl(0, 50%, 50%)""]","7.6017647737322385","0.5399999999999999","0","circle","black","3","2","2","16.75","[14,17,17,17,16,17,17,17,15,17,17,17,18,16,19,15,16,17,17,16,18,17,17,16,16,17,17,17,17,17,17,16,17,17,16,16,17,18,15,17,17,17,18,16,17,16,18,17,17,17,17,17]","52","716","417","false","20","20","black","1","false","1","1","1440","960","rdk","k","","","","0.5399999999999999","0.24",""
"","null","","html-keyboard-response","159","106541","0.0-0.0-2.0-0.0-1.1-0.1-0.1-2.51","null","<p style='font-size: 60px; color: green'>正确!</p>","","","","","","","","","","","","","","","","","","","","","","","","","","","","","","","","","","","","","","","","","","","","","","","","",""
"","null","fixation","html-keyboard-response","160","107055","0.0-0.0-2.0-0.0-1.1-0.1-0.1-0.52","null","<p style='font-size: 48px; color: white'>+</p >","","","","","","","","","","","","","","","","","","","","","","","","","","","","","","","","","","","","","","","","","","","","","","","","",""
"","737","color_pract","rdk","161","107793","0.0-0.0-2.0-0.0-1.1-0.1-0.1-1.52","d","","false","[""d"",""k""]","k","3000","true","1","100","0","0","0","5.7","1","-1","3","600","600","[""hsl(0, 50%, 50%)"",""hsl(225, 50%, 50%)""]","[""hsl(225, 50%, 50%)"",""hsl(0, 50%, 50%)""]","7.6017647737322385","0.5399999999999999","0","circle","black","3","2","2","16.636363636363637","[11,17,18,16,17,17,17,17,16,17,17,17,17,17,16,15,17,17,17,17,17,17,17,16,17,16,17,16,17,17,17,16,17,17,17,16,17,16,17,17,17,17,16,18]","44","716","417","false","20","20","black","1","false","1","1","1440","960","rdk","k","","","","0.5399999999999999","0.24",""
"","null","","html-keyboard-response","162","108298","0.0-0.0-2.0-0.0-1.1-0.1-0.1-2.52","null","<p style='font-size: 60px; color: red'>错误!</p>","","","","","","","","","","","","","","","","","","","","","","","","","","","","","","","","","","","","","","","","","","","","","","","","",""
"","null","fixation","html-keyboard-response","163","108805","0.0-0.0-2.0-0.0-1.1-0.1-0.1-0.53","null","<p style='font-size: 48px; color: white'>+</p >","","","","","","","","","","","","","","","","","","","","","","","","","","","","","","","","","","","","","","","","","","","","","","","","",""
"","877","color_pract","rdk","164","109684","0.0-0.0-2.0-0.0-1.1-0.1-0.1-1.53","d","","true","[""d"",""k""]","d","3000","true","1","100","0","0","0","5.7","1","-1","3","600","600","[""hsl(0, 50%, 50%)"",""hsl(225, 50%, 50%)""]","[""hsl(0, 50%, 50%)"",""hsl(225, 50%, 50%)""]","7.6017647737322385","0.5599999999999999","0","circle","black","3","2","2","16.71153846153846","[9,17,17,16,17,16,17,18,16,17,17,17,18,16,17,17,17,16,17,16,17,18,16,17,17,17,17,17,17,17,16,15,16,17,17,17,17,17,18,17,16,18,17,17,17,17,17,17,16,17,16,19]","52","716","417","false","20","20","black","1","false","1","1","1440","960","rdk","d","","","","0.5599999999999999","0.24",""
"","null","","html-keyboard-response","165","110190","0.0-0.0-2.0-0.0-1.1-0.1-0.1-2.53","null","<p style='font-size: 60px; color: green'>正确!</p>","","","","","","","","","","","","","","","","","","","","","","","","","","","","","","","","","","","","","","","","","","","","","","","","",""
"","null","fixation","html-keyboard-response","166","110700","0.0-0.0-2.0-0.0-1.1-0.1-0.1-0.54","null","<p style='font-size: 48px; color: white'>+</p >","","","","","","","","","","","","","","","","","","","","","","","","","","","","","","","","","","","","","","","","","","","","","","","","",""
"","715","color_pract","rdk","167","111417","0.0-0.0-2.0-0.0-1.1-0.1-0.1-1.54","k","","true","[""d"",""k""]","k","3000","true","1","100","0","0","0","5.7","1","-1","3","600","600","[""hsl(0, 50%, 50%)"",""hsl(225, 50%, 50%)""]","[""hsl(225, 50%, 50%)"",""hsl(0, 50%, 50%)""]","7.6017647737322385","0.5599999999999999","0","circle","black","3","2","2","16.714285714285715","[15,17,17,16,17,17,18,17,17,16,18,15,17,16,16,17,18,17,17,17,16,17,17,16,17,16,16,18,16,18,17,17,16,16,17,18,15,17,16,17,17,17]","42","716","417","false","20","20","black","1","false","1","1","1440","960","rdk","k","","","","0.5599999999999999","0.24",""
"","null","","html-keyboard-response","168","111931","0.0-0.0-2.0-0.0-1.1-0.1-0.1-2.54","null","<p style='font-size: 60px; color: green'>正确!</p>","","","","","","","","","","","","","","","","","","","","","","","","","","","","","","","","","","","","","","","","","","","","","","","","",""
"","null","fixation","html-keyboard-response","169","112442","0.0-0.0-2.0-0.0-1.1-0.1-0.1-0.55","null","<p style='font-size: 48px; color: white'>+</p >","","","","","","","","","","","","","","","","","","","","","","","","","","","","","","","","","","","","","","","","","","","","","","","","",""
"","647","color_pract","rdk","170","113091","0.0-0.0-2.0-0.0-1.1-0.1-0.1-1.55","d","","true","[""d"",""k""]","d","3000","true","1","100","0","0","0","5.7","1","-1","3","600","600","[""hsl(0, 50%, 50%)"",""hsl(225, 50%, 50%)""]","[""hsl(0, 50%, 50%)"",""hsl(225, 50%, 50%)""]","7.6017647737322385","0.5399999999999999","0","circle","black","3","2","2","16.53846153846154","[17,5,18,16,17,17,17,17,16,17,16,17,16,18,16,17,19,15,17,17,17,16,17,17,17,17,17,17,17,16,17,17,17,16,17,17,18,15,18]","39","716","417","false","20","20","black","1","false","1","1","1440","960","rdk","d","","","","0.5399999999999999","0.24",""
"","null","","html-keyboard-response","171","113600","0.0-0.0-2.0-0.0-1.1-0.1-0.1-2.55","null","<p style='font-size: 60px; color: green'>正确!</p>","","","","","","","","","","","","","","","","","","","","","","","","","","","","","","","","","","","","","","","","","","","","","","","","",""
"","null","fixation","html-keyboard-response","172","114103","0.0-0.0-2.0-0.0-1.1-0.1-0.1-0.56","null","<p style='font-size: 48px; color: white'>+</p >","","","","","","","","","","","","","","","","","","","","","","","","","","","","","","","","","","","","","","","","","","","","","","","","",""
"","720","color_pract","rdk","173","114825","0.0-0.0-2.0-0.0-1.1-0.1-0.1-1.56","d","","true","[""d"",""k""]","d","3000","true","1","100","0","0","0","5.7","1","-1","3","600","600","[""hsl(0, 50%, 50%)"",""hsl(225, 50%, 50%)""]","[""hsl(0, 50%, 50%)"",""hsl(225, 50%, 50%)""]","7.6017647737322385","0.5399999999999999","0","circle","black","3","2","2","16.697674418604652","[14,17,16,16,17,17,17,17,17,17,17,17,16,16,17,17,17,17,16,17,17,17,17,16,17,17,17,16,17,17,17,17,16,17,17,16,17,17,16,17,16,16,19]","43","716","417","false","20","20","black","1","false","1","1","1440","960","rdk","d","","","","0.5399999999999999","0.24",""
"","null","","html-keyboard-response","174","115330","0.0-0.0-2.0-0.0-1.1-0.1-0.1-2.56","null","<p style='font-size: 60px; color: green'>正确!</p>","","","","","","","","","","","","","","","","","","","","","","","","","","","","","","","","","","","","","","","","","","","","","","","","",""
"","null","fixation","html-keyboard-response","175","115835","0.0-0.0-2.0-0.0-1.1-0.1-0.1-0.57","null","<p style='font-size: 48px; color: white'>+</p >","","","","","","","","","","","","","","","","","","","","","","","","","","","","","","","","","","","","","","","","","","","","","","","","",""
"","843","color_pract","rdk","176","116680","0.0-0.0-2.0-0.0-1.1-0.1-0.1-1.57","k","","true","[""d"",""k""]","k","3000","true","1","100","0","0","0","5.7","1","-1","3","600","600","[""hsl(0, 50%, 50%)"",""hsl(225, 50%, 50%)""]","[""hsl(225, 50%, 50%)"",""hsl(0, 50%, 50%)""]","7.6017647737322385","0.5199999999999999","0","circle","black","3","2","2","16.8","[15,17,17,17,17,15,17,16,18,17,16,17,17,17,16,17,17,17,17,17,17,17,16,17,17,17,17,17,17,17,17,17,17,17,17,16,17,17,17,17,17,16,16,18,16,17,17,17,17,17]","50","716","417","false","20","20","black","1","false","1","1","1440","960","rdk","k","","","","0.5199999999999999","0.24",""
"","null","","html-keyboard-response","177","117191","0.0-0.0-2.0-0.0-1.1-0.1-0.1-2.57","null","<p style='font-size: 60px; color: green'>正确!</p>","","","","","","","","","","","","","","","","","","","","","","","","","","","","","","","","","","","","","","","","","","","","","","","","",""
"","null","fixation","html-keyboard-response","178","117701","0.0-0.0-2.0-0.0-1.1-0.1-0.1-0.58","null","<p style='font-size: 48px; color: white'>+</p >","","","","","","","","","","","","","","","","","","","","","","","","","","","","","","","","","","","","","","","","","","","","","","","","",""
"","989","color_pract","rdk","179","118692","0.0-0.0-2.0-0.0-1.1-0.1-0.1-1.58","k","","true","[""d"",""k""]","k","3000","true","1","100","0","0","0","5.7","1","-1","3","600","600","[""hsl(0, 50%, 50%)"",""hsl(225, 50%, 50%)""]","[""hsl(225, 50%, 50%)"",""hsl(0, 50%, 50%)""]","7.6017647737322385","0.5199999999999999","0","circle","black","3","2","2","16.74576271186441","[13,17,17,17,17,17,16,17,17,17,17,17,17,17,17,16,18,16,17,16,17,16,17,17,17,17,17,16,17,17,16,17,16,17,17,16,16,17,17,16,17,17,17,17,16,17,17,17,17,17,16,17,16,18,16,17,17,17,19]","59","716","417","false","20","20","black","1","false","1","1","1440","960","rdk","k","","","","0.5199999999999999","0.24",""
"","null","","html-keyboard-response","180","119201","0.0-0.0-2.0-0.0-1.1-0.1-0.1-2.58","null","<p style='font-size: 60px; color: green'>正确!</p>","","","","","","","","","","","","","","","","","","","","","","","","","","","","","","","","","","","","","","","","","","","","","","","","",""
"","null","fixation","html-keyboard-response","181","119719","0.0-0.0-2.0-0.0-1.1-0.1-0.1-0.59","null","<p style='font-size: 48px; color: white'>+</p >","","","","","","","","","","","","","","","","","","","","","","","","","","","","","","","","","","","","","","","","","","","","","","","","",""
"","698","color_pract","rdk","182","120418","0.0-0.0-2.0-0.0-1.1-0.1-0.1-1.59","d","","true","[""d"",""k""]","d","3000","true","1","100","0","0","0","5.7","1","-1","3","600","600","[""hsl(0, 50%, 50%)"",""hsl(225, 50%, 50%)""]","[""hsl(0, 50%, 50%)"",""hsl(225, 50%, 50%)""]","7.6017647737322385","0.51","0","circle","black","3","2","2","16.70731707317073","[13,17,17,17,16,17,16,17,18,16,16,19,16,16,18,15,16,17,18,18,16,17,15,18,18,17,15,17,17,17,17,17,16,17,17,16,17,17,17,16,18]","41","716","417","false","20","20","black","1","false","1","1","1440","960","rdk","d","","","","0.51","0.24",""
"","null","","html-keyboard-response","183","120929","0.0-0.0-2.0-0.0-1.1-0.1-0.1-2.59","null","<p style='font-size: 60px; color: green'>正确!</p>","","","","","","","","","","","","","","","","","","","","","","","","","","","","","","","","","","","","","","","","","","","","","","","","",""
"","null","fixation","html-keyboard-response","184","121434","0.0-0.0-2.0-0.0-1.1-0.1-0.1-0.60","null","<p style='font-size: 48px; color: white'>+</p >","","","","","","","","","","","","","","","","","","","","","","","","","","","","","","","","","","","","","","","","","","","","","","","","",""
"","709","color_pract","rdk","185","122145","0.0-0.0-2.0-0.0-1.1-0.1-0.1-1.60","d","","true","[""d"",""k""]","d","3000","true","1","100","0","0","0","5.7","1","-1","3","600","600","[""hsl(0, 50%, 50%)"",""hsl(225, 50%, 50%)""]","[""hsl(0, 50%, 50%)"",""hsl(225, 50%, 50%)""]","7.6017647737322385","0.51","0","circle","black","3","2","2","16.595238095238095","[20,10,16,18,15,17,18,16,17,18,16,16,17,17,17,16,17,17,16,17,17,18,15,17,15,17,16,17,16,17,17,17,17,17,16,17,17,16,17,17,16,17]","42","716","417","false","20","20","black","1","false","1","1","1440","960","rdk","d","","","","0.51","0.24",""
"","null","","html-keyboard-response","186","122661","0.0-0.0-2.0-0.0-1.1-0.1-0.1-2.60","null","<p style='font-size: 60px; color: green'>正确!</p>","","","","","","","","","","","","","","","","","","","","","","","","","","","","","","","","","","","","","","","","","","","","","","","","",""
"","null","fixation","html-keyboard-response","187","123167","0.0-0.0-2.0-0.0-1.1-0.1-0.1-0.61","null","<p style='font-size: 48px; color: white'>+</p >","","","","","","","","","","","","","","","","","","","","","","","","","","","","","","","","","","","","","","","","","","","","","","","","",""
"","779","color_pract","rdk","188","123948","0.0-0.0-2.0-0.0-1.1-0.1-0.1-1.61","k","","true","[""d"",""k""]","k","3000","true","1","100","0","0","0","5.7","1","-1","3","600","600","[""hsl(0, 50%, 50%)"",""hsl(225, 50%, 50%)""]","[""hsl(225, 50%, 50%)"",""hsl(0, 50%, 50%)""]","7.6017647737322385","0.51","0","circle","black","3","2","2","16.76086956521739","[16,18,16,17,16,17,16,17,17,17,16,16,16,17,18,15,17,18,16,17,17,17,17,17,16,18,17,15,18,16,17,16,17,16,18,17,17,17,17,16,18,16,17,18,16,17]","46","716","417","false","20","20","black","1","false","1","1","1440","960","rdk","k","","","","0.51","0.24",""
"","null","","html-keyboard-response","189","124459","0.0-0.0-2.0-0.0-1.1-0.1-0.1-2.61","null","<p style='font-size: 60px; color: green'>正确!</p>","","","","","","","","","","","","","","","","","","","","","","","","","","","","","","","","","","","","","","","","","","","","","","","","",""
"","null","fixation","html-keyboard-response","190","124965","0.0-0.0-2.0-0.0-1.1-0.1-0.1-0.62","null","<p style='font-size: 48px; color: white'>+</p >","","","","","","","","","","","","","","","","","","","","","","","","","","","","","","","","","","","","","","","","","","","","","","","","",""
"","611","color_pract","rdk","191","125579","0.0-0.0-2.0-0.0-1.1-0.1-0.1-1.62","d","","true","[""d"",""k""]","d","3000","true","1","100","0","0","0","5.7","1","-1","3","600","600","[""hsl(0, 50%, 50%)"",""hsl(225, 50%, 50%)""]","[""hsl(0, 50%, 50%)"",""hsl(225, 50%, 50%)""]","7.6017647737322385","0.51","0","circle","black","3","2","2","16.72222222222222","[15,18,16,17,16,17,17,18,16,17,16,17,17,16,17,16,17,16,17,18,17,17,16,17,16,19,15,16,17,16,17,17,17,17,17,17]","36","716","417","false","20","20","black","1","false","1","1","1440","960","rdk","d","","","","0.51","0.24",""
"","null","","html-keyboard-response","192","126082","0.0-0.0-2.0-0.0-1.1-0.1-0.1-2.62","null","<p style='font-size: 60px; color: green'>正确!</p>","","","","","","","","","","","","","","","","","","","","","","","","","","","","","","","","","","","","","","","","","","","","","","","","",""
"","null","fixation","html-keyboard-response","193","126585","0.0-0.0-2.0-0.0-1.1-0.1-0.1-0.63","null","<p style='font-size: 48px; color: white'>+</p >","","","","","","","","","","","","","","","","","","","","","","","","","","","","","","","","","","","","","","","","","","","","","","","","",""
"","960","color_pract","rdk","194","127547","0.0-0.0-2.0-0.0-1.1-0.1-0.1-1.63","d","","false","[""d"",""k""]","k","3000","true","1","100","0","0","0","5.7","1","-1","3","600","600","[""hsl(0, 50%, 50%)"",""hsl(225, 50%, 50%)""]","[""hsl(225, 50%, 50%)"",""hsl(0, 50%, 50%)""]","7.6017647737322385","0.51","0","circle","black","3","2","2","16.666666666666668","[13,17,16,17,17,17,17,17,16,17,17,17,17,16,17,17,17,17,17,17,16,16,17,17,16,18,16,17,17,17,16,17,17,16,17,17,17,16,17,16,17,16,17,17,16,16,17,17,16,17,17,17,17,17,16,18,16]","57","716","417","false","20","20","black","1","false","1","1","1440","960","rdk","k","","","","0.51","0.24",""
"","null","","html-keyboard-response","195","128052","0.0-0.0-2.0-0.0-1.1-0.1-0.1-2.63","null","<p style='font-size: 60px; color: red'>错误!</p>","","","","","","","","","","","","","","","","","","","","","","","","","","","","","","","","","","","","","","","","","","","","","","","","",""
"","null","fixation","html-keyboard-response","196","128566","0.0-0.0-2.0-0.0-1.1-0.1-0.1-0.64","null","<p style='font-size: 48px; color: white'>+</p >","","","","","","","","","","","","","","","","","","","","","","","","","","","","","","","","","","","","","","","","","","","","","","","","",""
"","777","color_pract","rdk","197","129345","0.0-0.0-2.0-0.0-1.1-0.1-0.1-1.64","k","","true","[""d"",""k""]","k","3000","true","1","100","0","0","0","5.7","1","-1","3","600","600","[""hsl(0, 50%, 50%)"",""hsl(225, 50%, 50%)""]","[""hsl(225, 50%, 50%)"",""hsl(0, 50%, 50%)""]","7.6017647737322385","0.53","0","circle","black","3","2","2","16.804347826086957","[19,15,18,16,17,17,17,17,16,17,18,15,17,16,18,17,17,17,17,17,16,16,17,17,17,16,18,15,20,16,16,16,17,17,16,18,16,17,17,16,17,17,17,17,17,16]","46","716","417","false","20","20","black","1","false","1","1","1440","960","rdk","k","","","","0.53","0.24",""
"","null","","html-keyboard-response","198","129859","0.0-0.0-2.0-0.0-1.1-0.1-0.1-2.64","null","<p style='font-size: 60px; color: green'>正确!</p>","","","","","","","","","","","","","","","","","","","","","","","","","","","","","","","","","","","","","","","","","","","","","","","","",""
"","null","fixation","html-keyboard-response","199","130370","0.0-0.0-2.0-0.0-1.1-0.1-0.1-0.65","null","<p style='font-size: 48px; color: white'>+</p >","","","","","","","","","","","","","","","","","","","","","","","","","","","","","","","","","","","","","","","","","","","","","","","","",""
"","810","color_pract","rdk","200","131182","0.0-0.0-2.0-0.0-1.1-0.1-0.1-1.65","k","","false","[""d"",""k""]","d","3000","true","1","100","0","0","0","5.7","1","-1","3","600","600","[""hsl(0, 50%, 50%)"",""hsl(225, 50%, 50%)""]","[""hsl(0, 50%, 50%)"",""hsl(225, 50%, 50%)""]","7.6017647737322385","0.53","0","circle","black","3","2","2","16.625","[19,7,18,16,17,17,17,16,17,17,18,18,15,17,18,17,16,16,17,18,15,17,16,18,17,17,16,16,17,16,17,17,17,17,17,16,17,17,17,16,17,17,17,16,17,17,16,17]","48","716","417","false","20","20","black","1","false","1","1","1440","960","rdk","d","","","","0.53","0.24",""
"","null","","html-keyboard-response","201","131692","0.0-0.0-2.0-0.0-1.1-0.1-0.1-2.65","null","<p style='font-size: 60px; color: red'>错误!</p>","","","","","","","","","","","","","","","","","","","","","","","","","","","","","","","","","","","","","","","","","","","","","","","","",""
"","null","fixation","html-keyboard-response","202","132199","0.0-0.0-2.0-0.0-1.1-0.1-0.1-0.66","null","<p style='font-size: 48px; color: white'>+</p >","","","","","","","","","","","","","","","","","","","","","","","","","","","","","","","","","","","","","","","","","","","","","","","","",""
"","843","color_pract","rdk","203","133045","0.0-0.0-2.0-0.0-1.1-0.1-0.1-1.66","d","","true","[""d"",""k""]","d","3000","true","1","100","0","0","0","5.7","1","-1","3","600","600","[""hsl(0, 50%, 50%)"",""hsl(225, 50%, 50%)""]","[""hsl(0, 50%, 50%)"",""hsl(225, 50%, 50%)""]","7.6017647737322385","0.55","0","circle","black","3","2","2","16.74","[16,18,16,16,16,18,16,17,17,17,17,17,17,17,17,17,16,18,16,17,16,17,17,17,16,16,20,14,16,17,17,18,16,16,17,17,16,17,18,16,17,17,16,16,16,17,16,18,17,17]","50","716","417","false","20","20","black","1","false","1","1","1440","960","rdk","d","","","","0.55","0.24",""
"","null","","html-keyboard-response","204","133558","0.0-0.0-2.0-0.0-1.1-0.1-0.1-2.66","null","<p style='font-size: 60px; color: green'>正确!</p>","","","","","","","","","","","","","","","","","","","","","","","","","","","","","","","","","","","","","","","","","","","","","","","","",""
"","null","fixation","html-keyboard-response","205","134066","0.0-0.0-2.0-0.0-1.1-0.1-0.1-0.67","null","<p style='font-size: 48px; color: white'>+</p >","","","","","","","","","","","","","","","","","","","","","","","","","","","","","","","","","","","","","","","","","","","","","","","","",""
"","784","color_pract","rdk","206","134852","0.0-0.0-2.0-0.0-1.1-0.1-0.1-1.67","k","","true","[""d"",""k""]","k","3000","true","1","100","0","0","0","5.7","1","-1","3","600","600","[""hsl(0, 50%, 50%)"",""hsl(225, 50%, 50%)""]","[""hsl(225, 50%, 50%)"",""hsl(0, 50%, 50%)""]","7.6017647737322385","0.55","0","circle","black","3","2","2","16.717391304347824","[15,18,16,16,17,17,17,17,16,16,17,17,17,17,17,17,17,16,17,17,17,16,17,16,17,17,17,17,16,17,16,18,16,16,17,17,16,18,17,17,17,17,17,17,16,16]","46","716","417","false","20","20","black","1","false","1","1","1440","960","rdk","k","","","","0.55","0.24",""
"","null","","html-keyboard-response","207","135361","0.0-0.0-2.0-0.0-1.1-0.1-0.1-2.67","null","<p style='font-size: 60px; color: green'>正确!</p>","","","","","","","","","","","","","","","","","","","","","","","","","","","","","","","","","","","","","","","","","","","","","","","","",""
"","null","fixation","html-keyboard-response","208","135868","0.0-0.0-2.0-0.0-1.1-0.1-0.1-0.68","null","<p style='font-size: 48px; color: white'>+</p >","","","","","","","","","","","","","","","","","","","","","","","","","","","","","","","","","","","","","","","","","","","","","","","","",""
"","940","color_pract","rdk","209","136810","0.0-0.0-2.0-0.0-1.1-0.1-0.1-1.68","d","","false","[""d"",""k""]","k","3000","true","1","100","0","0","0","5.7","1","-1","3","600","600","[""hsl(0, 50%, 50%)"",""hsl(225, 50%, 50%)""]","[""hsl(225, 50%, 50%)"",""hsl(0, 50%, 50%)""]","7.6017647737322385","0.53","0","circle","black","3","2","2","16.714285714285715","[13,16,17,16,17,17,16,17,17,17,16,17,16,16,17,17,17,17,16,17,17,16,17,18,16,17,17,17,17,17,16,17,16,17,17,17,17,17,17,17,17,17,16,17,17,17,17,17,17,17,16,17,17,17,16,18]","56","716","417","false","20","20","black","1","false","1","1","1440","960","rdk","k","","","","0.53","0.24",""
"","null","","html-keyboard-response","210","137319","0.0-0.0-2.0-0.0-1.1-0.1-0.1-2.68","null","<p style='font-size: 60px; color: red'>错误!</p>","","","","","","","","","","","","","","","","","","","","","","","","","","","","","","","","","","","","","","","","","","","","","","","","",""
"","null","fixation","html-keyboard-response","211","137831","0.0-0.0-2.0-0.0-1.1-0.1-0.1-0.69","null","<p style='font-size: 48px; color: white'>+</p >","","","","","","","","","","","","","","","","","","","","","","","","","","","","","","","","","","","","","","","","","","","","","","","","",""
"","913","color_pract","rdk","212","138745","0.0-0.0-2.0-0.0-1.1-0.1-0.1-1.69","d","","true","[""d"",""k""]","d","3000","true","1","100","0","0","0","5.7","1","-1","3","600","600","[""hsl(0, 50%, 50%)"",""hsl(225, 50%, 50%)""]","[""hsl(0, 50%, 50%)"",""hsl(225, 50%, 50%)""]","7.6017647737322385","0.55","0","circle","black","3","2","2","16.77358490566038","[16,16,17,17,16,17,17,17,15,17,17,17,17,16,17,17,17,17,17,17,17,17,17,18,14,17,17,18,16,17,17,16,17,17,17,17,17,16,18,16,17,16,17,17,16,17,16,17,17,17,16,17,19]","53","716","417","false","20","20","black","1","false","1","1","1440","960","rdk","d","","","","0.55","0.24",""
"","null","","html-keyboard-response","213","139257","0.0-0.0-2.0-0.0-1.1-0.1-0.1-2.69","null","<p style='font-size: 60px; color: green'>正确!</p>","","","","","","","","","","","","","","","","","","","","","","","","","","","","","","","","","","","","","","","","","","","","","","","","",""
"","null","fixation","html-keyboard-response","214","139768","0.0-0.0-2.0-0.0-1.1-0.1-0.1-0.70","null","<p style='font-size: 48px; color: white'>+</p >","","","","","","","","","","","","","","","","","","","","","","","","","","","","","","","","","","","","","","","","","","","","","","","","",""
"","984","color_pract","rdk","215","140754","0.0-0.0-2.0-0.0-1.1-0.1-0.1-1.70","d","","true","[""d"",""k""]","d","3000","true","1","100","0","0","0","5.7","1","-1","3","600","600","[""hsl(0, 50%, 50%)"",""hsl(225, 50%, 50%)""]","[""hsl(0, 50%, 50%)"",""hsl(225, 50%, 50%)""]","7.6017647737322385","0.55","0","circle","black","3","2","2","16.689655172413794","[22,7,18,16,18,17,17,16,17,19,15,17,18,16,17,15,17,16,18,16,18,17,17,17,16,17,17,16,17,17,15,18,16,17,16,17,17,16,17,16,18,17,16,16,16,18,16,17,16,18,17,17,17,16,18,16,17,16]","58","716","417","false","20","20","black","1","false","1","1","1440","960","rdk","d","","","","0.55","0.24",""
"","null","","html-keyboard-response","216","141268","0.0-0.0-2.0-0.0-1.1-0.1-0.1-2.70","null","<p style='font-size: 60px; color: green'>正确!</p>","","","","","","","","","","","","","","","","","","","","","","","","","","","","","","","","","","","","","","","","","","","","","","","","",""
"","null","fixation","html-keyboard-response","217","141770","0.0-0.0-2.0-0.0-1.1-0.1-0.1-0.71","null","<p style='font-size: 48px; color: white'>+</p >","","","","","","","","","","","","","","","","","","","","","","","","","","","","","","","","","","","","","","","","","","","","","","","","",""
"","880","color_pract","rdk","218","142651","0.0-0.0-2.0-0.0-1.1-0.1-0.1-1.71","k","","true","[""d"",""k""]","k","3000","true","1","100","0","0","0","5.7","1","-1","3","600","600","[""hsl(0, 50%, 50%)"",""hsl(225, 50%, 50%)""]","[""hsl(225, 50%, 50%)"",""hsl(0, 50%, 50%)""]","7.6017647737322385","0.53","0","circle","black","3","2","2","16.73076923076923","[11,17,16,18,17,17,17,17,17,17,17,17,17,18,15,18,15,18,16,18,16,16,17,17,17,16,17,18,17,15,17,17,17,17,16,17,16,17,17,17,17,17,17,17,17,16,18,16,16,17,17,18]","52","716","417","false","20","20","black","1","false","1","1","1440","960","rdk","k","","","","0.53","0.24",""
"","null","","html-keyboard-response","219","143156","0.0-0.0-2.0-0.0-1.1-0.1-0.1-2.71","null","<p style='font-size: 60px; color: green'>正确!</p>","","","","","","","","","","","","","","","","","","","","","","","","","","","","","","","","","","","","","","","","","","","","","","","","",""
"","null","fixation","html-keyboard-response","220","143667","0.0-0.0-2.0-0.0-1.1-0.1-0.1-0.72","null","<p style='font-size: 48px; color: white'>+</p >","","","","","","","","","","","","","","","","","","","","","","","","","","","","","","","","","","","","","","","","","","","","","","","","",""
"","1112","color_pract","rdk","221","144780","0.0-0.0-2.0-0.0-1.1-0.1-0.1-1.72","k","","true","[""d"",""k""]","k","3000","true","1","100","0","0","0","5.7","1","-1","3","600","600","[""hsl(0, 50%, 50%)"",""hsl(225, 50%, 50%)""]","[""hsl(225, 50%, 50%)"",""hsl(0, 50%, 50%)""]","7.6017647737322385","0.53","0","circle","black","3","2","2","16.772727272727273","[16,16,17,16,17,17,16,17,16,17,16,17,17,17,16,17,17,16,17,17,17,17,16,16,16,17,17,17,17,17,17,16,16,17,17,16,18,16,17,17,16,17,17,17,17,17,16,16,17,17,17,17,16,17,16,17,17,17,17,18,16,16,19,16,17,21]","66","716","417","false","20","20","black","1","false","1","1","1440","960","rdk","k","","","","0.53","0.24",""
"","null","","html-keyboard-response","222","145284","0.0-0.0-2.0-0.0-1.1-0.1-0.1-2.72","null","<p style='font-size: 60px; color: green'>正确!</p>","","","","","","","","","","","","","","","","","","","","","","","","","","","","","","","","","","","","","","","","","","","","","","","","",""
"","null","fixation","html-keyboard-response","223","145800","0.0-0.0-2.0-0.0-1.1-0.1-0.1-0.73","null","<p style='font-size: 48px; color: white'>+</p >","","","","","","","","","","","","","","","","","","","","","","","","","","","","","","","","","","","","","","","","","","","","","","","","",""
"","846","color_pract","rdk","224","146648","0.0-0.0-2.0-0.0-1.1-0.1-0.1-1.73","d","","true","[""d"",""k""]","d","3000","true","1","100","0","0","0","5.7","1","-1","3","600","600","[""hsl(0, 50%, 50%)"",""hsl(225, 50%, 50%)""]","[""hsl(0, 50%, 50%)"",""hsl(225, 50%, 50%)""]","7.6017647737322385","0.51","0","circle","black","3","2","2","16.72","[12,25,9,17,17,17,17,16,17,17,18,16,17,17,17,17,18,16,17,16,17,16,17,18,15,18,16,17,18,16,17,16,17,17,16,17,17,16,17,17,16,17,17,17,17,17,17,16,17,17]","50","716","417","false","20","20","black","1","false","1","1","1440","960","rdk","d","","","","0.51","0.24",""
"","null","","html-keyboard-response","225","147159","0.0-0.0-2.0-0.0-1.1-0.1-0.1-2.73","null","<p style='font-size: 60px; color: green'>正确!</p>","","","","","","","","","","","","","","","","","","","","","","","","","","","","","","","","","","","","","","","","","","","","","","","","",""
"","null","fixation","html-keyboard-response","226","147668","0.0-0.0-2.0-0.0-1.1-0.1-0.1-0.74","null","<p style='font-size: 48px; color: white'>+</p >","","","","","","","","","","","","","","","","","","","","","","","","","","","","","","","","","","","","","","","","","","","","","","","","",""
"","912","color_pract","rdk","227","148582","0.0-0.0-2.0-0.0-1.1-0.1-0.1-1.74","k","","true","[""d"",""k""]","k","3000","true","1","100","0","0","0","5.7","1","-1","3","600","600","[""hsl(0, 50%, 50%)"",""hsl(225, 50%, 50%)""]","[""hsl(225, 50%, 50%)"",""hsl(0, 50%, 50%)""]","7.6017647737322385","0.51","0","circle","black","3","2","2","16.685185185185187","[15,17,17,16,17,16,16,17,16,17,17,17,17,16,17,17,17,17,17,17,17,17,16,16,17,17,17,17,17,16,17,17,16,16,17,17,17,17,16,17,16,17,16,17,17,18,16,17,17,17,16,17,16,17]","54","716","417","false","20","20","black","1","false","1","1","1440","960","rdk","k","","","","0.51","0.24",""
"","null","","html-keyboard-response","228","149090","0.0-0.0-2.0-0.0-1.1-0.1-0.1-2.74","null","<p style='font-size: 60px; color: green'>正确!</p>","","","","","","","","","","","","","","","","","","","","","","","","","","","","","","","","","","","","","","","","","","","","","","","","",""
"","null","fixation","html-keyboard-response","229","149601","0.0-0.0-2.0-0.0-1.1-0.1-0.1-0.75","null","<p style='font-size: 48px; color: white'>+</p >","","","","","","","","","","","","","","","","","","","","","","","","","","","","","","","","","","","","","","","","","","","","","","","","",""
"","743","color_pract","rdk","230","150346","0.0-0.0-2.0-0.0-1.1-0.1-0.1-1.75","d","","true","[""d"",""k""]","d","3000","true","1","100","0","0","0","5.7","1","-1","3","600","600","[""hsl(0, 50%, 50%)"",""hsl(225, 50%, 50%)""]","[""hsl(0, 50%, 50%)"",""hsl(225, 50%, 50%)""]","7.6017647737322385","0.51","0","circle","black","3","2","2","16.59090909090909","[16,14,18,15,17,17,18,16,17,17,16,17,17,17,16,16,19,15,16,16,18,16,17,17,16,17,16,17,17,17,17,16,17,16,18,16,16,17,17,16,17,17,16,16]","44","716","417","false","20","20","black","1","false","1","1","1440","960","rdk","d","","","","0.51","0.24",""
"","null","","html-keyboard-response","231","150861","0.0-0.0-2.0-0.0-1.1-0.1-0.1-2.75","null","<p style='font-size: 60px; color: green'>正确!</p>","","","","","","","","","","","","","","","","","","","","","","","","","","","","","","","","","","","","","","","","","","","","","","","","",""
"","null","fixation","html-keyboard-response","232","151369","0.0-0.0-2.0-0.0-1.1-0.1-0.1-0.76","null","<p style='font-size: 48px; color: white'>+</p >","","","","","","","","","","","","","","","","","","","","","","","","","","","","","","","","","","","","","","","","","","","","","","","","",""
"","818","color_pract","rdk","233","152188","0.0-0.0-2.0-0.0-1.1-0.1-0.1-1.76","d","","true","[""d"",""k""]","d","3000","true","1","100","0","0","0","5.7","1","-1","3","600","600","[""hsl(0, 50%, 50%)"",""hsl(225, 50%, 50%)""]","[""hsl(0, 50%, 50%)"",""hsl(225, 50%, 50%)""]","7.6017647737322385","0.51","0","circle","black","3","2","2","16.714285714285715","[13,17,17,17,17,17,17,16,17,17,16,17,16,17,16,17,17,17,17,17,17,17,17,17,17,17,16,16,17,17,17,16,17,17,17,16,18,16,18,16,17,17,17,17,16,16,17,17,17]","49","716","417","false","20","20","black","1","false","1","1","1440","960","rdk","d","","","","0.51","0.24",""
"","null","","html-keyboard-response","234","152693","0.0-0.0-2.0-0.0-1.1-0.1-0.1-2.76","null","<p style='font-size: 60px; color: green'>正确!</p>","","","","","","","","","","","","","","","","","","","","","","","","","","","","","","","","","","","","","","","","","","","","","","","","",""
"","null","fixation","html-keyboard-response","235","153202","0.0-0.0-2.0-0.0-1.1-0.1-0.1-0.77","null","<p style='font-size: 48px; color: white'>+</p >","","","","","","","","","","","","","","","","","","","","","","","","","","","","","","","","","","","","","","","","","","","","","","","","",""
"","942","color_pract","rdk","236","154146","0.0-0.0-2.0-0.0-1.1-0.1-0.1-1.77","d","","true","[""d"",""k""]","d","3000","true","1","100","0","0","0","5.7","1","-1","3","600","600","[""hsl(0, 50%, 50%)"",""hsl(225, 50%, 50%)""]","[""hsl(0, 50%, 50%)"",""hsl(225, 50%, 50%)""]","7.6017647737322385","0.51","0","circle","black","3","2","2","16.589285714285715","[14,16,17,16,17,16,16,17,17,17,17,16,17,16,17,16,17,16,16,17,17,17,16,17,16,17,17,18,17,16,16,17,17,16,17,17,16,18,16,17,16,17,16,17,16,17,16,16,17,17,17,16,17,17,17,17]","56","716","417","false","20","20","black","1","false","1","1","1440","960","rdk","d","","","","0.51","0.24",""
"","null","","html-keyboard-response","237","154652","0.0-0.0-2.0-0.0-1.1-0.1-0.1-2.77","null","<p style='font-size: 60px; color: green'>正确!</p>","","","","","","","","","","","","","","","","","","","","","","","","","","","","","","","","","","","","","","","","","","","","","","","","",""
"","null","fixation","html-keyboard-response","238","155167","0.0-0.0-2.0-0.0-1.1-0.1-0.1-0.78","null","<p style='font-size: 48px; color: white'>+</p >","","","","","","","","","","","","","","","","","","","","","","","","","","","","","","","","","","","","","","","","","","","","","","","","",""
"","658","color_pract","rdk","239","155827","0.0-0.0-2.0-0.0-1.1-0.1-0.1-1.78","d","","false","[""d"",""k""]","k","3000","true","1","100","0","0","0","5.7","1","-1","3","600","600","[""hsl(0, 50%, 50%)"",""hsl(225, 50%, 50%)""]","[""hsl(225, 50%, 50%)"",""hsl(0, 50%, 50%)""]","7.6017647737322385","0.51","0","circle","black","3","2","2","16.71794871794872","[16,16,18,17,17,16,17,17,17,17,17,17,16,17,16,17,16,18,16,17,16,17,17,16,17,17,17,16,17,16,17,16,17,17,17,16,17,17,17]","39","716","417","false","20","20","black","1","false","1","1","1440","960","rdk","k","","","","0.51","0.24",""
"","null","","html-keyboard-response","240","156331","0.0-0.0-2.0-0.0-1.1-0.1-0.1-2.78","null","<p style='font-size: 60px; color: red'>错误!</p>","","","","","","","","","","","","","","","","","","","","","","","","","","","","","","","","","","","","","","","","","","","","","","","","",""
"","null","fixation","html-keyboard-response","241","156834","0.0-0.0-2.0-0.0-1.1-0.1-0.1-0.79","null","<p style='font-size: 48px; color: white'>+</p >","","","","","","","","","","","","","","","","","","","","","","","","","","","","","","","","","","","","","","","","","","","","","","","","",""
"","783","color_pract","rdk","242","157619","0.0-0.0-2.0-0.0-1.1-0.1-0.1-1.79","k","","true","[""d"",""k""]","k","3000","true","1","100","0","0","0","5.7","1","-1","3","600","600","[""hsl(0, 50%, 50%)"",""hsl(225, 50%, 50%)""]","[""hsl(225, 50%, 50%)"",""hsl(0, 50%, 50%)""]","7.6017647737322385","0.53","0","circle","black","3","2","2","16.717391304347824","[14,18,16,17,16,17,16,17,17,17,17,16,17,16,17,17,17,17,16,17,17,17,17,17,17,17,17,17,17,16,17,16,17,17,15,18,16,17,16,18,20,14,17,16,18,16]","46","716","417","false","20","20","black","1","false","1","1","1440","960","rdk","k","","","","0.53","0.24",""
"","null","","html-keyboard-response","243","158126","0.0-0.0-2.0-0.0-1.1-0.1-0.1-2.79","null","<p style='font-size: 60px; color: green'>正确!</p>","","","","","","","","","","","","","","","","","","","","","","","","","","","","","","","","","","","","","","","","","","","","","","","","",""
"","1007","","html-keyboard-response","244","159138","0.0-0.0-2.0-0.0-1.1-1.1"," ","<p style='font-size: 35px; color: white'>您的正确率为： 88% 。平均反应时为：802毫秒。</p>","","","","","","","","","","","","","","","","","","","","","","","","","","","","","","","","","","","","","","","","","","","","","","","","",""
"","1978","instruction_practiceEnd","html-keyboard-response","245","161117","0.0-0.0-2.0-0.0-2.0"," ","
