"success","rt","part","trial_type","trial_index","time_elapsed","internal_node_id","response","stimulus","correct","choices","correct_choice","trial_duration","response_ends_trial","number_of_apertures","number_of_dots","coherent_direction","coherence","opposite_coherence","dot_radius","dot_side_length","dot_life","move_distance","aperture_width","aperture_height","dot_color","dot_color_final","color_change_delay","target_color_proportion","motion_change_delay","dot_shape","background_color","RDK_type","aperture_type","reinsert_type","frame_rate","frame_rate_array","number_of_frames","aperture_center_x","aperture_center_y","fixation_cross","fixation_cross_width","fixation_cross_height","fixation_cross_color","fixation_cross_thickness","border","border_thickness","border_color","canvas_width","canvas_height","task","correct_responce","revs","correctNum","totalTrials","proportionColor","proportionMotion","data_label"
"true","1238","fullScreen","fullscreen","0","2250","0.0-0.0-0.0","","","","","","","","","","","","","","","","","","","","","","","","","","","","","","","","","","","","","","","","","","","","","","","","","","",""
"","13324","survey","survey","1","15616","0.0-0.0-1.0","{""sex"":""女"",""age"":21,""hands"":""右"",""color_blindness"":""都不是""}","","","","","","","","","","","","","","","","","","","","","","","","","","","","","","","","","","","","","","","","","","","","","","","","","",""
"","28652","pract_motion","html-keyboard-response","2","44269","0.0-0.0-2.0-0.0"," ","
    <div style=""text-align: left; color: white; padding: 10px""> 
      <h3 style=""text-align: center; font-size: 30px; margin: 10px"">运动方向判断任务</h3>
      <p>接下来，屏幕上会呈现一些运动的彩色圆点，</p>
      <p>大约 <span style=""font-weight: bold"">0.2秒</span> 后会有一定比例的点 <span style=""font-weight: bold"">一致地向左或向右运动</span> ，其余点随机运动</p >
      <p>您需要忽略点的颜色并又快又准地判断 <span style=""font-weight: bold"">点的一致运动方向是向左还是向右</span>:</p >
      <ul>
        <li><span style=""font-weight: bold"">向左</span>，请按键盘 <span style=""font-weight: bold"">左键</span></li>
        <li><span style=""font-weight: bold"">向右</span>，请按键盘 <span style=""font-weight: bold"">右键</span> </li>
      </ul>
      <p>请将手指放在相应按键上，按下空格键进入练习阶段</p>
    </div>","","","","","","","","","","","","","","","","","","","","","","","","","","","","","","","","","","","","","","","","","","","","","","","","",""
"","null","fixation","html-keyboard-response","3","44776","0.0-0.0-2.0-1.0-0.0-0.0-0.0-0.0","null","<p style='font-size: 48px; color: white'>+</p >","","","","","","","","","","","","","","","","","","","","","","","","","","","","","","","","","","","","","","","","","","","","","","","","",""
"","2299","motion_pract","rdk","4","47072","0.0-0.0-2.0-1.0-0.0-0.0-0.0-1.0","arrowright","","false","[""ArrowLeft"",""ArrowRight""]","ArrowLeft","3000","true","1","100","180","0.24","0","5.7","1","-1","3","600","600","[""hsl(0, 50%, 50%)"",""hsl(225, 50%, 50%)""]","[""white""]","0","0","7.227936996838922","circle","black","3","2","2","16.753623188405797","[9,14,17,17,17,17,17,17,17,17,17,17,17,16,17,17,17,16,17,16,17,17,17,16,17,17,17,17,17,17,17,17,16,17,17,17,17,17,17,16,17,17,17,17,16,17,17,17,16,17,17,17,16,17,17,16,17,16,17,17,17,16,17,17,17,17,17,17,17,17,17,17,16,17,17,17,17,17,17,17,25,16,9,17,17,16,17,16,17,17,17,17,17,16,17,17,17,17,17,17,17,17,17,16,17,18,14,18,17,17,17,17,17,17,17,17,17,16,17,17,17,17,19,14,17,17,17,17,17,22,11,16,17,17,17,17,17,17]","138","674","364.5","false","20","20","black","1","false","1","1","1398","874","rdk","ArrowLeft","","","","0.6","0.24",""
"","null","","html-keyboard-response","5","47583","0.0-0.0-2.0-1.0-0.0-0.0-0.0-2.0","null","<p style='font-size: 60px; color: red'>错误!</p>","","","","","","","","","","","","","","","","","","","","","","","","","","","","","","","","","","","","","","","","","","","","","","","","",""
"","null","fixation","html-keyboard-response","6","48086","0.0-0.0-2.0-1.0-0.0-0.0-0.0-0.1","null","<p style='font-size: 48px; color: white'>+</p >","","","","","","","","","","","","","","","","","","","","","","","","","","","","","","","","","","","","","","","","","","","","","","","","",""
"","1467","motion_pract","rdk","7","49554","0.0-0.0-2.0-1.0-0.0-0.0-0.0-1.1","arrowright","","true","[""ArrowLeft"",""ArrowRight""]","ArrowRight","3000","true","1","100","0","0.26","0","5.7","1","-1","3","600","600","[""hsl(0, 50%, 50%)"",""hsl(225, 50%, 50%)""]","[""white""]","0","0","7.227936996838922","circle","black","3","2","2","16.71590909090909","[11,17,17,16,17,20,14,17,17,17,16,17,17,17,17,17,17,17,17,17,17,17,17,16,16,17,16,17,16,17,17,17,16,16,18,17,17,16,18,17,16,17,17,17,16,17,17,16,17,16,16,17,17,16,17,17,17,17,17,17,17,15,25,8,17,17,17,16,18,16,17,17,16,17,17,17,16,17,17,17,17,17,17,17,17,17,17,17]","88","674","364.5","false","20","20","black","1","false","1","1","1398","874","rdk","ArrowRight","","","","0.6","0.26",""
"","null","","html-keyboard-response","8","50058","0.0-0.0-2.0-1.0-0.0-0.0-0.0-2.1","null","<p style='font-size: 60px; color: green'>正确!</p>","","","","","","","","","","","","","","","","","","","","","","","","","","","","","","","","","","","","","","","","","","","","","","","","",""
"","null","fixation","html-keyboard-response","9","50564","0.0-0.0-2.0-1.0-0.0-0.0-0.0-0.2","null","<p style='font-size: 48px; color: white'>+</p >","","","","","","","","","","","","","","","","","","","","","","","","","","","","","","","","","","","","","","","","","","","","","","","","",""
"","1251","motion_pract","rdk","10","51816","0.0-0.0-2.0-1.0-0.0-0.0-0.0-1.2","arrowleft","","true","[""ArrowLeft"",""ArrowRight""]","ArrowLeft","3000","true","1","100","180","0.26","0","5.7","1","-1","3","600","600","[""hsl(0, 50%, 50%)"",""hsl(225, 50%, 50%)""]","[""white""]","0","0","7.227936996838922","circle","black","3","2","2","16.76","[16,17,17,16,17,17,17,17,17,16,18,16,17,17,17,16,17,17,17,16,17,17,17,16,17,17,16,19,14,17,17,17,16,17,17,17,17,19,14,17,17,17,17,17,17,16,17,17,17,17,17,17,17,17,16,17,16,17,17,17,17,16,17,17,16,17,17,16,17,16,17,17,17,16,17]","75","674","364.5","false","20","20","black","1","false","1","1","1398","874","rdk","ArrowLeft","","","","0.6","0.26",""
"","null","","html-keyboard-response","11","52330","0.0-0.0-2.0-1.0-0.0-0.0-0.0-2.2","null","<p style='font-size: 60px; color: green'>正确!</p>","","","","","","","","","","","","","","","","","","","","","","","","","","","","","","","","","","","","","","","","","","","","","","","","",""
"","null","fixation","html-keyboard-response","12","52833","0.0-0.0-2.0-1.0-0.0-0.0-0.0-0.3","null","<p style='font-size: 48px; color: white'>+</p >","","","","","","","","","","","","","","","","","","","","","","","","","","","","","","","","","","","","","","","","","","","","","","","","",""
"","746","motion_pract","rdk","13","53579","0.0-0.0-2.0-1.0-0.0-0.0-0.0-1.3","arrowright","","true","[""ArrowLeft"",""ArrowRight""]","ArrowRight","3000","true","1","100","0","0.26","0","5.7","1","-1","3","600","600","[""hsl(0, 50%, 50%)"",""hsl(225, 50%, 50%)""]","[""white""]","0","0","7.227936996838922","circle","black","3","2","2","16.772727272727273","[13,17,17,17,17,17,17,17,17,17,17,17,17,17,16,17,17,17,17,17,16,17,17,17,17,17,16,16,17,17,17,16,17,17,17,17,17,17,17,17,16,17,17,17]","44","674","364.5","false","20","20","black","1","false","1","1","1398","874","rdk","ArrowRight","","","","0.6","0.26",""
"","null","","html-keyboard-response","14","54082","0.0-0.0-2.0-1.0-0.0-0.0-0.0-2.3","null","<p style='font-size: 60px; color: green'>正确!</p>","","","","","","","","","","","","","","","","","","","","","","","","","","","","","","","","","","","","","","","","","","","","","","","","",""
"","null","fixation","html-keyboard-response","15","54591","0.0-0.0-2.0-1.0-0.0-0.0-0.0-0.4","null","<p style='font-size: 48px; color: white'>+</p >","","","","","","","","","","","","","","","","","","","","","","","","","","","","","","","","","","","","","","","","","","","","","","","","",""
"","908","motion_pract","rdk","16","55501","0.0-0.0-2.0-1.0-0.0-0.0-0.0-1.4","arrowright","","true","[""ArrowLeft"",""ArrowRight""]","ArrowRight","3000","true","1","100","0","0.26","0","5.7","1","-1","3","600","600","[""hsl(0, 50%, 50%)"",""hsl(225, 50%, 50%)""]","[""white""]","0","0","7.227936996838922","circle","black","3","2","2","16.6","[6,18,16,17,16,16,17,17,16,18,17,16,17,26,7,17,17,16,18,16,17,17,17,16,17,17,17,16,17,17,17,17,16,17,17,17,17,17,17,17,17,17,17,16,17,17,17,17,16,18,16,17,17,16,17]","55","674","364.5","false","20","20","black","1","false","1","1","1398","874","rdk","ArrowRight","","","","0.6","0.26",""
"","null","","html-keyboard-response","17","56003","0.0-0.0-2.0-1.0-0.0-0.0-0.0-2.4","null","<p style='font-size: 60px; color: green'>正确!</p>","","","","","","","","","","","","","","","","","","","","","","","","","","","","","","","","","","","","","","","","","","","","","","","","",""
"","null","fixation","html-keyboard-response","18","56507","0.0-0.0-2.0-1.0-0.0-0.0-0.0-0.5","null","<p style='font-size: 48px; color: white'>+</p >","","","","","","","","","","","","","","","","","","","","","","","","","","","","","","","","","","","","","","","","","","","","","","","","",""
"","1066","motion_pract","rdk","19","57575","0.0-0.0-2.0-1.0-0.0-0.0-0.0-1.5","arrowleft","","true","[""ArrowLeft"",""ArrowRight""]","ArrowLeft","3000","true","1","100","180","0.24000000000000002","0","5.7","1","-1","3","600","600","[""hsl(0, 50%, 50%)"",""hsl(225, 50%, 50%)""]","[""white""]","0","0","7.227936996838922","circle","black","3","2","2","16.625","[5,17,17,17,17,17,17,17,17,17,17,17,16,17,17,17,17,16,17,17,17,17,17,17,17,16,17,16,17,16,17,16,17,17,17,17,17,16,17,17,17,17,17,17,17,17,17,17,17,17,17,17,17,17,17,17,16,16,17,16,17,16,17,16]","64","674","364.5","false","20","20","black","1","false","1","1","1398","874","rdk","ArrowLeft","","","","0.6","0.24000000000000002",""
"","null","","html-keyboard-response","20","58088","0.0-0.0-2.0-1.0-0.0-0.0-0.0-2.5","null","<p style='font-size: 60px; color: green'>正确!</p>","","","","","","","","","","","","","","","","","","","","","","","","","","","","","","","","","","","","","","","","","","","","","","","","",""
"","null","fixation","html-keyboard-response","21","58603","0.0-0.0-2.0-1.0-0.0-0.0-0.0-0.6","null","<p style='font-size: 48px; color: white'>+</p >","","","","","","","","","","","","","","","","","","","","","","","","","","","","","","","","","","","","","","","","","","","","","","","","",""
"","987","motion_pract","rdk","22","59592","0.0-0.0-2.0-1.0-0.0-0.0-0.0-1.6","arrowleft","","true","[""ArrowLeft"",""ArrowRight""]","ArrowLeft","3000","true","1","100","180","0.24000000000000002","0","5.7","1","-1","3","600","600","[""hsl(0, 50%, 50%)"",""hsl(225, 50%, 50%)""]","[""white""]","0","0","7.227936996838922","circle","black","3","2","2","16.54237288135593","[5,15,17,17,16,17,17,16,17,17,17,17,17,17,17,17,17,17,17,16,17,17,16,17,17,17,17,17,24,8,17,17,17,17,17,17,17,16,17,17,16,17,17,16,17,17,17,17,17,16,17,17,16,17,16,17,17,17,16]","59","674","364.5","false","20","20","black","1","false","1","1","1398","874","rdk","ArrowLeft","","","","0.6","0.24000000000000002",""
"","null","","html-keyboard-response","23","60098","0.0-0.0-2.0-1.0-0.0-0.0-0.0-2.6","null","<p style='font-size: 60px; color: green'>正确!</p>","","","","","","","","","","","","","","","","","","","","","","","","","","","","","","","","","","","","","","","","","","","","","","","","",""
"","null","fixation","html-keyboard-response","24","60602","0.0-0.0-2.0-1.0-0.0-0.0-0.0-0.7","null","<p style='font-size: 48px; color: white'>+</p >","","","","","","","","","","","","","","","","","","","","","","","","","","","","","","","","","","","","","","","","","","","","","","","","",""
"","793","motion_pract","rdk","25","61398","0.0-0.0-2.0-1.0-0.0-0.0-0.0-1.7","arrowright","","true","[""ArrowLeft"",""ArrowRight""]","ArrowRight","3000","true","1","100","0","0.24000000000000002","0","5.7","1","-1","3","600","600","[""hsl(0, 50%, 50%)"",""hsl(225, 50%, 50%)""]","[""white""]","0","0","7.227936996838922","circle","black","3","2","2","16.72340425531915","[29,1,14,17,17,17,17,17,17,17,16,18,17,16,16,18,16,17,17,17,17,17,16,16,17,17,17,17,17,17,17,17,17,17,17,17,17,17,16,17,17,17,17,17,16,17,17]","47","674","364.5","false","20","20","black","1","false","1","1","1398","874","rdk","ArrowRight","","","","0.6","0.24000000000000002",""
"","null","","html-keyboard-response","26","61904","0.0-0.0-2.0-1.0-0.0-0.0-0.0-2.7","null","<p style='font-size: 60px; color: green'>正确!</p>","","","","","","","","","","","","","","","","","","","","","","","","","","","","","","","","","","","","","","","","","","","","","","","","",""
"","null","fixation","html-keyboard-response","27","62408","0.0-0.0-2.0-1.0-0.0-0.0-0.0-0.8","null","<p style='font-size: 48px; color: white'>+</p >","","","","","","","","","","","","","","","","","","","","","","","","","","","","","","","","","","","","","","","","","","","","","","","","",""
"","638","motion_pract","rdk","28","63048","0.0-0.0-2.0-1.0-0.0-0.0-0.0-1.8","arrowleft","","true","[""ArrowLeft"",""ArrowRight""]","ArrowLeft","3000","true","1","100","180","0.24000000000000002","0","5.7","1","-1","3","600","600","[""hsl(0, 50%, 50%)"",""hsl(225, 50%, 50%)""]","[""white""]","0","0","7.227936996838922","circle","black","3","2","2","16.473684210526315","[6,22,11,14,17,17,17,17,17,16,17,17,17,16,17,16,17,17,17,17,17,17,17,17,17,17,17,16,17,17,17,16,17,17,17,17,17,17]","38","674","364.5","false","20","20","black","1","false","1","1","1398","874","rdk","ArrowLeft","","","","0.6","0.24000000000000002",""
"","null","","html-keyboard-response","29","63553","0.0-0.0-2.0-1.0-0.0-0.0-0.0-2.8","null","<p style='font-size: 60px; color: green'>正确!</p>","","","","","","","","","","","","","","","","","","","","","","","","","","","","","","","","","","","","","","","","","","","","","","","","",""
"","null","fixation","html-keyboard-response","30","64059","0.0-0.0-2.0-1.0-0.0-0.0-0.0-0.9","null","<p style='font-size: 48px; color: white'>+</p >","","","","","","","","","","","","","","","","","","","","","","","","","","","","","","","","","","","","","","","","","","","","","","","","",""
"","460","motion_pract","rdk","31","64521","0.0-0.0-2.0-1.0-0.0-0.0-0.0-1.9","arrowright","","true","[""ArrowLeft"",""ArrowRight""]","ArrowRight","3000","true","1","100","0","0.22000000000000003","0","5.7","1","-1","3","600","600","[""hsl(0, 50%, 50%)"",""hsl(225, 50%, 50%)""]","[""white""]","0","0","7.227936996838922","circle","black","3","2","2","16.357142857142858","[6,15,17,17,17,17,17,17,17,17,16,17,17,16,17,17,16,17,17,16,17,17,17,17,17,17,17,16]","28","674","364.5","false","20","20","black","1","false","1","1","1398","874","rdk","ArrowRight","","","","0.6","0.22000000000000003",""
"","null","","html-keyboard-response","32","65034","0.0-0.0-2.0-1.0-0.0-0.0-0.0-2.9","null","<p style='font-size: 60px; color: green'>正确!</p>","","","","","","","","","","","","","","","","","","","","","","","","","","","","","","","","","","","","","","","","","","","","","","","","",""
"","null","fixation","html-keyboard-response","33","65548","0.0-0.0-2.0-1.0-0.0-0.0-0.0-0.10","null","<p style='font-size: 48px; color: white'>+</p >","","","","","","","","","","","","","","","","","","","","","","","","","","","","","","","","","","","","","","","","","","","","","","","","",""
"","2172","motion_pract","rdk","34","67722","0.0-0.0-2.0-1.0-0.0-0.0-0.0-1.10","arrowleft","","false","[""ArrowLeft"",""ArrowRight""]","ArrowRight","3000","true","1","100","0","0.22000000000000003","0","5.7","1","-1","3","600","600","[""hsl(0, 50%, 50%)"",""hsl(225, 50%, 50%)""]","[""white""]","0","0","7.227936996838922","circle","black","3","2","2","16.92248062015504","[14,17,17,17,17,17,17,17,16,17,17,17,17,17,17,17,17,17,17,17,17,17,17,17,17,17,16,17,17,17,17,16,17,17,17,17,16,17,17,17,24,9,16,17,17,17,17,17,17,17,16,17,17,16,17,17,17,16,17,17,17,16,17,25,8,17,17,17,17,17,17,17,16,17,17,16,17,17,23,27,24,8,17,17,17,17,17,25,9,17,17,17,17,16,17,17,16,17,16,17,17,17,17,16,17,17,16,17,17,17,17,17,17,17,17,16,17,17,17,17,17,16,17,17,16,17,17,17,17]","129","674","364.5","false","20","20","black","1","false","1","1","1398","874","rdk","ArrowRight","","","","0.6","0.22000000000000003",""
"","null","","html-keyboard-response","35","68225","0.0-0.0-2.0-1.0-0.0-0.0-0.0-2.10","null","<p style='font-size: 60px; color: red'>错误!</p>","","","","","","","","","","","","","","","","","","","","","","","","","","","","","","","","","","","","","","","","","","","","","","","","",""
"","null","fixation","html-keyboard-response","36","68730","0.0-0.0-2.0-1.0-0.0-0.0-0.0-0.11","null","<p style='font-size: 48px; color: white'>+</p >","","","","","","","","","","","","","","","","","","","","","","","","","","","","","","","","","","","","","","","","","","","","","","","","",""
"","712","motion_pract","rdk","37","69444","0.0-0.0-2.0-1.0-0.0-0.0-0.0-1.11","arrowleft","","true","[""ArrowLeft"",""ArrowRight""]","ArrowLeft","3000","true","1","100","180","0.24000000000000002","0","5.7","1","-1","3","600","600","[""hsl(0, 50%, 50%)"",""hsl(225, 50%, 50%)""]","[""white""]","0","0","7.227936996838922","circle","black","3","2","2","16.714285714285715","[17,16,17,17,16,17,17,17,16,17,17,17,16,17,17,17,17,18,15,16,17,16,17,17,17,16,18,17,17,17,17,17,17,19,13,17,16,17,17,16,17,16]","42","674","364.5","false","20","20","black","1","false","1","1","1398","874","rdk","ArrowLeft","","","","0.6","0.24000000000000002",""
"","null","","html-keyboard-response","38","69946","0.0-0.0-2.0-1.0-0.0-0.0-0.0-2.11","null","<p style='font-size: 60px; color: green'>正确!</p>","","","","","","","","","","","","","","","","","","","","","","","","","","","","","","","","","","","","","","","","","","","","","","","","",""
"","null","fixation","html-keyboard-response","39","70451","0.0-0.0-2.0-1.0-0.0-0.0-0.0-0.12","null","<p style='font-size: 48px; color: white'>+</p >","","","","","","","","","","","","","","","","","","","","","","","","","","","","","","","","","","","","","","","","","","","","","","","","",""
"","724","motion_pract","rdk","40","71176","0.0-0.0-2.0-1.0-0.0-0.0-0.0-1.12","arrowleft","","true","[""ArrowLeft"",""ArrowRight""]","ArrowLeft","3000","true","1","100","180","0.24000000000000002","0","5.7","1","-1","3","600","600","[""hsl(0, 50%, 50%)"",""hsl(225, 50%, 50%)""]","[""white""]","0","0","7.227936996838922","circle","black","3","2","2","16.72093023255814","[12,17,17,17,16,16,17,17,17,17,16,17,17,17,17,17,17,17,17,17,17,17,17,16,17,17,17,17,17,16,17,17,16,18,17,17,17,17,16,17,16,17,17]","43","674","364.5","false","20","20","black","1","false","1","1","1398","874","rdk","ArrowLeft","","","","0.6","0.24000000000000002",""
"","null","","html-keyboard-response","41","71681","0.0-0.0-2.0-1.0-0.0-0.0-0.0-2.12","null","<p style='font-size: 60px; color: green'>正确!</p>","","","","","","","","","","","","","","","","","","","","","","","","","","","","","","","","","","","","","","","","","","","","","","","","",""
"","null","fixation","html-keyboard-response","42","72188","0.0-0.0-2.0-1.0-0.0-0.0-0.0-0.13","null","<p style='font-size: 48px; color: white'>+</p >","","","","","","","","","","","","","","","","","","","","","","","","","","","","","","","","","","","","","","","","","","","","","","","","",""
"","850","motion_pract","rdk","43","73039","0.0-0.0-2.0-1.0-0.0-0.0-0.0-1.13","arrowright","","true","[""ArrowLeft"",""ArrowRight""]","ArrowRight","3000","true","1","100","0","0.24000000000000002","0","5.7","1","-1","3","600","600","[""hsl(0, 50%, 50%)"",""hsl(225, 50%, 50%)""]","[""white""]","0","0","7.227936996838922","circle","black","3","2","2","16.607843137254903","[7,17,17,16,17,17,17,17,17,17,16,17,17,17,17,16,17,17,16,17,17,17,17,17,17,17,17,16,17,17,16,17,17,16,17,17,17,17,17,16,16,17,17,17,17,16,17,17,17,17,17]","51","674","364.5","false","20","20","black","1","false","1","1","1398","874","rdk","ArrowRight","","","","0.6","0.24000000000000002",""
"","null","","html-keyboard-response","44","73542","0.0-0.0-2.0-1.0-0.0-0.0-0.0-2.13","null","<p style='font-size: 60px; color: green'>正确!</p>","","","","","","","","","","","","","","","","","","","","","","","","","","","","","","","","","","","","","","","","","","","","","","","","",""
"","null","fixation","html-keyboard-response","45","74046","0.0-0.0-2.0-1.0-0.0-0.0-0.0-0.14","null","<p style='font-size: 48px; color: white'>+</p >","","","","","","","","","","","","","","","","","","","","","","","","","","","","","","","","","","","","","","","","","","","","","","","","",""
"","735","motion_pract","rdk","46","74783","0.0-0.0-2.0-1.0-0.0-0.0-0.0-1.14","arrowright","","true","[""ArrowLeft"",""ArrowRight""]","ArrowRight","3000","true","1","100","0","0.24000000000000002","0","5.7","1","-1","3","600","600","[""hsl(0, 50%, 50%)"",""hsl(225, 50%, 50%)""]","[""white""]","0","0","7.227936996838922","circle","black","3","2","2","16.795454545454547","[33,1,14,17,17,17,17,17,17,17,17,17,17,17,17,17,17,17,17,17,16,16,18,16,17,17,16,17,17,16,17,17,17,17,16,17,17,17,17,17,17,16,17,17]","44","674","364.5","false","20","20","black","1","false","1","1","1398","874","rdk","ArrowRight","","","","0.6","0.24000000000000002",""
"","null","","html-keyboard-response","47","75296","0.0-0.0-2.0-1.0-0.0-0.0-0.0-2.14","null","<p style='font-size: 60px; color: green'>正确!</p>","","","","","","","","","","","","","","","","","","","","","","","","","","","","","","","","","","","","","","","","","","","","","","","","",""
"","null","fixation","html-keyboard-response","48","75798","0.0-0.0-2.0-1.0-0.0-0.0-0.0-0.15","null","<p style='font-size: 48px; color: white'>+</p >","","","","","","","","","","","","","","","","","","","","","","","","","","","","","","","","","","","","","","","","","","","","","","","","",""
"","582","motion_pract","rdk","49","76381","0.0-0.0-2.0-1.0-0.0-0.0-0.0-1.15","arrowleft","","true","[""ArrowLeft"",""ArrowRight""]","ArrowLeft","3000","true","1","100","180","0.22000000000000003","0","5.7","1","-1","3","600","600","[""hsl(0, 50%, 50%)"",""hsl(225, 50%, 50%)""]","[""white""]","0","0","7.227936996838922","circle","black","3","2","2","16.676470588235293","[15,17,17,17,17,16,17,17,16,17,17,16,17,17,16,17,17,16,17,16,17,17,17,16,16,17,17,16,17,17,17,17,17,17]","34","674","364.5","false","20","20","black","1","false","1","1","1398","874","rdk","ArrowLeft","","","","0.6","0.22000000000000003",""
"","null","","html-keyboard-response","50","76888","0.0-0.0-2.0-1.0-0.0-0.0-0.0-2.15","null","<p style='font-size: 60px; color: green'>正确!</p>","","","","","","","","","","","","","","","","","","","","","","","","","","","","","","","","","","","","","","","","","","","","","","","","",""
"","null","fixation","html-keyboard-response","51","77391","0.0-0.0-2.0-1.0-0.0-0.0-0.0-0.16","null","<p style='font-size: 48px; color: white'>+</p >","","","","","","","","","","","","","","","","","","","","","","","","","","","","","","","","","","","","","","","","","","","","","","","","",""
"","679","motion_pract","rdk","52","78072","0.0-0.0-2.0-1.0-0.0-0.0-0.0-1.16","arrowleft","","true","[""ArrowLeft"",""ArrowRight""]","ArrowLeft","3000","true","1","100","180","0.22000000000000003","0","5.7","1","-1","3","600","600","[""hsl(0, 50%, 50%)"",""hsl(225, 50%, 50%)""]","[""white""]","0","0","7.227936996838922","circle","black","3","2","2","16.51219512195122","[5,14,18,15,17,17,17,17,17,16,17,17,16,17,17,17,17,17,17,17,17,17,17,17,17,17,17,17,16,17,17,17,17,17,17,17,16,17,17,17,17]","41","674","364.5","false","20","20","black","1","false","1","1","1398","874","rdk","ArrowLeft","","","","0.6","0.22000000000000003",""
"","null","","html-keyboard-response","53","78576","0.0-0.0-2.0-1.0-0.0-0.0-0.0-2.16","null","<p style='font-size: 60px; color: green'>正确!</p>","","","","","","","","","","","","","","","","","","","","","","","","","","","","","","","","","","","","","","","","","","","","","","","","",""
"","null","fixation","html-keyboard-response","54","79086","0.0-0.0-2.0-1.0-0.0-0.0-0.0-0.17","null","<p style='font-size: 48px; color: white'>+</p >","","","","","","","","","","","","","","","","","","","","","","","","","","","","","","","","","","","","","","","","","","","","","","","","",""
"","691","motion_pract","rdk","55","79779","0.0-0.0-2.0-1.0-0.0-0.0-0.0-1.17","arrowright","","true","[""ArrowLeft"",""ArrowRight""]","ArrowRight","3000","true","1","100","0","0.22000000000000003","0","5.7","1","-1","3","600","600","[""hsl(0, 50%, 50%)"",""hsl(225, 50%, 50%)""]","[""white""]","0","0","7.227936996838922","circle","black","3","2","2","16.5609756097561","[8,18,17,16,17,16,17,18,17,16,17,17,16,16,17,17,16,17,16,17,17,17,17,17,17,16,17,17,16,17,17,17,17,17,17,17,16,17,17,16,17]","41","674","364.5","false","20","20","black","1","false","1","1","1398","874","rdk","ArrowRight","","","","0.6","0.22000000000000003",""
"","null","","html-keyboard-response","56","80281","0.0-0.0-2.0-1.0-0.0-0.0-0.0-2.17","null","<p style='font-size: 60px; color: green'>正确!</p>","","","","","","","","","","","","","","","","","","","","","","","","","","","","","","","","","","","","","","","","","","","","","","","","",""
"","null","fixation","html-keyboard-response","57","80785","0.0-0.0-2.0-1.0-0.0-0.0-0.0-0.18","null","<p style='font-size: 48px; color: white'>+</p >","","","","","","","","","","","","","","","","","","","","","","","","","","","","","","","","","","","","","","","","","","","","","","","","",""
"","795","motion_pract","rdk","58","81581","0.0-0.0-2.0-1.0-0.0-0.0-0.0-1.18","arrowright","","true","[""ArrowLeft"",""ArrowRight""]","ArrowRight","3000","true","1","100","0","0.22000000000000003","0","5.7","1","-1","3","600","600","[""hsl(0, 50%, 50%)"",""hsl(225, 50%, 50%)""]","[""white""]","0","0","7.227936996838922","circle","black","3","2","2","16.70212765957447","[11,17,17,16,17,17,16,17,17,17,17,17,16,17,17,17,17,16,17,17,16,17,17,17,17,17,17,17,17,17,17,17,17,17,16,18,16,22,11,17,17,17,17,17,17,17,16]","47","674","364.5","false","20","20","black","1","false","1","1","1398","874","rdk","ArrowRight","","","","0.6","0.22000000000000003",""
"","null","","html-keyboard-response","59","82086","0.0-0.0-2.0-1.0-0.0-0.0-0.0-2.18","null","<p style='font-size: 60px; color: green'>正确!</p>","","","","","","","","","","","","","","","","","","","","","","","","","","","","","","","","","","","","","","","","","","","","","","","","",""
"","null","fixation","html-keyboard-response","60","82596","0.0-0.0-2.0-1.0-0.0-0.0-0.0-0.19","null","<p style='font-size: 48px; color: white'>+</p >","","","","","","","","","","","","","","","","","","","","","","","","","","","","","","","","","","","","","","","","","","","","","","","","",""
"","630","motion_pract","rdk","61","83227","0.0-0.0-2.0-1.0-0.0-0.0-0.0-1.19","arrowleft","","true","[""ArrowLeft"",""ArrowRight""]","ArrowLeft","3000","true","1","100","180","0.20000000000000004","0","5.7","1","-1","3","600","600","[""hsl(0, 50%, 50%)"",""hsl(225, 50%, 50%)""]","[""white""]","0","0","7.227936996838922","circle","black","3","2","2","16.783783783783782","[25,8,16,17,16,17,16,17,17,16,17,17,17,17,16,17,17,17,17,17,17,17,17,17,17,17,17,16,17,17,16,17,17,17,17,17,17]","37","674","364.5","false","20","20","black","1","false","1","1","1398","874","rdk","ArrowLeft","","","","0.6","0.20000000000000004",""
"","null","","html-keyboard-response","62","83734","0.0-0.0-2.0-1.0-0.0-0.0-0.0-2.19","null","<p style='font-size: 60px; color: green'>正确!</p>","","","","","","","","","","","","","","","","","","","","","","","","","","","","","","","","","","","","","","","","","","","","","","","","",""
"","null","fixation","html-keyboard-response","63","84238","0.0-0.0-2.0-1.0-0.0-0.0-0.0-0.20","null","<p style='font-size: 48px; color: white'>+</p >","","","","","","","","","","","","","","","","","","","","","","","","","","","","","","","","","","","","","","","","","","","","","","","","",""
"","507","motion_pract","rdk","64","84746","0.0-0.0-2.0-1.0-0.0-0.0-0.0-1.20","arrowright","","true","[""ArrowLeft"",""ArrowRight""]","ArrowRight","3000","true","1","100","0","0.20000000000000004","0","5.7","1","-1","3","600","600","[""hsl(0, 50%, 50%)"",""hsl(225, 50%, 50%)""]","[""white""]","0","0","7.227936996838922","circle","black","3","2","2","16.433333333333334","[7,17,17,17,16,17,17,17,17,16,16,17,17,17,17,16,17,17,17,17,17,16,16,16,17,17,17,17,17,17]","30","674","364.5","false","20","20","black","1","false","1","1","1398","874","rdk","ArrowRight","","","","0.6","0.20000000000000004",""
"","null","","html-keyboard-response","65","85248","0.0-0.0-2.0-1.0-0.0-0.0-0.0-2.20","null","<p style='font-size: 60px; color: green'>正确!</p>","","","","","","","","","","","","","","","","","","","","","","","","","","","","","","","","","","","","","","","","","","","","","","","","",""
"","null","fixation","html-keyboard-response","66","85760","0.0-0.0-2.0-1.0-0.0-0.0-0.0-0.21","null","<p style='font-size: 48px; color: white'>+</p >","","","","","","","","","","","","","","","","","","","","","","","","","","","","","","","","","","","","","","","","","","","","","","","","",""
"","644","motion_pract","rdk","67","86407","0.0-0.0-2.0-1.0-0.0-0.0-0.0-1.21","arrowright","","true","[""ArrowLeft"",""ArrowRight""]","ArrowRight","3000","true","1","100","0","0.20000000000000004","0","5.7","1","-1","3","600","600","[""hsl(0, 50%, 50%)"",""hsl(225, 50%, 50%)""]","[""white""]","0","0","7.227936996838922","circle","black","3","2","2","16.307692307692307","[4,12,16,17,16,17,17,16,17,17,17,16,17,17,16,18,17,17,16,18,16,17,17,16,17,17,16,17,17,17,16,17,17,16,17,17,17,17,17]","39","674","364.5","false","20","20","black","1","false","1","1","1398","874","rdk","ArrowRight","","","","0.6","0.20000000000000004",""
"","null","","html-keyboard-response","68","86915","0.0-0.0-2.0-1.0-0.0-0.0-0.0-2.21","null","<p style='font-size: 60px; color: green'>正确!</p>","","","","","","","","","","","","","","","","","","","","","","","","","","","","","","","","","","","","","","","","","","","","","","","","",""
"","null","fixation","html-keyboard-response","69","87429","0.0-0.0-2.0-1.0-0.0-0.0-0.0-0.22","null","<p style='font-size: 48px; color: white'>+</p >","","","","","","","","","","","","","","","","","","","","","","","","","","","","","","","","","","","","","","","","","","","","","","","","",""
"","673","motion_pract","rdk","70","88104","0.0-0.0-2.0-1.0-0.0-0.0-0.0-1.22","arrowleft","","true","[""ArrowLeft"",""ArrowRight""]","ArrowLeft","3000","true","1","100","180","0.20000000000000004","0","5.7","1","-1","3","600","600","[""hsl(0, 50%, 50%)"",""hsl(225, 50%, 50%)""]","[""white""]","0","0","7.227936996838922","circle","black","3","2","2","16.75","[27,6,17,17,16,17,17,17,17,16,17,16,18,19,15,15,17,17,17,17,17,17,17,17,16,17,16,17,16,17,17,17,17,17,16,17,17,17,19,14]","40","674","364.5","false","20","20","black","1","false","1","1","1398","874","rdk","ArrowLeft","","","","0.6","0.20000000000000004",""
"","null","","html-keyboard-response","71","88606","0.0-0.0-2.0-1.0-0.0-0.0-0.0-2.22","null","<p style='font-size: 60px; color: green'>正确!</p>","","","","","","","","","","","","","","","","","","","","","","","","","","","","","","","","","","","","","","","","","","","","","","","","",""
"","null","fixation","html-keyboard-response","72","89118","0.0-0.0-2.0-1.0-0.0-0.0-0.0-0.23","null","<p style='font-size: 48px; color: white'>+</p >","","","","","","","","","","","","","","","","","","","","","","","","","","","","","","","","","","","","","","","","","","","","","","","","",""
"","587","motion_pract","rdk","73","89707","0.0-0.0-2.0-1.0-0.0-0.0-0.0-1.23","arrowright","","false","[""ArrowLeft"",""ArrowRight""]","ArrowLeft","3000","true","1","100","180","0.18000000000000005","0","5.7","1","-1","3","600","600","[""hsl(0, 50%, 50%)"",""hsl(225, 50%, 50%)""]","[""white""]","0","0","7.227936996838922","circle","black","3","2","2","16.714285714285715","[11,17,16,17,16,17,17,17,16,17,17,17,16,17,17,17,17,17,17,17,17,17,17,17,17,17,17,17,17,17,17,17,17,17,17]","35","674","364.5","false","20","20","black","1","false","1","1","1398","874","rdk","ArrowLeft","","","","0.6","0.18000000000000005",""
"","null","","html-keyboard-response","74","90212","0.0-0.0-2.0-1.0-0.0-0.0-0.0-2.23","null","<p style='font-size: 60px; color: red'>错误!</p>","","","","","","","","","","","","","","","","","","","","","","","","","","","","","","","","","","","","","","","","","","","","","","","","",""
"","null","fixation","html-keyboard-response","75","90726","0.0-0.0-2.0-1.0-0.0-0.0-0.0-0.24","null","<p style='font-size: 48px; color: white'>+</p >","","","","","","","","","","","","","","","","","","","","","","","","","","","","","","","","","","","","","","","","","","","","","","","","",""
"","790","motion_pract","rdk","76","91517","0.0-0.0-2.0-1.0-0.0-0.0-0.0-1.24","arrowleft","","true","[""ArrowLeft"",""ArrowRight""]","ArrowLeft","3000","true","1","100","180","0.20000000000000004","0","5.7","1","-1","3","600","600","[""hsl(0, 50%, 50%)"",""hsl(225, 50%, 50%)""]","[""white""]","0","0","7.227936996838922","circle","black","3","2","2","16.416666666666668","[3,17,16,18,16,18,16,17,16,17,17,17,17,17,17,17,16,16,17,17,17,17,16,17,16,17,18,14,17,17,17,17,16,17,17,16,16,17,17,16,17,17,17,17,16,16,17,17]","48","674","364.5","false","20","20","black","1","false","1","1","1398","874","rdk","ArrowLeft","","","","0.6","0.20000000000000004",""
"","null","","html-keyboard-response","77","92024","0.0-0.0-2.0-1.0-0.0-0.0-0.0-2.24","null","<p style='font-size: 60px; color: green'>正确!</p>","","","","","","","","","","","","","","","","","","","","","","","","","","","","","","","","","","","","","","","","","","","","","","","","",""
"","null","fixation","html-keyboard-response","78","92531","0.0-0.0-2.0-1.0-0.0-0.0-0.0-0.25","null","<p style='font-size: 48px; color: white'>+</p >","","","","","","","","","","","","","","","","","","","","","","","","","","","","","","","","","","","","","","","","","","","","","","","","",""
"","1183","motion_pract","rdk","79","93716","0.0-0.0-2.0-1.0-0.0-0.0-0.0-1.25","arrowright","","true","[""ArrowLeft"",""ArrowRight""]","ArrowRight","3000","true","1","100","0","0.20000000000000004","0","5.7","1","-1","3","600","600","[""hsl(0, 50%, 50%)"",""hsl(225, 50%, 50%)""]","[""white""]","0","0","7.227936996838922","circle","black","3","2","2","16.742857142857144","[14,17,17,17,17,16,17,16,17,17,16,16,17,17,17,17,16,17,17,17,17,16,17,17,17,16,17,17,17,17,17,17,17,17,16,17,17,17,17,17,17,17,17,16,17,17,16,17,17,16,17,17,16,17,17,16,17,17,16,17,17,16,16,17,17,17,17,19,15,18]","70","674","364.5","false","20","20","black","1","false","1","1","1398","874","rdk","ArrowRight","","","","0.6","0.20000000000000004",""
"","null","","html-keyboard-response","80","94222","0.0-0.0-2.0-1.0-0.0-0.0-0.0-2.25","null","<p style='font-size: 60px; color: green'>正确!</p>","","","","","","","","","","","","","","","","","","","","","","","","","","","","","","","","","","","","","","","","","","","","","","","","",""
"","null","fixation","html-keyboard-response","81","94731","0.0-0.0-2.0-1.0-0.0-0.0-0.0-0.26","null","<p style='font-size: 48px; color: white'>+</p >","","","","","","","","","","","","","","","","","","","","","","","","","","","","","","","","","","","","","","","","","","","","","","","","",""
"","838","motion_pract","rdk","82","95570","0.0-0.0-2.0-1.0-0.0-0.0-0.0-1.26","arrowright","","true","[""ArrowLeft"",""ArrowRight""]","ArrowRight","3000","true","1","100","0","0.20000000000000004","0","5.7","1","-1","3","600","600","[""hsl(0, 50%, 50%)"",""hsl(225, 50%, 50%)""]","[""white""]","0","0","7.227936996838922","circle","black","3","2","2","16.66","[14,16,17,17,16,17,17,16,17,16,17,17,17,16,17,17,16,17,17,16,17,16,17,17,16,17,16,17,17,17,17,16,17,17,17,17,17,17,17,17,17,16,18,16,17,17,17,16,17,16]","50","674","364.5","false","20","20","black","1","false","1","1","1398","874","rdk","ArrowRight","","","","0.6","0.20000000000000004",""
"","null","","html-keyboard-response","83","96074","0.0-0.0-2.0-1.0-0.0-0.0-0.0-2.26","null","<p style='font-size: 60px; color: green'>正确!</p>","","","","","","","","","","","","","","","","","","","","","","","","","","","","","","","","","","","","","","","","","","","","","","","","",""
"","null","fixation","html-keyboard-response","84","96578","0.0-0.0-2.0-1.0-0.0-0.0-0.0-0.27","null","<p style='font-size: 48px; color: white'>+</p >","","","","","","","","","","","","","","","","","","","","","","","","","","","","","","","","","","","","","","","","","","","","","","","","",""
"","851","motion_pract","rdk","85","97431","0.0-0.0-2.0-1.0-0.0-0.0-0.0-1.27","arrowright","","false","[""ArrowLeft"",""ArrowRight""]","ArrowLeft","3000","true","1","100","180","0.20000000000000004","0","5.7","1","-1","3","600","600","[""hsl(0, 50%, 50%)"",""hsl(225, 50%, 50%)""]","[""white""]","0","0","7.227936996838922","circle","black","3","2","2","16.46153846153846","[1,16,15,17,17,17,17,17,17,17,17,17,17,17,16,17,17,16,17,17,17,17,17,15,17,17,16,17,17,17,16,17,16,17,17,17,17,17,17,17,17,17,17,17,17,16,17,17,17,16,17,17]","52","674","364.5","false","20","20","black","1","false","1","1","1398","874","rdk","ArrowLeft","","","","0.6","0.20000000000000004",""
"","null","","html-keyboard-response","86","97936","0.0-0.0-2.0-1.0-0.0-0.0-0.0-2.27","null","<p style='font-size: 60px; color: red'>错误!</p>","","","","","","","","","","","","","","","","","","","","","","","","","","","","","","","","","","","","","","","","","","","","","","","","",""
"","null","fixation","html-keyboard-response","87","98443","0.0-0.0-2.0-1.0-0.0-0.0-0.0-0.28","null","<p style='font-size: 48px; color: white'>+</p >","","","","","","","","","","","","","","","","","","","","","","","","","","","","","","","","","","","","","","","","","","","","","","","","",""
"","577","motion_pract","rdk","88","99023","0.0-0.0-2.0-1.0-0.0-0.0-0.0-1.28","arrowright","","true","[""ArrowLeft"",""ArrowRight""]","ArrowRight","3000","true","1","100","0","0.22000000000000003","0","5.7","1","-1","3","600","600","[""hsl(0, 50%, 50%)"",""hsl(225, 50%, 50%)""]","[""white""]","0","0","7.227936996838922","circle","black","3","2","2","16.37142857142857","[1,16,17,17,16,17,17,17,17,17,17,17,17,17,16,16,17,17,17,16,17,17,17,17,17,17,17,17,17,17,17,17,17,16,17]","35","674","364.5","false","20","20","black","1","false","1","1","1398","874","rdk","ArrowRight","","","","0.6","0.22000000000000003",""
"","null","","html-keyboard-response","89","99526","0.0-0.0-2.0-1.0-0.0-0.0-0.0-2.28","null","<p style='font-size: 60px; color: green'>正确!</p>","","","","","","","","","","","","","","","","","","","","","","","","","","","","","","","","","","","","","","","","","","","","","","","","",""
"","null","fixation","html-keyboard-response","90","100030","0.0-0.0-2.0-1.0-0.0-0.0-0.0-0.29","null","<p style='font-size: 48px; color: white'>+</p >","","","","","","","","","","","","","","","","","","","","","","","","","","","","","","","","","","","","","","","","","","","","","","","","",""
"","623","motion_pract","rdk","91","100654","0.0-0.0-2.0-1.0-0.0-0.0-0.0-1.29","arrowleft","","true","[""ArrowLeft"",""ArrowRight""]","ArrowLeft","3000","true","1","100","180","0.22000000000000003","0","5.7","1","-1","3","600","600","[""hsl(0, 50%, 50%)"",""hsl(225, 50%, 50%)""]","[""white""]","0","0","7.227936996838922","circle","black","3","2","2","16.675675675675677","[15,17,16,18,16,17,16,17,17,16,17,16,17,17,16,17,17,17,17,17,17,17,16,17,17,17,16,17,17,17,17,16,17,16,17,16,17]","37","674","364.5","false","20","20","black","1","false","1","1","1398","874","rdk","ArrowLeft","","","","0.6","0.22000000000000003",""
"","null","","html-keyboard-response","92","101157","0.0-0.0-2.0-1.0-0.0-0.0-0.0-2.29","null","<p style='font-size: 60px; color: green'>正确!</p>","","","","","","","","","","","","","","","","","","","","","","","","","","","","","","","","","","","","","","","","","","","","","","","","",""
"","null","fixation","html-keyboard-response","93","101662","0.0-0.0-2.0-1.0-0.0-0.0-0.0-0.30","null","<p style='font-size: 48px; color: white'>+</p >","","","","","","","","","","","","","","","","","","","","","","","","","","","","","","","","","","","","","","","","","","","","","","","","",""
"","741","motion_pract","rdk","94","102404","0.0-0.0-2.0-1.0-0.0-0.0-0.0-1.30","arrowright","","true","[""ArrowLeft"",""ArrowRight""]","ArrowRight","3000","true","1","100","0","0.22000000000000003","0","5.7","1","-1","3","600","600","[""hsl(0, 50%, 50%)"",""hsl(225, 50%, 50%)""]","[""white""]","0","0","7.227936996838922","circle","black","3","2","2","17.13953488372093","[33,17,17,17,17,17,17,16,17,17,16,17,17,17,17,17,17,17,17,16,17,16,17,16,16,17,17,17,16,17,16,17,17,17,16,17,17,17,17,16,17,17,17]","43","674","364.5","false","20","20","black","1","false","1","1","1398","874","rdk","ArrowRight","","","","0.6","0.22000000000000003",""
"","null","","html-keyboard-response","95","102907","0.0-0.0-2.0-1.0-0.0-0.0-0.0-2.30","null","<p style='font-size: 60px; color: green'>正确!</p>","","","","","","","","","","","","","","","","","","","","","","","","","","","","","","","","","","","","","","","","","","","","","","","","",""
"","null","fixation","html-keyboard-response","96","103415","0.0-0.0-2.0-1.0-0.0-0.0-0.0-0.31","null","<p style='font-size: 48px; color: white'>+</p >","","","","","","","","","","","","","","","","","","","","","","","","","","","","","","","","","","","","","","","","","","","","","","","","",""
"","532","motion_pract","rdk","97","103949","0.0-0.0-2.0-1.0-0.0-0.0-0.0-1.31","arrowleft","","true","[""ArrowLeft"",""ArrowRight""]","ArrowLeft","3000","true","1","100","180","0.22000000000000003","0","5.7","1","-1","3","600","600","[""hsl(0, 50%, 50%)"",""hsl(225, 50%, 50%)""]","[""white""]","0","0","7.227936996838922","circle","black","3","2","2","16.8125","[13,19,14,17,17,17,17,17,17,17,17,17,17,17,16,17,17,17,17,17,17,17,17,17,17,17,17,17,17,17,17,17]","32","674","364.5","false","20","20","black","1","false","1","1","1398","874","rdk","ArrowLeft","","","","0.6","0.22000000000000003",""
"","null","","html-keyboard-response","98","104455","0.0-0.0-2.0-1.0-0.0-0.0-0.0-2.31","null","<p style='font-size: 60px; color: green'>正确!</p>","","","","","","","","","","","","","","","","","","","","","","","","","","","","","","","","","","","","","","","","","","","","","","","","",""
"","null","fixation","html-keyboard-response","99","104961","0.0-0.0-2.0-1.0-0.0-0.0-0.0-0.32","null","<p style='font-size: 48px; color: white'>+</p >","","","","","","","","","","","","","","","","","","","","","","","","","","","","","","","","","","","","","","","","","","","","","","","","",""
"","602","motion_pract","rdk","100","105565","0.0-0.0-2.0-1.0-0.0-0.0-0.0-1.32","arrowleft","","true","[""ArrowLeft"",""ArrowRight""]","ArrowLeft","3000","true","1","100","180","0.20000000000000004","0","5.7","1","-1","3","600","600","[""hsl(0, 50%, 50%)"",""hsl(225, 50%, 50%)""]","[""white""]","0","0","7.227936996838922","circle","black","3","2","2","16.37837837837838","[1,18,16,17,17,17,17,17,15,17,17,17,17,17,17,17,17,17,17,16,17,16,17,17,16,17,17,16,17,17,17,17,16,17,17,17,17]","37","674","364.5","false","20","20","black","1","false","1","1","1398","874","rdk","ArrowLeft","","","","0.6","0.20000000000000004",""
"","null","","html-keyboard-response","101","106072","0.0-0.0-2.0-1.0-0.0-0.0-0.0-2.32","null","<p style='font-size: 60px; color: green'>正确!</p>","","","","","","","","","","","","","","","","","","","","","","","","","","","","","","","","","","","","","","","","","","","","","","","","",""
"","null","fixation","html-keyboard-response","102","106577","0.0-0.0-2.0-1.0-0.0-0.0-0.0-0.33","null","<p style='font-size: 48px; color: white'>+</p >","","","","","","","","","","","","","","","","","","","","","","","","","","","","","","","","","","","","","","","","","","","","","","","","",""
"","907","motion_pract","rdk","103","107487","0.0-0.0-2.0-1.0-0.0-0.0-0.0-1.33","arrowright","","true","[""ArrowLeft"",""ArrowRight""]","ArrowRight","3000","true","1","100","0","0.20000000000000004","0","5.7","1","-1","3","600","600","[""hsl(0, 50%, 50%)"",""hsl(225, 50%, 50%)""]","[""white""]","0","0","7.227936996838922","circle","black","3","2","2","16.527272727272727","[3,15,17,16,17,17,16,18,17,16,17,17,16,17,17,19,14,17,17,17,17,16,17,17,17,17,17,17,17,17,17,17,17,17,17,17,17,16,17,17,17,18,15,17,17,16,17,17,17,17,16,17,17,17,16]","55","674","364.5","false","20","20","black","1","false","1","1","1398","874","rdk","ArrowRight","","","","0.6","0.20000000000000004",""
"","null","","html-keyboard-response","104","107995","0.0-0.0-2.0-1.0-0.0-0.0-0.0-2.33","null","<p style='font-size: 60px; color: green'>正确!</p>","","","","","","","","","","","","","","","","","","","","","","","","","","","","","","","","","","","","","","","","","","","","","","","","",""
"","null","fixation","html-keyboard-response","105","108505","0.0-0.0-2.0-1.0-0.0-0.0-0.0-0.34","null","<p style='font-size: 48px; color: white'>+</p >","","","","","","","","","","","","","","","","","","","","","","","","","","","","","","","","","","","","","","","","","","","","","","","","",""
"","586","motion_pract","rdk","106","109092","0.0-0.0-2.0-1.0-0.0-0.0-0.0-1.34","arrowleft","","true","[""ArrowLeft"",""ArrowRight""]","ArrowLeft","3000","true","1","100","180","0.20000000000000004","0","5.7","1","-1","3","600","600","[""hsl(0, 50%, 50%)"",""hsl(225, 50%, 50%)""]","[""white""]","0","0","7.227936996838922","circle","black","3","2","2","16.457142857142856","[7,18,16,16,17,17,17,17,17,17,17,17,16,17,17,17,16,16,16,17,17,16,17,17,17,16,17,17,17,16,16,17,17,17,17]","35","674","364.5","false","20","20","black","1","false","1","1","1398","874","rdk","ArrowLeft","","","","0.6","0.20000000000000004",""
"","null","","html-keyboard-response","107","109595","0.0-0.0-2.0-1.0-0.0-0.0-0.0-2.34","null","<p style='font-size: 60px; color: green'>正确!</p>","","","","","","","","","","","","","","","","","","","","","","","","","","","","","","","","","","","","","","","","","","","","","","","","",""
"","null","fixation","html-keyboard-response","108","110105","0.0-0.0-2.0-1.0-0.0-0.0-0.0-0.35","null","<p style='font-size: 48px; color: white'>+</p >","","","","","","","","","","","","","","","","","","","","","","","","","","","","","","","","","","","","","","","","","","","","","","","","",""
"","624","motion_pract","rdk","109","110731","0.0-0.0-2.0-1.0-0.0-0.0-0.0-1.35","arrowright","","true","[""ArrowLeft"",""ArrowRight""]","ArrowRight","3000","true","1","100","0","0.20000000000000004","0","5.7","1","-1","3","600","600","[""hsl(0, 50%, 50%)"",""hsl(225, 50%, 50%)""]","[""white""]","0","0","7.227936996838922","circle","black","3","2","2","16.56756756756757","[7,17,17,17,17,17,16,16,17,17,17,17,16,17,17,17,17,17,17,17,17,17,17,17,17,16,17,17,17,17,17,16,17,16,17,17,17]","37","674","364.5","false","20","20","black","1","false","1","1","1398","874","rdk","ArrowRight","","","","0.6","0.20000000000000004",""
"","null","","html-keyboard-response","110","111237","0.0-0.0-2.0-1.0-0.0-0.0-0.0-2.35","null","<p style='font-size: 60px; color: green'>正确!</p>","","","","","","","","","","","","","","","","","","","","","","","","","","","","","","","","","","","","","","","","","","","","","","","","",""
"","null","fixation","html-keyboard-response","111","111742","0.0-0.0-2.0-1.0-0.0-0.0-0.0-0.36","null","<p style='font-size: 48px; color: white'>+</p >","","","","","","","","","","","","","","","","","","","","","","","","","","","","","","","","","","","","","","","","","","","","","","","","",""
"","731","motion_pract","rdk","112","112473","0.0-0.0-2.0-1.0-0.0-0.0-0.0-1.36","arrowleft","","true","[""ArrowLeft"",""ArrowRight""]","ArrowLeft","3000","true","1","100","180","0.18000000000000005","0","5.7","1","-1","3","600","600","[""hsl(0, 50%, 50%)"",""hsl(225, 50%, 50%)""]","[""white""]","0","0","7.227936996838922","circle","black","3","2","2","16.636363636363637","[4,17,17,17,16,17,17,17,17,17,17,17,17,17,17,17,17,17,17,17,17,17,17,17,17,17,17,17,17,17,17,17,17,17,16,17,17,16,17,17,17,17,18,16]","44","674","364.5","false","20","20","black","1","false","1","1","1398","874","rdk","ArrowLeft","","","","0.6","0.18000000000000005",""
"","null","","html-keyboard-response","113","112983","0.0-0.0-2.0-1.0-0.0-0.0-0.0-2.36","null","<p style='font-size: 60px; color: green'>正确!</p>","","","","","","","","","","","","","","","","","","","","","","","","","","","","","","","","","","","","","","","","","","","","","","","","",""
"","null","fixation","html-keyboard-response","114","113488","0.0-0.0-2.0-1.0-0.0-0.0-0.0-0.37","null","<p style='font-size: 48px; color: white'>+</p >","","","","","","","","","","","","","","","","","","","","","","","","","","","","","","","","","","","","","","","","","","","","","","","","",""
"","602","motion_pract","rdk","115","114092","0.0-0.0-2.0-1.0-0.0-0.0-0.0-1.37","arrowleft","","true","[""ArrowLeft"",""ArrowRight""]","ArrowLeft","3000","true","1","100","180","0.18000000000000005","0","5.7","1","-1","3","600","600","[""hsl(0, 50%, 50%)"",""hsl(225, 50%, 50%)""]","[""white""]","0","0","7.227936996838922","circle","black","3","2","2","16.5","[7,22,11,17,17,17,17,17,16,17,17,16,17,16,17,17,17,16,17,17,17,16,17,16,17,17,17,17,17,17,17,17,17,17,17,16]","36","674","364.5","false","20","20","black","1","false","1","1","1398","874","rdk","ArrowLeft","","","","0.6","0.18000000000000005",""
"","null","","html-keyboard-response","116","114597","0.0-0.0-2.0-1.0-0.0-0.0-0.0-2.37","null","<p style='font-size: 60px; color: green'>正确!</p>","","","","","","","","","","","","","","","","","","","","","","","","","","","","","","","","","","","","","","","","","","","","","","","","",""
"","null","fixation","html-keyboard-response","117","115106","0.0-0.0-2.0-1.0-0.0-0.0-0.0-0.38","null","<p style='font-size: 48px; color: white'>+</p >","","","","","","","","","","","","","","","","","","","","","","","","","","","","","","","","","","","","","","","","","","","","","","","","",""
"","526","motion_pract","rdk","118","115634","0.0-0.0-2.0-1.0-0.0-0.0-0.0-1.38","arrowright","","true","[""ArrowLeft"",""ArrowRight""]","ArrowRight","3000","true","1","100","0","0.18000000000000005","0","5.7","1","-1","3","600","600","[""hsl(0, 50%, 50%)"",""hsl(225, 50%, 50%)""]","[""white""]","0","0","7.227936996838922","circle","black","3","2","2","16.28125","[5,17,17,16,16,17,17,16,17,17,16,17,17,16,17,17,16,17,17,16,17,17,16,17,17,16,17,17,16,17,17,16]","32","674","364.5","false","20","20","black","1","false","1","1","1398","874","rdk","ArrowRight","","","","0.6","0.18000000000000005",""
"","null","","html-keyboard-response","119","116136","0.0-0.0-2.0-1.0-0.0-0.0-0.0-2.38","null","<p style='font-size: 60px; color: green'>正确!</p>","","","","","","","","","","","","","","","","","","","","","","","","","","","","","","","","","","","","","","","","","","","","","","","","",""
"","null","fixation","html-keyboard-response","120","116654","0.0-0.0-2.0-1.0-0.0-0.0-0.0-0.39","null","<p style='font-size: 48px; color: white'>+</p >","","","","","","","","","","","","","","","","","","","","","","","","","","","","","","","","","","","","","","","","","","","","","","","","",""
"","723","motion_pract","rdk","121","117378","0.0-0.0-2.0-1.0-0.0-0.0-0.0-1.39","arrowright","","true","[""ArrowLeft"",""ArrowRight""]","ArrowRight","3000","true","1","100","0","0.18000000000000005","0","5.7","1","-1","3","600","600","[""hsl(0, 50%, 50%)"",""hsl(225, 50%, 50%)""]","[""white""]","0","0","7.227936996838922","circle","black","3","2","2","16.46511627906977","[8,17,17,17,16,17,17,16,16,16,17,17,17,16,17,16,16,18,16,17,17,17,16,18,16,16,17,17,16,17,17,16,17,17,16,17,16,17,16,17,17,17,17]","43","674","364.5","false","20","20","black","1","false","1","1","1398","874","rdk","ArrowRight","","","","0.6","0.18000000000000005",""
"","null","","html-keyboard-response","122","117883","0.0-0.0-2.0-1.0-0.0-0.0-0.0-2.39","null","<p style='font-size: 60px; color: green'>正确!</p>","","","","","","","","","","","","","","","","","","","","","","","","","","","","","","","","","","","","","","","","","","","","","","","","",""
"","null","fixation","html-keyboard-response","123","118386","0.0-0.0-2.0-1.0-0.1-0.1-0.1-0.40","null","<p style='font-size: 48px; color: white'>+</p >","","","","","","","","","","","","","","","","","","","","","","","","","","","","","","","","","","","","","","","","","","","","","","","","",""
"","726","motion_pract","rdk","124","119113","0.0-0.0-2.0-1.0-0.1-0.1-0.1-1.40","arrowright","","true","[""ArrowLeft"",""ArrowRight""]","ArrowRight","3000","true","1","100","0","0.16000000000000006","0","5.7","1","-1","3","600","600","[""hsl(0, 50%, 50%)"",""hsl(225, 50%, 50%)""]","[""white""]","0","0","7.227936996838922","circle","black","3","2","2","16.651162790697676","[9,17,17,17,17,17,17,17,17,17,17,17,17,17,16,17,17,16,17,17,16,17,17,17,17,17,16,17,17,16,17,17,17,17,16,17,17,17,17,17,17,16,17]","43","674","364.5","false","20","20","black","1","false","1","1","1398","874","rdk","ArrowRight","","","","0.6","0.16000000000000006",""
"","null","","html-keyboard-response","125","119622","0.0-0.0-2.0-1.0-0.1-0.1-0.1-2.40","null","<p style='font-size: 60px; color: green'>正确!</p>","","","","","","","","","","","","","","","","","","","","","","","","","","","","","","","","","","","","","","","","","","","","","","","","",""
"","null","fixation","html-keyboard-response","126","120131","0.0-0.0-2.0-1.0-0.1-0.1-0.1-0.41","null","<p style='font-size: 48px; color: white'>+</p >","","","","","","","","","","","","","","","","","","","","","","","","","","","","","","","","","","","","","","","","","","","","","","","","",""
"","653","motion_pract","rdk","127","120785","0.0-0.0-2.0-1.0-0.1-0.1-0.1-1.41","arrowleft","","true","[""ArrowLeft"",""ArrowRight""]","ArrowLeft","3000","true","1","100","180","0.16000000000000006","0","5.7","1","-1","3","600","600","[""hsl(0, 50%, 50%)"",""hsl(225, 50%, 50%)""]","[""white""]","0","0","7.227936996838922","circle","black","3","2","2","16.71794871794872","[15,17,17,17,16,16,17,17,17,17,17,17,17,17,17,17,17,17,17,16,17,16,17,17,17,16,17,17,16,17,16,17,16,17,17,17,17,16,17]","39","674","364.5","false","20","20","black","1","false","1","1","1398","874","rdk","ArrowLeft","","","","0.6","0.16000000000000006",""
"","null","","html-keyboard-response","128","121297","0.0-0.0-2.0-1.0-0.1-0.1-0.1-2.41","null","<p style='font-size: 60px; color: green'>正确!</p>","","","","","","","","","","","","","","","","","","","","","","","","","","","","","","","","","","","","","","","","","","","","","","","","",""
"","null","fixation","html-keyboard-response","129","121805","0.0-0.0-2.0-1.0-0.1-0.1-0.1-0.42","null","<p style='font-size: 48px; color: white'>+</p >","","","","","","","","","","","","","","","","","","","","","","","","","","","","","","","","","","","","","","","","","","","","","","","","",""
"","656","motion_pract","rdk","130","122463","0.0-0.0-2.0-1.0-0.1-0.1-0.1-1.42","arrowleft","","true","[""ArrowLeft"",""ArrowRight""]","ArrowLeft","3000","true","1","100","180","0.16000000000000006","0","5.7","1","-1","3","600","600","[""hsl(0, 50%, 50%)"",""hsl(225, 50%, 50%)""]","[""white""]","0","0","7.227936996838922","circle","black","3","2","2","16.53846153846154","[7,17,16,17,17,17,16,17,17,17,17,17,17,17,17,17,17,17,16,17,16,17,17,17,17,16,16,17,17,17,16,17,17,17,17,17,16,17,17]","39","674","364.5","false","20","20","black","1","false","1","1","1398","874","rdk","ArrowLeft","","","","0.6","0.16000000000000006",""
"","null","","html-keyboard-response","131","122968","0.0-0.0-2.0-1.0-0.1-0.1-0.1-2.42","null","<p style='font-size: 60px; color: green'>正确!</p>","","","","","","","","","","","","","","","","","","","","","","","","","","","","","","","","","","","","","","","","","","","","","","","","",""
"","null","fixation","html-keyboard-response","132","123479","0.0-0.0-2.0-1.0-0.1-0.1-0.1-0.43","null","<p style='font-size: 48px; color: white'>+</p >","","","","","","","","","","","","","","","","","","","","","","","","","","","","","","","","","","","","","","","","","","","","","","","","",""
"","628","motion_pract","rdk","133","124108","0.0-0.0-2.0-1.0-0.1-0.1-0.1-1.43","arrowright","","true","[""ArrowLeft"",""ArrowRight""]","ArrowRight","3000","true","1","100","0","0.16000000000000006","0","5.7","1","-1","3","600","600","[""hsl(0, 50%, 50%)"",""hsl(225, 50%, 50%)""]","[""white""]","0","0","7.227936996838922","circle","black","3","2","2","16.7027027027027","[26,6,18,15,17,17,17,16,17,17,16,17,17,17,16,17,16,17,17,17,17,17,16,17,17,16,17,17,17,17,16,17,17,17,17,17,16]","37","674","364.5","false","20","20","black","1","false","1","1","1398","874","rdk","ArrowRight","","","","0.6","0.16000000000000006",""
"","null","","html-keyboard-response","134","124614","0.0-0.0-2.0-1.0-0.1-0.1-0.1-2.43","null","<p style='font-size: 60px; color: green'>正确!</p>","","","","","","","","","","","","","","","","","","","","","","","","","","","","","","","","","","","","","","","","","","","","","","","","",""
"","null","fixation","html-keyboard-response","135","125117","0.0-0.0-2.0-1.0-0.1-0.1-0.1-0.44","null","<p style='font-size: 48px; color: white'>+</p >","","","","","","","","","","","","","","","","","","","","","","","","","","","","","","","","","","","","","","","","","","","","","","","","",""
"","673","motion_pract","rdk","136","125793","0.0-0.0-2.0-1.0-0.1-0.1-0.1-1.44","arrowleft","","false","[""ArrowLeft"",""ArrowRight""]","ArrowRight","3000","true","1","100","0","0.14000000000000007","0","5.7","1","-1","3","600","600","[""hsl(0, 50%, 50%)"",""hsl(225, 50%, 50%)""]","[""white""]","0","0","7.227936996838922","circle","black","3","2","2","16.7","[11,15,17,17,17,17,17,17,17,16,17,17,17,17,17,17,17,17,17,16,17,17,17,17,17,17,17,17,17,16,17,17,17,17,17,17,17,17,17,16]","40","674","364.5","false","20","20","black","1","false","1","1","1398","874","rdk","ArrowRight","","","","0.6","0.14000000000000007",""
"","null","","html-keyboard-response","137","126299","0.0-0.0-2.0-1.0-0.1-0.1-0.1-2.44","null","<p style='font-size: 60px; color: red'>错误!</p>","","","","","","","","","","","","","","","","","","","","","","","","","","","","","","","","","","","","","","","","","","","","","","","","",""
"","null","fixation","html-keyboard-response","138","126803","0.0-0.0-2.0-1.0-0.1-0.1-0.1-0.45","null","<p style='font-size: 48px; color: white'>+</p >","","","","","","","","","","","","","","","","","","","","","","","","","","","","","","","","","","","","","","","","","","","","","","","","",""
"","739","motion_pract","rdk","139","127543","0.0-0.0-2.0-1.0-0.1-0.1-0.1-1.45","arrowright","","false","[""ArrowLeft"",""ArrowRight""]","ArrowLeft","3000","true","1","100","180","0.16000000000000006","0","5.7","1","-1","3","600","600","[""hsl(0, 50%, 50%)"",""hsl(225, 50%, 50%)""]","[""white""]","0","0","7.227936996838922","circle","black","3","2","2","16.65909090909091","[8,18,17,17,17,17,17,17,17,17,17,17,17,17,17,17,16,16,17,17,16,17,17,16,18,16,17,17,17,17,17,17,17,16,17,17,17,17,17,17,16,17,16,17]","44","674","364.5","false","20","20","black","1","false","1","1","1398","874","rdk","ArrowLeft","","","","0.6","0.16000000000000006",""
"","null","","html-keyboard-response","140","128049","0.0-0.0-2.0-1.0-0.1-0.1-0.1-2.45","null","<p style='font-size: 60px; color: red'>错误!</p>","","","","","","","","","","","","","","","","","","","","","","","","","","","","","","","","","","","","","","","","","","","","","","","","",""
"","null","fixation","html-keyboard-response","141","128555","0.0-0.0-2.0-1.0-0.1-0.1-0.1-0.46","null","<p style='font-size: 48px; color: white'>+</p >","","","","","","","","","","","","","","","","","","","","","","","","","","","","","","","","","","","","","","","","","","","","","","","","",""
"","1789","motion_pract","rdk","142","130345","0.0-0.0-2.0-1.0-0.1-0.1-0.1-1.46","arrowleft","","false","[""ArrowLeft"",""ArrowRight""]","ArrowRight","3000","true","1","100","0","0.18000000000000005","0","5.7","1","-1","3","600","600","[""hsl(0, 50%, 50%)"",""hsl(225, 50%, 50%)""]","[""white""]","0","0","7.227936996838922","circle","black","3","2","2","16.757009345794394","[6,19,18,15,17,17,17,17,17,17,16,17,16,17,17,17,16,17,17,17,17,17,17,17,17,17,17,16,17,17,17,17,17,17,17,16,17,17,16,17,17,17,16,17,17,17,17,17,17,17,17,17,17,17,17,17,16,17,17,16,18,16,16,17,17,17,17,17,17,16,17,17,17,17,17,17,16,17,17,17,16,17,17,17,17,17,17,17,17,17,17,17,17,16,17,17,17,24,10,16,17,17,17,17,16,22,12]","107","674","364.5","false","20","20","black","1","false","1","1","1398","874","rdk","ArrowRight","","","","0.6","0.18000000000000005",""
"","null","","html-keyboard-response","143","130848","0.0-0.0-2.0-1.0-0.1-0.1-0.1-2.46","null","<p style='font-size: 60px; color: red'>错误!</p>","","","","","","","","","","","","","","","","","","","","","","","","","","","","","","","","","","","","","","","","","","","","","","","","",""
"","null","fixation","html-keyboard-response","144","131356","0.0-0.0-2.0-1.0-0.1-0.1-0.1-0.47","null","<p style='font-size: 48px; color: white'>+</p >","","","","","","","","","","","","","","","","","","","","","","","","","","","","","","","","","","","","","","","","","","","","","","","","",""
"","636","motion_pract","rdk","145","131993","0.0-0.0-2.0-1.0-0.1-0.1-0.1-1.47","arrowleft","","true","[""ArrowLeft"",""ArrowRight""]","ArrowLeft","3000","true","1","100","180","0.20000000000000004","0","5.7","1","-1","3","600","600","[""hsl(0, 50%, 50%)"",""hsl(225, 50%, 50%)""]","[""white""]","0","0","7.227936996838922","circle","black","3","2","2","16.55263157894737","[5,18,16,17,17,17,16,17,17,17,17,16,17,17,16,17,16,17,17,17,17,17,17,17,17,17,16,17,17,17,17,17,17,17,17,17,17,17]","38","674","364.5","false","20","20","black","1","false","1","1","1398","874","rdk","ArrowLeft","","","","0.6","0.20000000000000004",""
"","null","","html-keyboard-response","146","132500","0.0-0.0-2.0-1.0-0.1-0.1-0.1-2.47","null","<p style='font-size: 60px; color: green'>正确!</p>","","","","","","","","","","","","","","","","","","","","","","","","","","","","","","","","","","","","","","","","","","","","","","","","",""
"","null","fixation","html-keyboard-response","147","133002","0.0-0.0-2.0-1.0-0.1-0.1-0.1-0.48","null","<p style='font-size: 48px; color: white'>+</p >","","","","","","","","","","","","","","","","","","","","","","","","","","","","","","","","","","","","","","","","","","","","","","","","",""
"","855","motion_pract","rdk","148","133859","0.0-0.0-2.0-1.0-0.1-0.1-0.1-1.48","arrowleft","","true","[""ArrowLeft"",""ArrowRight""]","ArrowLeft","3000","true","1","100","180","0.20000000000000004","0","5.7","1","-1","3","600","600","[""hsl(0, 50%, 50%)"",""hsl(225, 50%, 50%)""]","[""white""]","0","0","7.227936996838922","circle","black","3","2","2","16.58823529411765","[9,17,17,17,16,17,17,17,16,17,16,17,17,17,16,16,17,17,17,16,17,17,17,17,17,17,17,16,17,17,16,17,17,17,17,16,17,17,17,17,17,16,17,17,16,17,17,16,17,17,16]","51","674","364.5","false","20","20","black","1","false","1","1","1398","874","rdk","ArrowLeft","","","","0.6","0.20000000000000004",""
"","null","","html-keyboard-response","149","134375","0.0-0.0-2.0-1.0-0.1-0.1-0.1-2.48","null","<p style='font-size: 60px; color: green'>正确!</p>","","","","","","","","","","","","","","","","","","","","","","","","","","","","","","","","","","","","","","","","","","","","","","","","",""
"","null","fixation","html-keyboard-response","150","134894","0.0-0.0-2.0-1.0-0.1-0.1-0.1-0.49","null","<p style='font-size: 48px; color: white'>+</p >","","","","","","","","","","","","","","","","","","","","","","","","","","","","","","","","","","","","","","","","","","","","","","","","",""
"","1291","motion_pract","rdk","151","136187","0.0-0.0-2.0-1.0-0.1-0.1-0.1-1.49","arrowright","","true","[""ArrowLeft"",""ArrowRight""]","ArrowRight","3000","true","1","100","0","0.20000000000000004","0","5.7","1","-1","3","600","600","[""hsl(0, 50%, 50%)"",""hsl(225, 50%, 50%)""]","[""white""]","0","0","7.227936996838922","circle","black","3","2","2","16.487179487179485","[1,14,17,17,17,17,17,17,17,16,17,17,16,17,18,15,16,17,17,16,17,17,17,16,17,17,16,17,17,17,16,16,17,17,17,17,16,17,16,17,17,17,16,17,16,16,17,17,17,17,17,17,17,17,17,16,17,17,16,17,17,17,17,16,16,17,16,17,17,16,17,17,22,12,17,16,17,17]","78","674","364.5","false","20","20","black","1","false","1","1","1398","874","rdk","ArrowRight","","","","0.6","0.20000000000000004",""
"","null","","html-keyboard-response","152","136692","0.0-0.0-2.0-1.0-0.1-0.1-0.1-2.49","null","<p style='font-size: 60px; color: green'>正确!</p>","","","","","","","","","","","","","","","","","","","","","","","","","","","","","","","","","","","","","","","","","","","","","","","","",""
"","null","fixation","html-keyboard-response","153","137198","0.0-0.0-2.0-1.0-0.1-0.1-0.1-0.50","null","<p style='font-size: 48px; color: white'>+</p >","","","","","","","","","","","","","","","","","","","","","","","","","","","","","","","","","","","","","","","","","","","","","","","","",""
"","784","motion_pract","rdk","154","137983","0.0-0.0-2.0-1.0-0.1-0.1-0.1-1.50","arrowright","","true","[""ArrowLeft"",""ArrowRight""]","ArrowRight","3000","true","1","100","0","0.20000000000000004","0","5.7","1","-1","3","600","600","[""hsl(0, 50%, 50%)"",""hsl(225, 50%, 50%)""]","[""white""]","0","0","7.227936996838922","circle","black","3","2","2","16.851063829787233","[21,11,18,15,17,17,17,17,17,17,17,17,17,17,17,17,17,17,17,17,17,17,17,16,17,17,16,17,17,17,17,17,16,17,17,18,16,17,17,17,16,17,17,17,16,17,18]","47","674","364.5","false","20","20","black","1","false","1","1","1398","874","rdk","ArrowRight","","","","0.6","0.20000000000000004",""
"","null","","html-keyboard-response","155","138487","0.0-0.0-2.0-1.0-0.1-0.1-0.1-2.50","null","<p style='font-size: 60px; color: green'>正确!</p>","","","","","","","","","","","","","","","","","","","","","","","","","","","","","","","","","","","","","","","","","","","","","","","","",""
"","null","fixation","html-keyboard-response","156","138995","0.0-0.0-2.0-1.0-0.1-0.1-0.1-0.51","null","<p style='font-size: 48px; color: white'>+</p >","","","","","","","","","","","","","","","","","","","","","","","","","","","","","","","","","","","","","","","","","","","","","","","","",""
"","795","motion_pract","rdk","157","139791","0.0-0.0-2.0-1.0-0.1-0.1-0.1-1.51","arrowleft","","true","[""ArrowLeft"",""ArrowRight""]","ArrowLeft","3000","true","1","100","180","0.18000000000000005","0","5.7","1","-1","3","600","600","[""hsl(0, 50%, 50%)"",""hsl(225, 50%, 50%)""]","[""white""]","0","0","7.227936996838922","circle","black","3","2","2","16.74468085106383","[24,11,17,15,17,16,16,17,16,17,17,16,16,17,17,17,17,17,17,17,17,17,17,17,17,16,17,16,17,17,16,17,17,16,17,17,17,17,16,17,18,16,17,17,16,17,17]","47","674","364.5","false","20","20","black","1","false","1","1","1398","874","rdk","ArrowLeft","","","","0.6","0.18000000000000005",""
"","null","","html-keyboard-response","158","140294","0.0-0.0-2.0-1.0-0.1-0.1-0.1-2.51","null","<p style='font-size: 60px; color: green'>正确!</p>","","","","","","","","","","","","","","","","","","","","","","","","","","","","","","","","","","","","","","","","","","","","","","","","",""
"","null","fixation","html-keyboard-response","159","140802","0.0-0.0-2.0-1.0-0.1-0.1-0.1-0.52","null","<p style='font-size: 48px; color: white'>+</p >","","","","","","","","","","","","","","","","","","","","","","","","","","","","","","","","","","","","","","","","","","","","","","","","",""
"","646","motion_pract","rdk","160","141449","0.0-0.0-2.0-1.0-0.1-0.1-0.1-1.52","arrowleft","","true","[""ArrowLeft"",""ArrowRight""]","ArrowLeft","3000","true","1","100","180","0.18000000000000005","0","5.7","1","-1","3","600","600","[""hsl(0, 50%, 50%)"",""hsl(225, 50%, 50%)""]","[""white""]","0","0","7.227936996838922","circle","black","3","2","2","16.58974358974359","[9,17,17,17,17,17,16,16,17,17,17,17,22,11,17,17,17,17,17,16,17,18,16,16,17,17,16,17,17,16,17,17,16,17,17,17,17,17,17]","39","674","364.5","false","20","20","black","1","false","1","1","1398","874","rdk","ArrowLeft","","","","0.6","0.18000000000000005",""
"","null","","html-keyboard-response","161","141957","0.0-0.0-2.0-1.0-0.1-0.1-0.1-2.52","null","<p style='font-size: 60px; color: green'>正确!</p>","","","","","","","","","","","","","","","","","","","","","","","","","","","","","","","","","","","","","","","","","","","","","","","","",""
"","null","fixation","html-keyboard-response","162","142472","0.0-0.0-2.0-1.0-0.1-0.1-0.1-0.53","null","<p style='font-size: 48px; color: white'>+</p >","","","","","","","","","","","","","","","","","","","","","","","","","","","","","","","","","","","","","","","","","","","","","","","","",""
"","642","motion_pract","rdk","163","143115","0.0-0.0-2.0-1.0-0.1-0.1-0.1-1.53","arrowright","","true","[""ArrowLeft"",""ArrowRight""]","ArrowRight","3000","true","1","100","0","0.18000000000000005","0","5.7","1","-1","3","600","600","[""hsl(0, 50%, 50%)"",""hsl(225, 50%, 50%)""]","[""white""]","0","0","7.227936996838922","circle","black","3","2","2","16.58974358974359","[5,19,15,17,17,16,18,17,17,17,17,17,16,17,17,16,17,16,17,17,17,17,17,17,17,17,17,17,17,17,17,16,17,17,17,17,17,17,17]","39","674","364.5","false","20","20","black","1","false","1","1","1398","874","rdk","ArrowRight","","","","0.6","0.18000000000000005",""
"","null","","html-keyboard-response","164","143622","0.0-0.0-2.0-1.0-0.1-0.1-0.1-2.53","null","<p style='font-size: 60px; color: green'>正确!</p>","","","","","","","","","","","","","","","","","","","","","","","","","","","","","","","","","","","","","","","","","","","","","","","","",""
"","null","fixation","html-keyboard-response","165","144130","0.0-0.0-2.0-1.0-0.1-0.1-0.1-0.54","null","<p style='font-size: 48px; color: white'>+</p >","","","","","","","","","","","","","","","","","","","","","","","","","","","","","","","","","","","","","","","","","","","","","","","","",""
"","708","motion_pract","rdk","166","144840","0.0-0.0-2.0-1.0-0.1-0.1-0.1-1.54","arrowleft","","true","[""ArrowLeft"",""ArrowRight""]","ArrowLeft","3000","true","1","100","180","0.18000000000000005","0","5.7","1","-1","3","600","600","[""hsl(0, 50%, 50%)"",""hsl(225, 50%, 50%)""]","[""white""]","0","0","7.227936996838922","circle","black","3","2","2","16.666666666666668","[14,17,17,16,17,16,17,17,17,16,17,17,16,17,17,16,17,17,17,16,17,17,17,16,17,17,17,16,17,17,17,17,17,17,17,17,17,16,17,17,16,16]","42","674","364.5","false","20","20","black","1","false","1","1","1398","874","rdk","ArrowLeft","","","","0.6","0.18000000000000005",""
"","null","","html-keyboard-response","167","145343","0.0-0.0-2.0-1.0-0.1-0.1-0.1-2.54","null","<p style='font-size: 60px; color: green'>正确!</p>","","","","","","","","","","","","","","","","","","","","","","","","","","","","","","","","","","","","","","","","","","","","","","","","",""
"","null","fixation","html-keyboard-response","168","145846","0.0-0.0-2.0-1.0-0.1-0.1-0.1-0.55","null","<p style='font-size: 48px; color: white'>+</p >","","","","","","","","","","","","","","","","","","","","","","","","","","","","","","","","","","","","","","","","","","","","","","","","",""
"","796","motion_pract","rdk","169","146644","0.0-0.0-2.0-1.0-0.1-0.1-0.1-1.55","arrowright","","true","[""ArrowLeft"",""ArrowRight""]","ArrowRight","3000","true","1","100","0","0.16000000000000006","0","5.7","1","-1","3","600","600","[""hsl(0, 50%, 50%)"",""hsl(225, 50%, 50%)""]","[""white""]","0","0","7.227936996838922","circle","black","3","2","2","16.80851063829787","[15,16,17,17,17,17,16,17,17,17,17,17,17,17,17,17,17,17,17,16,17,17,16,16,17,17,16,17,17,17,17,17,17,17,17,17,17,17,17,16,17,17,17,17,17,17,17]","47","674","364.5","false","20","20","black","1","false","1","1","1398","874","rdk","ArrowRight","","","","0.6","0.16000000000000006",""
"","null","","html-keyboard-response","170","147145","0.0-0.0-2.0-1.0-0.1-0.1-0.1-2.55","null","<p style='font-size: 60px; color: green'>正确!</p>","","","","","","","","","","","","","","","","","","","","","","","","","","","","","","","","","","","","","","","","","","","","","","","","",""
"","null","fixation","html-keyboard-response","171","147659","0.0-0.0-2.0-1.0-0.1-0.1-0.1-0.56","null","<p style='font-size: 48px; color: white'>+</p >","","","","","","","","","","","","","","","","","","","","","","","","","","","","","","","","","","","","","","","","","","","","","","","","",""
"","578","motion_pract","rdk","172","148238","0.0-0.0-2.0-1.0-0.1-0.1-0.1-1.56","arrowleft","","true","[""ArrowLeft"",""ArrowRight""]","ArrowLeft","3000","true","1","100","180","0.16000000000000006","0","5.7","1","-1","3","600","600","[""hsl(0, 50%, 50%)"",""hsl(225, 50%, 50%)""]","[""white""]","0","0","7.227936996838922","circle","black","3","2","2","16.34285714285714","[4,15,17,17,17,17,17,16,17,17,17,17,16,17,17,16,17,16,16,17,16,17,17,17,17,17,17,17,17,17,16,17,17,16,17]","35","674","364.5","false","20","20","black","1","false","1","1","1398","874","rdk","ArrowLeft","","","","0.6","0.16000000000000006",""
"","null","","html-keyboard-response","173","148742","0.0-0.0-2.0-1.0-0.1-0.1-0.1-2.56","null","<p style='font-size: 60px; color: green'>正确!</p>","","","","","","","","","","","","","","","","","","","","","","","","","","","","","","","","","","","","","","","","","","","","","","","","",""
"","null","fixation","html-keyboard-response","174","149251","0.0-0.0-2.0-1.0-0.1-0.1-0.1-0.57","null","<p style='font-size: 48px; color: white'>+</p >","","","","","","","","","","","","","","","","","","","","","","","","","","","","","","","","","","","","","","","","","","","","","","","","",""
"","689","motion_pract","rdk","175","149942","0.0-0.0-2.0-1.0-0.1-0.1-0.1-1.57","arrowright","","true","[""ArrowLeft"",""ArrowRight""]","ArrowRight","3000","true","1","100","0","0.16000000000000006","0","5.7","1","-1","3","600","600","[""hsl(0, 50%, 50%)"",""hsl(225, 50%, 50%)""]","[""white""]","0","0","7.227936996838922","circle","black","3","2","2","16.609756097560975","[12,13,18,16,17,17,17,16,17,17,16,17,16,17,17,17,17,17,16,17,17,17,17,17,17,17,16,16,17,17,17,17,17,17,17,17,17,17,17,17,16]","41","674","364.5","false","20","20","black","1","false","1","1","1398","874","rdk","ArrowRight","","","","0.6","0.16000000000000006",""
"","null","","html-keyboard-response","176","150443","0.0-0.0-2.0-1.0-0.1-0.1-0.1-2.57","null","<p style='font-size: 60px; color: green'>正确!</p>","","","","","","","","","","","","","","","","","","","","","","","","","","","","","","","","","","","","","","","","","","","","","","","","",""
"","null","fixation","html-keyboard-response","177","150950","0.0-0.0-2.0-1.0-0.1-0.1-0.1-0.58","null","<p style='font-size: 48px; color: white'>+</p >","","","","","","","","","","","","","","","","","","","","","","","","","","","","","","","","","","","","","","","","","","","","","","","","",""
"","728","motion_pract","rdk","178","151680","0.0-0.0-2.0-1.0-0.1-0.1-0.1-1.58","arrowright","","true","[""ArrowLeft"",""ArrowRight""]","ArrowRight","3000","true","1","100","0","0.16000000000000006","0","5.7","1","-1","3","600","600","[""hsl(0, 50%, 50%)"",""hsl(225, 50%, 50%)""]","[""white""]","0","0","7.227936996838922","circle","black","3","2","2","16.74418604651163","[11,17,17,17,17,17,17,17,17,17,17,17,17,17,17,17,17,17,17,17,16,17,16,17,17,16,17,17,17,17,17,16,17,17,17,17,17,17,17,16,17,17,17]","43","674","364.5","false","20","20","black","1","false","1","1","1398","874","rdk","ArrowRight","","","","0.6","0.16000000000000006",""
"","null","","html-keyboard-response","179","152181","0.0-0.0-2.0-1.0-0.1-0.1-0.1-2.58","null","<p style='font-size: 60px; color: green'>正确!</p>","","","","","","","","","","","","","","","","","","","","","","","","","","","","","","","","","","","","","","","","","","","","","","","","",""
"","null","fixation","html-keyboard-response","180","152685","0.0-0.0-2.0-1.0-0.1-0.1-0.1-0.59","null","<p style='font-size: 48px; color: white'>+</p >","","","","","","","","","","","","","","","","","","","","","","","","","","","","","","","","","","","","","","","","","","","","","","","","",""
"","735","motion_pract","rdk","181","153421","0.0-0.0-2.0-1.0-0.1-0.1-0.1-1.59","arrowleft","","true","[""ArrowLeft"",""ArrowRight""]","ArrowLeft","3000","true","1","100","180","0.14000000000000007","0","5.7","1","-1","3","600","600","[""hsl(0, 50%, 50%)"",""hsl(225, 50%, 50%)""]","[""white""]","0","0","7.227936996838922","circle","black","3","2","2","16.568181818181817","[9,18,19,13,17,17,17,17,17,16,17,17,17,16,17,17,16,17,17,16,17,17,16,17,17,16,17,17,16,17,16,16,17,17,17,17,17,17,17,16,17,17,17,17]","44","674","364.5","false","20","20","black","1","false","1","1","1398","874","rdk","ArrowLeft","","","","0.6","0.14000000000000007",""
"","null","","html-keyboard-response","182","153932","0.0-0.0-2.0-1.0-0.1-0.1-0.1-2.59","null","<p style='font-size: 60px; color: green'>正确!</p>","","","","","","","","","","","","","","","","","","","","","","","","","","","","","","","","","","","","","","","","","","","","","","","","",""
"","null","fixation","html-keyboard-response","183","154441","0.0-0.0-2.0-1.0-0.1-0.1-0.1-0.60","null","<p style='font-size: 48px; color: white'>+</p >","","","","","","","","","","","","","","","","","","","","","","","","","","","","","","","","","","","","","","","","","","","","","","","","",""
"","550","motion_pract","rdk","184","154992","0.0-0.0-2.0-1.0-0.1-0.1-0.1-1.60","arrowright","","true","[""ArrowLeft"",""ArrowRight""]","ArrowRight","3000","true","1","100","0","0.14000000000000007","0","5.7","1","-1","3","600","600","[""hsl(0, 50%, 50%)"",""hsl(225, 50%, 50%)""]","[""white""]","0","0","7.227936996838922","circle","black","3","2","2","16.454545454545453","[4,17,17,17,17,17,17,17,17,17,17,17,17,16,18,16,16,17,17,17,16,17,17,17,17,16,17,17,17,17,17,16,17]","33","674","364.5","false","20","20","black","1","false","1","1","1398","874","rdk","ArrowRight","","","","0.6","0.14000000000000007",""
"","null","","html-keyboard-response","185","155497","0.0-0.0-2.0-1.0-0.1-0.1-0.1-2.60","null","<p style='font-size: 60px; color: green'>正确!</p>","","","","","","","","","","","","","","","","","","","","","","","","","","","","","","","","","","","","","","","","","","","","","","","","",""
"","null","fixation","html-keyboard-response","186","155999","0.0-0.0-2.0-1.0-0.1-0.1-0.1-0.61","null","<p style='font-size: 48px; color: white'>+</p >","","","","","","","","","","","","","","","","","","","","","","","","","","","","","","","","","","","","","","","","","","","","","","","","",""
"","1108","motion_pract","rdk","187","157109","0.0-0.0-2.0-1.0-0.1-0.1-0.1-1.61","arrowleft","","true","[""ArrowLeft"",""ArrowRight""]","ArrowLeft","3000","true","1","100","180","0.14000000000000007","0","5.7","1","-1","3","600","600","[""hsl(0, 50%, 50%)"",""hsl(225, 50%, 50%)""]","[""white""]","0","0","7.227936996838922","circle","black","3","2","2","16.696969696969695","[12,17,17,16,17,17,16,17,17,16,16,17,17,17,17,17,17,17,17,17,17,16,17,17,16,24,8,17,17,17,17,17,17,16,17,17,16,17,17,16,16,17,16,17,17,17,17,16,17,17,17,17,17,17,17,17,17,16,17,17,17,17,17,17,17,17]","66","674","364.5","false","20","20","black","1","false","1","1","1398","874","rdk","ArrowLeft","","","","0.6","0.14000000000000007",""
"","null","","html-keyboard-response","188","157612","0.0-0.0-2.0-1.0-0.1-0.1-0.1-2.61","null","<p style='font-size: 60px; color: green'>正确!</p>","","","","","","","","","","","","","","","","","","","","","","","","","","","","","","","","","","","","","","","","","","","","","","","","",""
"","null","fixation","html-keyboard-response","189","158120","0.0-0.0-2.0-1.0-0.1-0.1-0.1-0.62","null","<p style='font-size: 48px; color: white'>+</p >","","","","","","","","","","","","","","","","","","","","","","","","","","","","","","","","","","","","","","","","","","","","","","","","",""
"","429","motion_pract","rdk","190","158551","0.0-0.0-2.0-1.0-0.1-0.1-0.1-1.62","arrowright","","true","[""ArrowLeft"",""ArrowRight""]","ArrowRight","3000","true","1","100","0","0.14000000000000007","0","5.7","1","-1","3","600","600","[""hsl(0, 50%, 50%)"",""hsl(225, 50%, 50%)""]","[""white""]","0","0","7.227936996838922","circle","black","3","2","2","16.423076923076923","[6,17,17,17,17,16,17,16,17,17,17,17,17,17,17,17,17,16,17,17,17,17,17,16,17,17]","26","674","364.5","false","20","20","black","1","false","1","1","1398","874","rdk","ArrowRight","","","","0.6","0.14000000000000007",""
"","null","","html-keyboard-response","191","159066","0.0-0.0-2.0-1.0-0.1-0.1-0.1-2.62","null","<p style='font-size: 60px; color: green'>正确!</p>","","","","","","","","","","","","","","","","","","","","","","","","","","","","","","","","","","","","","","","","","","","","","","","","",""
"","null","fixation","html-keyboard-response","192","159570","0.0-0.0-2.0-1.0-0.1-0.1-0.1-0.63","null","<p style='font-size: 48px; color: white'>+</p >","","","","","","","","","","","","","","","","","","","","","","","","","","","","","","","","","","","","","","","","","","","","","","","","",""
"","1074","motion_pract","rdk","193","160645","0.0-0.0-2.0-1.0-0.1-0.1-0.1-1.63","arrowleft","","true","[""ArrowLeft"",""ArrowRight""]","ArrowLeft","3000","true","1","100","180","0.12000000000000006","0","5.7","1","-1","3","600","600","[""hsl(0, 50%, 50%)"",""hsl(225, 50%, 50%)""]","[""white""]","0","0","7.227936996838922","circle","black","3","2","2","16.640625","[6,17,17,17,17,16,17,17,17,17,16,16,17,17,17,17,17,16,17,17,16,17,17,16,17,17,16,16,18,17,17,17,16,17,17,16,17,17,17,17,16,17,16,17,17,17,17,17,17,17,16,17,17,17,17,17,17,17,17,17,17,17,17,17]","64","674","364.5","false","20","20","black","1","false","1","1","1398","874","rdk","ArrowLeft","","","","0.6","0.12000000000000006",""
"","null","","html-keyboard-response","194","161154","0.0-0.0-2.0-1.0-0.1-0.1-0.1-2.63","null","<p style='font-size: 60px; color: green'>正确!</p>","","","","","","","","","","","","","","","","","","","","","","","","","","","","","","","","","","","","","","","","","","","","","","","","",""
"","null","fixation","html-keyboard-response","195","161659","0.0-0.0-2.0-1.0-0.1-0.1-0.1-0.64","null","<p style='font-size: 48px; color: white'>+</p >","","","","","","","","","","","","","","","","","","","","","","","","","","","","","","","","","","","","","","","","","","","","","","","","",""
"","590","motion_pract","rdk","196","162250","0.0-0.0-2.0-1.0-0.1-0.1-0.1-1.64","arrowright","","true","[""ArrowLeft"",""ArrowRight""]","ArrowRight","3000","true","1","100","0","0.12000000000000006","0","5.7","1","-1","3","600","600","[""hsl(0, 50%, 50%)"",""hsl(225, 50%, 50%)""]","[""white""]","0","0","7.227936996838922","circle","black","3","2","2","16.38888888888889","[2,17,17,17,17,17,17,16,17,17,17,17,18,15,17,16,17,18,16,16,17,16,17,17,17,17,17,17,17,17,17,17,16,17,16,17]","36","674","364.5","false","20","20","black","1","false","1","1","1398","874","rdk","ArrowRight","","","","0.6","0.12000000000000006",""
"","null","","html-keyboard-response","197","162765","0.0-0.0-2.0-1.0-0.1-0.1-0.1-2.64","null","<p style='font-size: 60px; color: green'>正确!</p>","","","","","","","","","","","","","","","","","","","","","","","","","","","","","","","","","","","","","","","","","","","","","","","","",""
"","null","fixation","html-keyboard-response","198","163267","0.0-0.0-2.0-1.0-0.1-0.1-0.1-0.65","null","<p style='font-size: 48px; color: white'>+</p >","","","","","","","","","","","","","","","","","","","","","","","","","","","","","","","","","","","","","","","","","","","","","","","","",""
"","922","motion_pract","rdk","199","164190","0.0-0.0-2.0-1.0-0.1-0.1-0.1-1.65","arrowright","","true","[""ArrowLeft"",""ArrowRight""]","ArrowRight","3000","true","1","100","0","0.12000000000000006","0","5.7","1","-1","3","600","600","[""hsl(0, 50%, 50%)"",""hsl(225, 50%, 50%)""]","[""white""]","0","0","7.227936996838922","circle","black","3","2","2","16.763636363636362","[11,17,16,17,17,16,17,17,17,17,17,16,18,17,16,17,17,16,17,16,17,18,17,17,17,16,17,17,17,17,17,17,17,16,17,17,17,17,17,17,17,17,17,17,17,17,17,17,17,17,17,17,17,17,16]","55","674","364.5","false","20","20","black","1","false","1","1","1398","874","rdk","ArrowRight","","","","0.6","0.12000000000000006",""
"","null","","html-keyboard-response","200","164695","0.0-0.0-2.0-1.0-0.1-0.1-0.1-2.65","null","<p style='font-size: 60px; color: green'>正确!</p>","","","","","","","","","","","","","","","","","","","","","","","","","","","","","","","","","","","","","","","","","","","","","","","","",""
"","null","fixation","html-keyboard-response","201","165198","0.0-0.0-2.0-1.0-0.1-0.1-0.1-0.66","null","<p style='font-size: 48px; color: white'>+</p >","","","","","","","","","","","","","","","","","","","","","","","","","","","","","","","","","","","","","","","","","","","","","","","","",""
"","602","motion_pract","rdk","202","165801","0.0-0.0-2.0-1.0-0.1-0.1-0.1-1.66","arrowleft","","true","[""ArrowLeft"",""ArrowRight""]","ArrowLeft","3000","true","1","100","180","0.12000000000000006","0","5.7","1","-1","3","600","600","[""hsl(0, 50%, 50%)"",""hsl(225, 50%, 50%)""]","[""white""]","0","0","7.227936996838922","circle","black","3","2","2","16.805555555555557","[12,17,16,16,18,17,17,17,17,17,17,17,17,17,17,17,17,17,16,18,17,17,17,17,16,17,17,17,17,17,17,17,17,16,18,17]","36","674","364.5","false","20","20","black","1","false","1","1","1398","874","rdk","ArrowLeft","","","","0.6","0.12000000000000006",""
"","null","","html-keyboard-response","203","166309","0.0-0.0-2.0-1.0-0.1-0.1-0.1-2.66","null","<p style='font-size: 60px; color: green'>正确!</p>","","","","","","","","","","","","","","","","","","","","","","","","","","","","","","","","","","","","","","","","","","","","","","","","",""
"","null","fixation","html-keyboard-response","204","166822","0.0-0.0-2.0-1.0-0.1-0.1-0.1-0.67","null","<p style='font-size: 48px; color: white'>+</p >","","","","","","","","","","","","","","","","","","","","","","","","","","","","","","","","","","","","","","","","","","","","","","","","",""
"","705","motion_pract","rdk","205","167529","0.0-0.0-2.0-1.0-0.1-0.1-0.1-1.67","arrowleft","","true","[""ArrowLeft"",""ArrowRight""]","ArrowLeft","3000","true","1","100","180","0.10000000000000006","0","5.7","1","-1","3","600","600","[""hsl(0, 50%, 50%)"",""hsl(225, 50%, 50%)""]","[""white""]","0","0","7.227936996838922","circle","black","3","2","2","16.642857142857142","[9,18,15,18,17,17,17,17,16,17,17,16,17,17,17,16,17,17,17,17,17,17,17,16,17,16,17,17,17,16,16,17,17,17,17,17,17,17,17,17,17,17]","42","674","364.5","false","20","20","black","1","false","1","1","1398","874","rdk","ArrowLeft","","","","0.6","0.10000000000000006",""
"","null","","html-keyboard-response","206","168036","0.0-0.0-2.0-1.0-0.1-0.1-0.1-2.67","null","<p style='font-size: 60px; color: green'>正确!</p>","","","","","","","","","","","","","","","","","","","","","","","","","","","","","","","","","","","","","","","","","","","","","","","","",""
"","null","fixation","html-keyboard-response","207","168553","0.0-0.0-2.0-1.0-0.1-0.1-0.1-0.68","null","<p style='font-size: 48px; color: white'>+</p >","","","","","","","","","","","","","","","","","","","","","","","","","","","","","","","","","","","","","","","","","","","","","","","","",""
"","559","motion_pract","rdk","208","169113","0.0-0.0-2.0-1.0-0.1-0.1-0.1-1.68","arrowright","","false","[""ArrowLeft"",""ArrowRight""]","ArrowLeft","3000","true","1","100","180","0.10000000000000006","0","5.7","1","-1","3","600","600","[""hsl(0, 50%, 50%)"",""hsl(225, 50%, 50%)""]","[""white""]","0","0","7.227936996838922","circle","black","3","2","2","16.606060606060606","[12,17,17,17,17,17,17,17,17,16,17,17,17,17,17,17,16,17,16,17,16,16,17,17,17,17,17,16,17,17,17,16,16]","33","674","364.5","false","20","20","black","1","false","1","1","1398","874","rdk","ArrowLeft","","","","0.6","0.10000000000000006",""
"","null","","html-keyboard-response","209","169621","0.0-0.0-2.0-1.0-0.1-0.1-0.1-2.68","null","<p style='font-size: 60px; color: red'>错误!</p>","","","","","","","","","","","","","","","","","","","","","","","","","","","","","","","","","","","","","","","","","","","","","","","","",""
"","null","fixation","html-keyboard-response","210","170125","0.0-0.0-2.0-1.0-0.1-0.1-0.1-0.69","null","<p style='font-size: 48px; color: white'>+</p >","","","","","","","","","","","","","","","","","","","","","","","","","","","","","","","","","","","","","","","","","","","","","","","","",""
"","508","motion_pract","rdk","211","170635","0.0-0.0-2.0-1.0-0.1-0.1-0.1-1.69","arrowleft","","true","[""ArrowLeft"",""ArrowRight""]","ArrowLeft","3000","true","1","100","180","0.12000000000000006","0","5.7","1","-1","3","600","600","[""hsl(0, 50%, 50%)"",""hsl(225, 50%, 50%)""]","[""white""]","0","0","7.227936996838922","circle","black","3","2","2","16.433333333333334","[6,15,18,17,16,16,18,17,17,17,17,17,17,16,18,16,17,16,16,18,17,17,17,17,16,17,17,16,17,17]","30","674","364.5","false","20","20","black","1","false","1","1","1398","874","rdk","ArrowLeft","","","","0.6","0.12000000000000006",""
"","null","","html-keyboard-response","212","171141","0.0-0.0-2.0-1.0-0.1-0.1-0.1-2.69","null","<p style='font-size: 60px; color: green'>正确!</p>","","","","","","","","","","","","","","","","","","","","","","","","","","","","","","","","","","","","","","","","","","","","","","","","",""
"","null","fixation","html-keyboard-response","213","171643","0.0-0.0-2.0-1.0-0.1-0.1-0.1-0.70","null","<p style='font-size: 48px; color: white'>+</p >","","","","","","","","","","","","","","","","","","","","","","","","","","","","","","","","","","","","","","","","","","","","","","","","",""
"","659","motion_pract","rdk","214","172304","0.0-0.0-2.0-1.0-0.1-0.1-0.1-1.70","arrowright","","true","[""ArrowLeft"",""ArrowRight""]","ArrowRight","3000","true","1","100","0","0.12000000000000006","0","5.7","1","-1","3","600","600","[""hsl(0, 50%, 50%)"",""hsl(225, 50%, 50%)""]","[""white""]","0","0","7.227936996838922","circle","black","3","2","2","16.525","[6,16,17,24,9,17,16,17,17,16,17,17,17,17,17,17,17,17,16,17,17,17,17,18,17,16,17,17,17,16,17,17,17,17,17,16,17,17,16,17]","40","674","364.5","false","20","20","black","1","false","1","1","1398","874","rdk","ArrowRight","","","","0.6","0.12000000000000006",""
"","null","","html-keyboard-response","215","172807","0.0-0.0-2.0-1.0-0.1-0.1-0.1-2.70","null","<p style='font-size: 60px; color: green'>正确!</p>","","","","","","","","","","","","","","","","","","","","","","","","","","","","","","","","","","","","","","","","","","","","","","","","",""
"","null","fixation","html-keyboard-response","216","173317","0.0-0.0-2.0-1.0-0.1-0.1-0.1-0.71","null","<p style='font-size: 48px; color: white'>+</p >","","","","","","","","","","","","","","","","","","","","","","","","","","","","","","","","","","","","","","","","","","","","","","","","",""
"","649","motion_pract","rdk","217","173968","0.0-0.0-2.0-1.0-0.1-0.1-0.1-1.71","arrowright","","true","[""ArrowLeft"",""ArrowRight""]","ArrowRight","3000","true","1","100","0","0.12000000000000006","0","5.7","1","-1","3","600","600","[""hsl(0, 50%, 50%)"",""hsl(225, 50%, 50%)""]","[""white""]","0","0","7.227936996838922","circle","black","3","2","2","16.692307692307693","[14,17,17,17,16,17,17,17,17,16,17,16,17,17,17,16,17,17,16,17,17,16,17,17,16,17,17,16,17,18,17,17,17,16,17,17,17,17,16]","39","674","364.5","false","20","20","black","1","false","1","1","1398","874","rdk","ArrowRight","","","","0.6","0.12000000000000006",""
"","null","","html-keyboard-response","218","174477","0.0-0.0-2.0-1.0-0.1-0.1-0.1-2.71","null","<p style='font-size: 60px; color: green'>正确!</p>","","","","","","","","","","","","","","","","","","","","","","","","","","","","","","","","","","","","","","","","","","","","","","","","",""
"","null","fixation","html-keyboard-response","219","174985","0.0-0.0-2.0-1.0-0.1-0.1-0.1-0.72","null","<p style='font-size: 48px; color: white'>+</p >","","","","","","","","","","","","","","","","","","","","","","","","","","","","","","","","","","","","","","","","","","","","","","","","",""
"","552","motion_pract","rdk","220","175539","0.0-0.0-2.0-1.0-0.1-0.1-0.1-1.72","arrowleft","","true","[""ArrowLeft"",""ArrowRight""]","ArrowLeft","3000","true","1","100","180","0.12000000000000006","0","5.7","1","-1","3","600","600","[""hsl(0, 50%, 50%)"",""hsl(225, 50%, 50%)""]","[""white""]","0","0","7.227936996838922","circle","black","3","2","2","16.606060606060606","[11,18,17,15,18,17,17,16,17,17,16,17,17,17,16,17,16,16,17,17,17,17,17,16,17,17,17,16,17,17,17,17,17]","33","674","364.5","false","20","20","black","1","false","1","1","1398","874","rdk","ArrowLeft","","","","0.6","0.12000000000000006",""
"","null","","html-keyboard-response","221","176041","0.0-0.0-2.0-1.0-0.1-0.1-0.1-2.72","null","<p style='font-size: 60px; color: green'>正确!</p>","","","","","","","","","","","","","","","","","","","","","","","","","","","","","","","","","","","","","","","","","","","","","","","","",""
"","null","fixation","html-keyboard-response","222","176544","0.0-0.0-2.0-1.0-0.1-0.1-0.1-0.73","null","<p style='font-size: 48px; color: white'>+</p >","","","","","","","","","","","","","","","","","","","","","","","","","","","","","","","","","","","","","","","","","","","","","","","","",""
"","1999","motion_pract","rdk","223","178545","0.0-0.0-2.0-1.0-0.1-0.1-0.1-1.73","arrowleft","","true","[""ArrowLeft"",""ArrowRight""]","ArrowLeft","3000","true","1","100","180","0.10000000000000006","0","5.7","1","-1","3","600","600","[""hsl(0, 50%, 50%)"",""hsl(225, 50%, 50%)""]","[""white""]","0","0","7.227936996838922","circle","black","3","2","2","16.949152542372882","[3,17,16,17,18,16,17,16,16,16,17,17,17,16,17,17,17,17,17,17,17,17,17,16,17,17,16,17,17,17,17,17,16,17,17,16,17,17,16,17,17,16,17,17,16,17,16,17,17,17,17,17,17,16,17,17,16,17,17,16,18,16,16,18,15,17,17,16,17,17,17,17,17,16,17,17,24,9,17,17,17,16,17,17,17,17,16,17,17,18,16,17,19,15,17,20,29,33,19,16,17,17,17,17,17,17,17,17,17,17,25,9,17,17,17,16,17,17]","118","674","364.5","false","20","20","black","1","false","1","1","1398","874","rdk","ArrowLeft","","","","0.6","0.10000000000000006",""
"","null","","html-keyboard-response","224","179052","0.0-0.0-2.0-1.0-0.1-0.1-0.1-2.73","null","<p style='font-size: 60px; color: green'>正确!</p>","","","","","","","","","","","","","","","","","","","","","","","","","","","","","","","","","","","","","","","","","","","","","","","","",""
"","null","fixation","html-keyboard-response","225","179554","0.0-0.0-2.0-1.0-0.1-0.1-0.1-0.74","null","<p style='font-size: 48px; color: white'>+</p >","","","","","","","","","","","","","","","","","","","","","","","","","","","","","","","","","","","","","","","","","","","","","","","","",""
"","712","motion_pract","rdk","226","180268","0.0-0.0-2.0-1.0-0.1-0.1-0.1-1.74","arrowright","","true","[""ArrowLeft"",""ArrowRight""]","ArrowRight","3000","true","1","100","0","0.10000000000000006","0","5.7","1","-1","3","600","600","[""hsl(0, 50%, 50%)"",""hsl(225, 50%, 50%)""]","[""white""]","0","0","7.227936996838922","circle","black","3","2","2","17.146341463414632","[29,15,17,17,17,17,17,17,17,16,17,17,17,17,16,17,17,17,16,16,17,17,17,17,17,17,17,17,17,17,17,17,17,17,17,17,16,17,17,17,18]","41","674","364.5","false","20","20","black","1","false","1","1","1398","874","rdk","ArrowRight","","","","0.6","0.10000000000000006",""
"","null","","html-keyboard-response","227","180776","0.0-0.0-2.0-1.0-0.1-0.1-0.1-2.74","null","<p style='font-size: 60px; color: green'>正确!</p>","","","","","","","","","","","","","","","","","","","","","","","","","","","","","","","","","","","","","","","","","","","","","","","","",""
"","null","fixation","html-keyboard-response","228","181278","0.0-0.0-2.0-1.0-0.1-0.1-0.1-0.75","null","<p style='font-size: 48px; color: white'>+</p >","","","","","","","","","","","","","","","","","","","","","","","","","","","","","","","","","","","","","","","","","","","","","","","","",""
"","832","motion_pract","rdk","229","182111","0.0-0.0-2.0-1.0-0.1-0.1-0.1-1.75","arrowleft","","false","[""ArrowLeft"",""ArrowRight""]","ArrowRight","3000","true","1","100","0","0.10000000000000006","0","5.7","1","-1","3","600","600","[""hsl(0, 50%, 50%)"",""hsl(225, 50%, 50%)""]","[""white""]","0","0","7.227936996838922","circle","black","3","2","2","16.58","[3,17,17,17,17,17,17,17,17,16,17,17,17,17,17,17,17,16,17,17,17,17,17,23,10,17,17,17,17,17,17,17,16,17,17,17,17,17,16,17,17,17,17,17,17,17,17,17,16,16]","50","674","364.5","false","20","20","black","1","false","1","1","1398","874","rdk","ArrowRight","","","","0.6","0.10000000000000006",""
"","null","","html-keyboard-response","230","182616","0.0-0.0-2.0-1.0-0.1-0.1-0.1-2.75","null","<p style='font-size: 60px; color: red'>错误!</p>","","","","","","","","","","","","","","","","","","","","","","","","","","","","","","","","","","","","","","","","","","","","","","","","",""
"","null","fixation","html-keyboard-response","231","183120","0.0-0.0-2.0-1.0-0.1-0.1-0.1-0.76","null","<p style='font-size: 48px; color: white'>+</p >","","","","","","","","","","","","","","","","","","","","","","","","","","","","","","","","","","","","","","","","","","","","","","","","",""
"","572","motion_pract","rdk","232","183693","0.0-0.0-2.0-1.0-0.1-0.1-0.1-1.76","arrowleft","","true","[""ArrowLeft"",""ArrowRight""]","ArrowLeft","3000","true","1","100","180","0.12000000000000006","0","5.7","1","-1","3","600","600","[""hsl(0, 50%, 50%)"",""hsl(225, 50%, 50%)""]","[""white""]","0","0","7.227936996838922","circle","black","3","2","2","16.705882352941178","[12,17,17,17,17,17,17,17,16,16,17,17,17,17,16,17,17,16,17,17,17,17,17,16,17,17,17,17,17,17,17,17,17,17]","34","674","364.5","false","20","20","black","1","false","1","1","1398","874","rdk","ArrowLeft","","","","0.6","0.12000000000000006",""
"","null","","html-keyboard-response","233","184210","0.0-0.0-2.0-1.0-0.1-0.1-0.1-2.76","null","<p style='font-size: 60px; color: green'>正确!</p>","","","","","","","","","","","","","","","","","","","","","","","","","","","","","","","","","","","","","","","","","","","","","","","","",""
"","null","fixation","html-keyboard-response","234","184721","0.0-0.0-2.0-1.0-0.1-0.1-0.1-0.77","null","<p style='font-size: 48px; color: white'>+</p >","","","","","","","","","","","","","","","","","","","","","","","","","","","","","","","","","","","","","","","","","","","","","","","","",""
"","564","motion_pract","rdk","235","185286","0.0-0.0-2.0-1.0-0.1-0.1-0.1-1.77","arrowright","","true","[""ArrowLeft"",""ArrowRight""]","ArrowRight","3000","true","1","100","0","0.12000000000000006","0","5.7","1","-1","3","600","600","[""hsl(0, 50%, 50%)"",""hsl(225, 50%, 50%)""]","[""white""]","0","0","7.227936996838922","circle","black","3","2","2","16.676470588235293","[10,17,17,17,17,17,17,17,17,17,17,17,16,23,11,17,17,17,17,17,17,16,17,17,17,16,17,17,17,16,17,17,17,17]","34","674","364.5","false","20","20","black","1","false","1","1","1398","874","rdk","ArrowRight","","","","0.6","0.12000000000000006",""
"","null","","html-keyboard-response","236","185789","0.0-0.0-2.0-1.0-0.1-0.1-0.1-2.77","null","<p style='font-size: 60px; color: green'>正确!</p>","","","","","","","","","","","","","","","","","","","","","","","","","","","","","","","","","","","","","","","","","","","","","","","","",""
"","null","fixation","html-keyboard-response","237","186291","0.0-0.0-2.0-1.0-0.1-0.1-0.1-0.78","null","<p style='font-size: 48px; color: white'>+</p >","","","","","","","","","","","","","","","","","","","","","","","","","","","","","","","","","","","","","","","","","","","","","","","","",""
