"success","rt","part","trial_type","trial_index","time_elapsed","internal_node_id","response","stimulus","correct","choices","correct_choice","trial_duration","response_ends_trial","number_of_apertures","number_of_dots","coherent_direction","coherence","opposite_coherence","dot_radius","dot_side_length","dot_life","move_distance","aperture_width","aperture_height","dot_color","dot_color_final","color_change_delay","target_color_proportion","motion_change_delay","dot_shape","background_color","RDK_type","aperture_type","reinsert_type","frame_rate","frame_rate_array","number_of_frames","aperture_center_x","aperture_center_y","fixation_cross","fixation_cross_width","fixation_cross_height","fixation_cross_color","fixation_cross_thickness","border","border_thickness","border_color","canvas_width","canvas_height","task","correct_responce","revs","correctNum","totalTrials","proportionColor","proportionMotion","data_label"
"true","2800","fullScreen","fullscreen","0","3804","0.0-0.0-0.0","","","","","","","","","","","","","","","","","","","","","","","","","","","","","","","","","","","","","","","","","","","","","","","","","","",""
"","10444","survey","survey","1","14365","0.0-0.0-1.0","{""sex"":""男"",""age"":22,""hands"":""右"",""color_blindness"":""都不是""}","","","","","","","","","","","","","","","","","","","","","","","","","","","","","","","","","","","","","","","","","","","","","","","","","",""
"","34326","pract_color","html-keyboard-response","2","48695","0.0-0.0-2.0-0.0"," ","
    <div style=""text-align: left; color: white; padding: 10px""> 
      <h3 style=""text-align: center; font-size: 30px; margin: 10px"">颜色判断任务</h3> 
      <p>接下来，屏幕上会呈现一些运动的圆点，其中一半为 <span style=""color: hsl(0, 50%, 50%)"">红色</span> ，一半为 <span style=""color: hsl(225, 50%, 50%)"">蓝色</span>，</p>
        <p><span style=""font-weight: bold"">大约0.2秒后,</span>  一部分点会随机变为另一种颜色（例如从红色变为蓝色），变化后某种颜色的数量会超过另一种。</p >
        <p>您需要又快又准地判断判断 <span style=""font-weight: bold"">变化后，散点图的整体颜色（即大多数点的颜色）是红色还是蓝色 </span>：</p >
        <ul>
          <li>整体为 <span style=""color: hsl(0, 50%, 50%)"">红色</span>，请按键盘 <span style=""color: hsl(0, 50%, 50%)"">""D"" 键</span></li>
          <li>整体为 <span style=""color: hsl(225, 50%, 50%)"">蓝色</span>，请按键盘 <span style=""color: hsl(225, 50%, 50%)"">""k"" 键</span> </li>
        </ul>
        <p>请将手指放在相应按键上，按下空格键进入练习阶段</p>
      </div>","","","","","","","","","","","","","","","","","","","","","","","","","","","","","","","","","","","","","","","","","","","","","","","","",""
"","null","fixation","html-keyboard-response","3","49196","0.0-0.0-2.0-1.0-0.0-0.0-0.0","null","<p style='font-size: 48px; color: white'>+</p >","","","","","","","","","","","","","","","","","","","","","","","","","","","","","","","","","","","","","","","","","","","","","","","","",""
"","-1","color_pract","rdk","4","52208","0.0-0.0-2.0-1.0-0.0-0.0-1.0","","","false","[""d"",""k""]","d","3000","true","1","100","0","0","0","5.7","1","-1","3","600","600","[""hsl(0, 50%, 50%)"",""hsl(225, 50%, 50%)""]","[""hsl(0, 50%, 50%)"",""hsl(225, 50%, 50%)""]","10.194928520823122","0.6","0","circle","black","3","2","2","16.971751412429377","[8,74,12,23,6,16,17,16,17,17,16,17,16,17,16,17,17,17,17,16,17,17,17,17,16,16,17,17,17,19,14,16,17,16,17,16,16,17,17,17,17,17,16,17,16,17,16,17,17,17,17,17,17,17,17,17,17,17,16,17,17,17,16,16,17,17,17,17,17,16,17,16,17,17,17,17,17,17,17,17,17,17,18,17,16,17,17,16,16,17,17,17,17,17,16,17,17,17,17,17,17,17,16,17,17,17,16,17,17,16,17,17,16,17,16,17,17,17,17,17,17,17,16,16,17,17,17,17,17,17,16,17,17,17,17,17,17,15,16,17,17,17,17,17,17,17,17,16,17,17,16,16,17,17,17,16,17,17,17,16,24,10,17,17,17,16,17,17,16,17,17,17,17,17,17,17,16]","177","568","461","false","20","20","black","1","false","1","1","2194","1234","rdk","d","","","","0.6","0.24",""
"","null","","html-keyboard-response","5","52712","0.0-0.0-2.0-1.0-0.0-0.0-2.0","null","<p style='font-size: 60px; color: yellow'>太慢!</p>","","","","","","","","","","","","","","","","","","","","","","","","","","","","","","","","","","","","","","","","","","","","","","","","",""
"","null","fixation","html-keyboard-response","6","53215","0.0-0.0-2.0-1.0-0.0-0.0-0.1","null","<p style='font-size: 48px; color: white'>+</p >","","","","","","","","","","","","","","","","","","","","","","","","","","","","","","","","","","","","","","","","","","","","","","","","",""
"","1256","color_pract","rdk","7","54475","0.0-0.0-2.0-1.0-0.0-0.0-1.1","k","","true","[""d"",""k""]","k","3000","true","1","100","0","0","0","5.7","1","-1","3","600","600","[""hsl(0, 50%, 50%)"",""hsl(225, 50%, 50%)""]","[""hsl(225, 50%, 50%)"",""hsl(0, 50%, 50%)""]","10.194928520823122","0.62","0","circle","black","3","2","2","17.430555555555557","[11,62,29,33,7,7,12,16,17,17,17,16,17,17,17,17,17,17,17,17,17,17,17,17,17,17,17,17,17,17,17,17,17,16,17,17,17,17,17,16,17,16,17,17,17,17,17,17,17,17,16,17,17,16,17,16,17,17,16,17,17,17,17,17,17,17,16,17,17,17,16,17]","72","568","461","false","20","20","black","1","false","1","1","2194","1234","rdk","k","","","","0.62","0.24",""
"","null","","html-keyboard-response","8","54978","0.0-0.0-2.0-1.0-0.0-0.0-2.1","null","<p style='font-size: 60px; color: green'>正确!</p>","","","","","","","","","","","","","","","","","","","","","","","","","","","","","","","","","","","","","","","","","","","","","","","","",""
"","null","fixation","html-keyboard-response","9","55480","0.0-0.0-2.0-1.0-0.0-0.0-0.2","null","<p style='font-size: 48px; color: white'>+</p >","","","","","","","","","","","","","","","","","","","","","","","","","","","","","","","","","","","","","","","","","","","","","","","","",""
"","899","color_pract","rdk","10","56382","0.0-0.0-2.0-1.0-0.0-0.0-1.2","d","","false","[""d"",""k""]","k","3000","true","1","100","0","0","0","5.7","1","-1","3","600","600","[""hsl(0, 50%, 50%)"",""hsl(225, 50%, 50%)""]","[""hsl(225, 50%, 50%)"",""hsl(0, 50%, 50%)""]","10.194928520823122","0.62","0","circle","black","3","2","2","17.037735849056602","[13,36,13,17,17,17,16,17,20,13,23,10,17,17,17,16,17,17,16,17,17,17,17,17,17,17,17,16,17,17,17,17,16,17,17,17,17,17,17,16,17,17,17,17,17,17,17,16,17,17,17,17,17]","53","568","461","false","20","20","black","1","false","1","1","2194","1234","rdk","k","","","","0.62","0.24",""
"","null","","html-keyboard-response","11","56885","0.0-0.0-2.0-1.0-0.0-0.0-2.2","null","<p style='font-size: 60px; color: red'>错误!</p>","","","","","","","","","","","","","","","","","","","","","","","","","","","","","","","","","","","","","","","","","","","","","","","","",""
"","null","fixation","html-keyboard-response","12","57387","0.0-0.0-2.0-1.0-0.0-0.0-0.3","null","<p style='font-size: 48px; color: white'>+</p >","","","","","","","","","","","","","","","","","","","","","","","","","","","","","","","","","","","","","","","","","","","","","","","","",""
"","654","color_pract","rdk","13","58043","0.0-0.0-2.0-1.0-0.0-0.0-1.3","k","","false","[""d"",""k""]","d","3000","true","1","100","0","0","0","5.7","1","-1","3","600","600","[""hsl(0, 50%, 50%)"",""hsl(225, 50%, 50%)""]","[""hsl(0, 50%, 50%)"",""hsl(225, 50%, 50%)""]","10.194928520823122","0.64","0","circle","black","3","2","2","16.435897435897434","[11,18,15,16,11,16,17,18,15,17,17,17,17,17,16,17,17,16,17,17,16,17,16,17,17,17,16,17,16,17,17,17,17,17,17,17,17,17,17]","39","568","461","false","20","20","black","1","false","1","1","2194","1234","rdk","d","","","","0.64","0.24",""
"","null","","html-keyboard-response","14","58545","0.0-0.0-2.0-1.0-0.0-0.0-2.3","null","<p style='font-size: 60px; color: red'>错误!</p>","","","","","","","","","","","","","","","","","","","","","","","","","","","","","","","","","","","","","","","","","","","","","","","","",""
"","null","fixation","html-keyboard-response","15","59048","0.0-0.0-2.0-1.0-0.0-0.0-0.4","null","<p style='font-size: 48px; color: white'>+</p >","","","","","","","","","","","","","","","","","","","","","","","","","","","","","","","","","","","","","","","","","","","","","","","","",""
"","557","color_pract","rdk","16","59607","0.0-0.0-2.0-1.0-0.0-0.0-1.4","d","","false","[""d"",""k""]","k","3000","true","1","100","0","0","0","5.7","1","-1","3","600","600","[""hsl(0, 50%, 50%)"",""hsl(225, 50%, 50%)""]","[""hsl(225, 50%, 50%)"",""hsl(0, 50%, 50%)""]","10.194928520823122","0.66","0","circle","black","3","2","2","16.606060606060606","[11,16,17,17,17,17,17,17,17,17,17,17,18,14,20,13,16,17,17,17,17,17,17,16,17,17,17,17,16,17,17,17,17]","33","568","461","false","20","20","black","1","false","1","1","2194","1234","rdk","k","","","","0.66","0.24",""
"","null","","html-keyboard-response","17","60109","0.0-0.0-2.0-1.0-0.0-0.0-2.4","null","<p style='font-size: 60px; color: red'>错误!</p>","","","","","","","","","","","","","","","","","","","","","","","","","","","","","","","","","","","","","","","","","","","","","","","","",""
"","null","fixation","html-keyboard-response","18","60610","0.0-0.0-2.0-1.0-0.0-0.0-0.5","null","<p style='font-size: 48px; color: white'>+</p >","","","","","","","","","","","","","","","","","","","","","","","","","","","","","","","","","","","","","","","","","","","","","","","","",""
"","385","color_pract","rdk","19","60998","0.0-0.0-2.0-1.0-0.0-0.0-1.5","d","","false","[""d"",""k""]","k","3000","true","1","100","0","0","0","5.7","1","-1","3","600","600","[""hsl(0, 50%, 50%)"",""hsl(225, 50%, 50%)""]","[""hsl(225, 50%, 50%)"",""hsl(0, 50%, 50%)""]","10.194928520823122","0.68","0","circle","black","3","2","2","16.565217391304348","[13,17,17,16,17,17,17,17,17,16,16,17,16,17,17,17,17,17,16,17,17,17,16]","23","568","461","false","20","20","black","1","false","1","1","2194","1234","rdk","k","","","","0.68","0.24",""
"","null","","html-keyboard-response","20","61500","0.0-0.0-2.0-1.0-0.0-0.0-2.5","null","<p style='font-size: 60px; color: red'>错误!</p>","","","","","","","","","","","","","","","","","","","","","","","","","","","","","","","","","","","","","","","","","","","","","","","","",""
"","null","fixation","html-keyboard-response","21","62002","0.0-0.0-2.0-1.0-0.0-0.0-0.6","null","<p style='font-size: 48px; color: white'>+</p >","","","","","","","","","","","","","","","","","","","","","","","","","","","","","","","","","","","","","","","","","","","","","","","","",""
"","410","color_pract","rdk","22","62414","0.0-0.0-2.0-1.0-0.0-0.0-1.6","d","","true","[""d"",""k""]","d","3000","true","1","100","0","0","0","5.7","1","-1","3","600","600","[""hsl(0, 50%, 50%)"",""hsl(225, 50%, 50%)""]","[""hsl(0, 50%, 50%)"",""hsl(225, 50%, 50%)""]","10.194928520823122","0.7000000000000001","0","circle","black","3","2","2","16.875","[40,2,14,16,17,17,17,17,17,17,16,17,16,17,17,16,16,17,16,17,16,17,16,17]","24","568","461","false","20","20","black","1","false","1","1","2194","1234","rdk","d","","","","0.7000000000000001","0.24",""
"","null","","html-keyboard-response","23","62916","0.0-0.0-2.0-1.0-0.0-0.0-2.6","null","<p style='font-size: 60px; color: green'>正确!</p>","","","","","","","","","","","","","","","","","","","","","","","","","","","","","","","","","","","","","","","","","","","","","","","","",""
"","null","fixation","html-keyboard-response","24","63417","0.0-0.0-2.0-1.0-0.0-0.0-0.7","null","<p style='font-size: 48px; color: white'>+</p >","","","","","","","","","","","","","","","","","","","","","","","","","","","","","","","","","","","","","","","","","","","","","","","","",""
"","377","color_pract","rdk","25","63796","0.0-0.0-2.0-1.0-0.0-0.0-1.7","k","","false","[""d"",""k""]","d","3000","true","1","100","0","0","0","5.7","1","-1","3","600","600","[""hsl(0, 50%, 50%)"",""hsl(225, 50%, 50%)""]","[""hsl(0, 50%, 50%)"",""hsl(225, 50%, 50%)""]","10.194928520823122","0.7000000000000001","0","circle","black","3","2","2","16.26086956521739","[5,17,16,16,17,16,16,17,17,17,17,17,17,16,17,17,17,17,17,17,17,17,17]","23","568","461","false","20","20","black","1","false","1","1","2194","1234","rdk","d","","","","0.7000000000000001","0.24",""
"","null","","html-keyboard-response","26","64297","0.0-0.0-2.0-1.0-0.0-0.0-2.7","null","<p style='font-size: 60px; color: red'>错误!</p>","","","","","","","","","","","","","","","","","","","","","","","","","","","","","","","","","","","","","","","","","","","","","","","","",""
"","null","fixation","html-keyboard-response","27","64798","0.0-0.0-2.0-1.0-0.0-0.0-0.8","null","<p style='font-size: 48px; color: white'>+</p >","","","","","","","","","","","","","","","","","","","","","","","","","","","","","","","","","","","","","","","","","","","","","","","","",""
"","436","color_pract","rdk","28","65235","0.0-0.0-2.0-1.0-0.0-0.0-1.8","d","","false","[""d"",""k""]","k","3000","true","1","100","0","0","0","5.7","1","-1","3","600","600","[""hsl(0, 50%, 50%)"",""hsl(225, 50%, 50%)""]","[""hsl(225, 50%, 50%)"",""hsl(0, 50%, 50%)""]","10.194928520823122","0.7200000000000001","0","circle","black","3","2","2","17.12","[9,16,40,27,6,8,17,17,17,17,17,17,17,17,17,17,17,17,17,17,16,17,17,17,17]","25","568","461","false","20","20","black","1","false","1","1","2194","1234","rdk","k","","","","0.7200000000000001","0.24",""
"","null","","html-keyboard-response","29","65737","0.0-0.0-2.0-1.0-0.0-0.0-2.8","null","<p style='font-size: 60px; color: red'>错误!</p>","","","","","","","","","","","","","","","","","","","","","","","","","","","","","","","","","","","","","","","","","","","","","","","","",""
"","null","fixation","html-keyboard-response","30","66239","0.0-0.0-2.0-1.0-0.0-0.0-0.9","null","<p style='font-size: 48px; color: white'>+</p >","","","","","","","","","","","","","","","","","","","","","","","","","","","","","","","","","","","","","","","","","","","","","","","","",""
"","402","color_pract","rdk","31","66643","0.0-0.0-2.0-1.0-0.0-0.0-1.9","d","","true","[""d"",""k""]","d","3000","true","1","100","0","0","0","5.7","1","-1","3","600","600","[""hsl(0, 50%, 50%)"",""hsl(225, 50%, 50%)""]","[""hsl(0, 50%, 50%)"",""hsl(225, 50%, 50%)""]","10.194928520823122","0.7400000000000001","0","circle","black","3","2","2","16.625","[15,16,16,17,17,16,17,17,17,17,17,16,17,17,17,17,16,17,16,17,17,17,16,17]","24","568","461","false","20","20","black","1","false","1","1","2194","1234","rdk","d","","","","0.7400000000000001","0.24",""
"","null","","html-keyboard-response","32","67144","0.0-0.0-2.0-1.0-0.0-0.0-2.9","null","<p style='font-size: 60px; color: green'>正确!</p>","","","","","","","","","","","","","","","","","","","","","","","","","","","","","","","","","","","","","","","","","","","","","","","","",""
"","null","fixation","html-keyboard-response","33","67646","0.0-0.0-2.0-1.0-0.0-0.0-0.10","null","<p style='font-size: 48px; color: white'>+</p >","","","","","","","","","","","","","","","","","","","","","","","","","","","","","","","","","","","","","","","","","","","","","","","","",""
"","360","color_pract","rdk","34","68007","0.0-0.0-2.0-1.0-0.0-0.0-1.10","k","","false","[""d"",""k""]","d","3000","true","1","100","0","0","0","5.7","1","-1","3","600","600","[""hsl(0, 50%, 50%)"",""hsl(225, 50%, 50%)""]","[""hsl(0, 50%, 50%)"",""hsl(225, 50%, 50%)""]","10.194928520823122","0.7400000000000001","0","circle","black","3","2","2","16.428571428571427","[12,16,16,15,17,17,17,17,16,17,17,17,17,17,16,17,17,17,16,17,17]","21","568","461","false","20","20","black","1","false","1","1","2194","1234","rdk","d","","","","0.7400000000000001","0.24",""
"","null","","html-keyboard-response","35","68511","0.0-0.0-2.0-1.0-0.0-0.0-2.10","null","<p style='font-size: 60px; color: red'>错误!</p>","","","","","","","","","","","","","","","","","","","","","","","","","","","","","","","","","","","","","","","","","","","","","","","","",""
"","null","fixation","html-keyboard-response","36","69013","0.0-0.0-2.0-1.0-0.0-0.0-0.11","null","<p style='font-size: 48px; color: white'>+</p >","","","","","","","","","","","","","","","","","","","","","","","","","","","","","","","","","","","","","","","","","","","","","","","","",""
"","461","color_pract","rdk","37","69476","0.0-0.0-2.0-1.0-0.0-0.0-1.11","d","","false","[""d"",""k""]","k","3000","true","1","100","0","0","0","5.7","1","-1","3","600","600","[""hsl(0, 50%, 50%)"",""hsl(225, 50%, 50%)""]","[""hsl(225, 50%, 50%)"",""hsl(0, 50%, 50%)""]","10.194928520823122","0.7600000000000001","0","circle","black","3","2","2","16.392857142857142","[7,17,18,15,17,17,16,17,17,17,17,16,16,17,17,16,17,17,17,17,17,17,16,16,17,17,17,17]","28","568","461","false","20","20","black","1","false","1","1","2194","1234","rdk","k","","","","0.7600000000000001","0.24",""
"","null","","html-keyboard-response","38","69978","0.0-0.0-2.0-1.0-0.0-0.0-2.11","null","<p style='font-size: 60px; color: red'>错误!</p>","","","","","","","","","","","","","","","","","","","","","","","","","","","","","","","","","","","","","","","","","","","","","","","","",""
"","null","fixation","html-keyboard-response","39","70479","0.0-0.0-2.0-1.0-0.0-0.0-0.12","null","<p style='font-size: 48px; color: white'>+</p >","","","","","","","","","","","","","","","","","","","","","","","","","","","","","","","","","","","","","","","","","","","","","","","","",""
"","383","color_pract","rdk","40","70864","0.0-0.0-2.0-1.0-0.0-0.0-1.12","k","","true","[""d"",""k""]","k","3000","true","1","100","0","0","0","5.7","1","-1","3","600","600","[""hsl(0, 50%, 50%)"",""hsl(225, 50%, 50%)""]","[""hsl(225, 50%, 50%)"",""hsl(0, 50%, 50%)""]","10.194928520823122","0.7800000000000001","0","circle","black","3","2","2","16.217391304347824","[9,26,6,17,15,16,17,16,16,17,17,17,17,16,17,16,17,17,17,16,17,17,17]","23","568","461","false","20","20","black","1","false","1","1","2194","1234","rdk","k","","","","0.7800000000000001","0.24",""
"","null","","html-keyboard-response","41","71365","0.0-0.0-2.0-1.0-0.0-0.0-2.12","null","<p style='font-size: 60px; color: green'>正确!</p>","","","","","","","","","","","","","","","","","","","","","","","","","","","","","","","","","","","","","","","","","","","","","","","","",""
"","null","fixation","html-keyboard-response","42","71867","0.0-0.0-2.0-1.0-0.0-0.0-0.13","null","<p style='font-size: 48px; color: white'>+</p >","","","","","","","","","","","","","","","","","","","","","","","","","","","","","","","","","","","","","","","","","","","","","","","","",""
"","373","color_pract","rdk","43","72241","0.0-0.0-2.0-1.0-0.0-0.0-1.13","k","","true","[""d"",""k""]","k","3000","true","1","100","0","0","0","5.7","1","-1","3","600","600","[""hsl(0, 50%, 50%)"",""hsl(225, 50%, 50%)""]","[""hsl(225, 50%, 50%)"",""hsl(0, 50%, 50%)""]","10.194928520823122","0.7800000000000001","0","circle","black","3","2","2","16.130434782608695","[3,16,29,11,13,20,17,11,22,22,18,6,15,21,19,11,16,16,17,17,17,17,17]","23","568","461","false","20","20","black","1","false","1","1","2194","1234","rdk","k","","","","0.7800000000000001","0.24",""
"","null","","html-keyboard-response","44","72743","0.0-0.0-2.0-1.0-0.0-0.0-2.13","null","<p style='font-size: 60px; color: green'>正确!</p>","","","","","","","","","","","","","","","","","","","","","","","","","","","","","","","","","","","","","","","","","","","","","","","","",""
"","null","fixation","html-keyboard-response","45","73244","0.0-0.0-2.0-1.0-0.0-0.0-0.14","null","<p style='font-size: 48px; color: white'>+</p >","","","","","","","","","","","","","","","","","","","","","","","","","","","","","","","","","","","","","","","","","","","","","","","","",""
"","494","color_pract","rdk","46","73740","0.0-0.0-2.0-1.0-0.0-0.0-1.14","d","","true","[""d"",""k""]","d","3000","true","1","100","0","0","0","5.7","1","-1","3","600","600","[""hsl(0, 50%, 50%)"",""hsl(225, 50%, 50%)""]","[""hsl(0, 50%, 50%)"",""hsl(225, 50%, 50%)""]","10.194928520823122","0.7800000000000001","0","circle","black","3","2","2","16.533333333333335","[8,18,15,17,17,16,23,11,16,17,16,17,17,17,17,17,17,17,17,17,17,17,17,17,18,15,17,17,17,17]","30","568","461","false","20","20","black","1","false","1","1","2194","1234","rdk","d","","","","0.7800000000000001","0.24",""
"","null","","html-keyboard-response","47","74242","0.0-0.0-2.0-1.0-0.0-0.0-2.14","null","<p style='font-size: 60px; color: green'>正确!</p>","","","","","","","","","","","","","","","","","","","","","","","","","","","","","","","","","","","","","","","","","","","","","","","","",""
"","null","fixation","html-keyboard-response","48","74743","0.0-0.0-2.0-1.0-0.0-0.0-0.15","null","<p style='font-size: 48px; color: white'>+</p >","","","","","","","","","","","","","","","","","","","","","","","","","","","","","","","","","","","","","","","","","","","","","","","","",""
"","369","color_pract","rdk","49","75114","0.0-0.0-2.0-1.0-0.0-0.0-1.15","k","","false","[""d"",""k""]","d","3000","true","1","100","0","0","0","5.7","1","-1","3","600","600","[""hsl(0, 50%, 50%)"",""hsl(225, 50%, 50%)""]","[""hsl(0, 50%, 50%)"",""hsl(225, 50%, 50%)""]","10.194928520823122","0.7800000000000001","0","circle","black","3","2","2","16.272727272727273","[7,16,17,16,17,17,17,17,17,17,17,17,17,17,16,17,17,16,16,16,17,17]","22","568","461","false","20","20","black","1","false","1","1","2194","1234","rdk","d","","","","0.7800000000000001","0.24",""
"","null","","html-keyboard-response","50","75615","0.0-0.0-2.0-1.0-0.0-0.0-2.15","null","<p style='font-size: 60px; color: red'>错误!</p>","","","","","","","","","","","","","","","","","","","","","","","","","","","","","","","","","","","","","","","","","","","","","","","","",""
"","null","fixation","html-keyboard-response","51","76117","0.0-0.0-2.0-1.0-0.0-0.0-0.16","null","<p style='font-size: 48px; color: white'>+</p >","","","","","","","","","","","","","","","","","","","","","","","","","","","","","","","","","","","","","","","","","","","","","","","","",""
"","531","color_pract","rdk","52","76650","0.0-0.0-2.0-1.0-0.0-0.0-1.16","k","","true","[""d"",""k""]","k","3000","true","1","100","0","0","0","5.7","1","-1","3","600","600","[""hsl(0, 50%, 50%)"",""hsl(225, 50%, 50%)""]","[""hsl(225, 50%, 50%)"",""hsl(0, 50%, 50%)""]","10.194928520823122","0.8","0","circle","black","3","2","2","16.28125","[4,16,21,22,9,10,16,17,17,17,16,17,17,17,17,16,17,18,17,17,16,17,17,17,17,17,17,17,17,17,17,17]","32","568","461","false","20","20","black","1","false","1","1","2194","1234","rdk","k","","","","0.8","0.24",""
"","null","","html-keyboard-response","53","77155","0.0-0.0-2.0-1.0-0.0-0.0-2.16","null","<p style='font-size: 60px; color: green'>正确!</p>","","","","","","","","","","","","","","","","","","","","","","","","","","","","","","","","","","","","","","","","","","","","","","","","",""
"","null","fixation","html-keyboard-response","54","77656","0.0-0.0-2.0-1.0-0.0-0.0-0.17","null","<p style='font-size: 48px; color: white'>+</p >","","","","","","","","","","","","","","","","","","","","","","","","","","","","","","","","","","","","","","","","","","","","","","","","",""
"","481","color_pract","rdk","55","78140","0.0-0.0-2.0-1.0-0.0-0.0-1.17","d","","false","[""d"",""k""]","k","3000","true","1","100","0","0","0","5.7","1","-1","3","600","600","[""hsl(0, 50%, 50%)"",""hsl(225, 50%, 50%)""]","[""hsl(225, 50%, 50%)"",""hsl(0, 50%, 50%)""]","10.194928520823122","0.8","0","circle","black","3","2","2","16.448275862068964","[9,16,16,16,16,17,17,17,16,17,17,17,17,17,17,17,17,17,17,16,17,17,16,18,16,17,16,17,17]","29","568","461","false","20","20","black","1","false","1","1","2194","1234","rdk","k","","","","0.8","0.24",""
"","null","","html-keyboard-response","56","78642","0.0-0.0-2.0-1.0-0.0-0.0-2.17","null","<p style='font-size: 60px; color: red'>错误!</p>","","","","","","","","","","","","","","","","","","","","","","","","","","","","","","","","","","","","","","","","","","","","","","","","",""
"","null","fixation","html-keyboard-response","57","79144","0.0-0.0-2.0-1.0-0.0-0.0-0.18","null","<p style='font-size: 48px; color: white'>+</p >","","","","","","","","","","","","","","","","","","","","","","","","","","","","","","","","","","","","","","","","","","","","","","","","",""
"","427","color_pract","rdk","58","79572","0.0-0.0-2.0-1.0-0.0-0.0-1.18","d","","true","[""d"",""k""]","d","3000","true","1","100","0","0","0","5.7","1","-1","3","600","600","[""hsl(0, 50%, 50%)"",""hsl(225, 50%, 50%)""]","[""hsl(0, 50%, 50%)"",""hsl(225, 50%, 50%)""]","10.194928520823122","0.8","0","circle","black","3","2","2","16.384615384615383","[5,17,16,17,17,19,15,17,17,17,17,17,17,17,17,17,17,17,16,17,17,17,16,16,21,13]","26","568","461","false","20","20","black","1","false","1","1","2194","1234","rdk","d","","","","0.8","0.24",""
"","null","","html-keyboard-response","59","80075","0.0-0.0-2.0-1.0-0.0-0.0-2.18","null","<p style='font-size: 60px; color: green'>正确!</p>","","","","","","","","","","","","","","","","","","","","","","","","","","","","","","","","","","","","","","","","","","","","","","","","",""
"","null","fixation","html-keyboard-response","60","80575","0.0-0.0-2.0-1.0-0.0-0.0-0.19","null","<p style='font-size: 48px; color: white'>+</p >","","","","","","","","","","","","","","","","","","","","","","","","","","","","","","","","","","","","","","","","","","","","","","","","",""
"","436","color_pract","rdk","61","81014","0.0-0.0-2.0-1.0-0.0-0.0-1.19","k","","false","[""d"",""k""]","d","3000","true","1","100","0","0","0","5.7","1","-1","3","600","600","[""hsl(0, 50%, 50%)"",""hsl(225, 50%, 50%)""]","[""hsl(0, 50%, 50%)"",""hsl(225, 50%, 50%)""]","10.194928520823122","0.8","0","circle","black","3","2","2","16.423076923076923","[7,18,20,18,9,16,17,17,17,17,17,16,17,17,17,17,17,17,17,17,17,17,17,17,17,17]","26","568","461","false","20","20","black","1","false","1","1","2194","1234","rdk","d","","","","0.8","0.24",""
"","null","","html-keyboard-response","62","81515","0.0-0.0-2.0-1.0-0.0-0.0-2.19","null","<p style='font-size: 60px; color: red'>错误!</p>","","","","","","","","","","","","","","","","","","","","","","","","","","","","","","","","","","","","","","","","","","","","","","","","",""
"","null","fixation","html-keyboard-response","63","82016","0.0-0.0-2.0-1.0-0.0-0.0-0.20","null","<p style='font-size: 48px; color: white'>+</p >","","","","","","","","","","","","","","","","","","","","","","","","","","","","","","","","","","","","","","","","","","","","","","","","",""
"","559","color_pract","rdk","64","82575","0.0-0.0-2.0-1.0-0.0-0.0-1.20","d","","true","[""d"",""k""]","d","3000","true","1","100","0","0","0","5.7","1","-1","3","600","600","[""hsl(0, 50%, 50%)"",""hsl(225, 50%, 50%)""]","[""hsl(0, 50%, 50%)"",""hsl(225, 50%, 50%)""]","10.194928520823122","0.8","0","circle","black","3","2","2","16.87878787878788","[15,17,17,17,17,17,17,16,17,17,17,16,16,17,17,17,17,17,17,16,17,17,17,17,17,17,17,17,17,17,17,18,18]","33","568","461","false","20","20","black","1","false","1","1","2194","1234","rdk","d","","","","0.8","0.24",""
"","null","","html-keyboard-response","65","83078","0.0-0.0-2.0-1.0-0.0-0.0-2.20","null","<p style='font-size: 60px; color: green'>正确!</p>","","","","","","","","","","","","","","","","","","","","","","","","","","","","","","","","","","","","","","","","","","","","","","","","",""
"","null","fixation","html-keyboard-response","66","83580","0.0-0.0-2.0-1.0-0.0-0.0-0.21","null","<p style='font-size: 48px; color: white'>+</p >","","","","","","","","","","","","","","","","","","","","","","","","","","","","","","","","","","","","","","","","","","","","","","","","",""
"","612","color_pract","rdk","67","84193","0.0-0.0-2.0-1.0-0.0-0.0-1.21","k","","true","[""d"",""k""]","k","3000","true","1","100","0","0","0","5.7","1","-1","3","600","600","[""hsl(0, 50%, 50%)"",""hsl(225, 50%, 50%)""]","[""hsl(225, 50%, 50%)"",""hsl(0, 50%, 50%)""]","10.194928520823122","0.8","0","circle","black","3","2","2","16.486486486486488","[2,16,17,16,17,17,17,17,17,17,17,17,17,17,17,17,17,17,17,17,17,17,17,17,17,17,17,16,17,17,17,16,17,17,17,17,17]","37","568","461","false","20","20","black","1","false","1","1","2194","1234","rdk","k","","","","0.8","0.24",""
"","null","","html-keyboard-response","68","84695","0.0-0.0-2.0-1.0-0.0-0.0-2.21","null","<p style='font-size: 60px; color: green'>正确!</p>","","","","","","","","","","","","","","","","","","","","","","","","","","","","","","","","","","","","","","","","","","","","","","","","",""
"","null","fixation","html-keyboard-response","69","85197","0.0-0.0-2.0-1.0-0.0-0.0-0.22","null","<p style='font-size: 48px; color: white'>+</p >","","","","","","","","","","","","","","","","","","","","","","","","","","","","","","","","","","","","","","","","","","","","","","","","",""
"","568","color_pract","rdk","70","85768","0.0-0.0-2.0-1.0-0.0-0.0-1.22","d","","true","[""d"",""k""]","d","3000","true","1","100","0","0","0","5.7","1","-1","3","600","600","[""hsl(0, 50%, 50%)"",""hsl(225, 50%, 50%)""]","[""hsl(0, 50%, 50%)"",""hsl(225, 50%, 50%)""]","10.194928520823122","0.8","0","circle","black","3","2","2","16.818181818181817","[22,10,19,13,17,16,17,17,16,17,17,17,17,18,17,17,17,16,17,17,17,17,17,17,17,17,17,17,17,17,18,16,17]","33","568","461","false","20","20","black","1","false","1","1","2194","1234","rdk","d","","","","0.8","0.24",""
"","null","","html-keyboard-response","71","86269","0.0-0.0-2.0-1.0-0.0-0.0-2.22","null","<p style='font-size: 60px; color: green'>正确!</p>","","","","","","","","","","","","","","","","","","","","","","","","","","","","","","","","","","","","","","","","","","","","","","","","",""
"","null","fixation","html-keyboard-response","72","86771","0.0-0.0-2.0-1.0-0.0-0.0-0.23","null","<p style='font-size: 48px; color: white'>+</p >","","","","","","","","","","","","","","","","","","","","","","","","","","","","","","","","","","","","","","","","","","","","","","","","",""
"","571","color_pract","rdk","73","87343","0.0-0.0-2.0-1.0-0.0-0.0-1.23","k","","true","[""d"",""k""]","k","3000","true","1","100","0","0","0","5.7","1","-1","3","600","600","[""hsl(0, 50%, 50%)"",""hsl(225, 50%, 50%)""]","[""hsl(225, 50%, 50%)"",""hsl(0, 50%, 50%)""]","10.194928520823122","0.8","0","circle","black","3","2","2","16.441176470588236","[23,10,16,10,16,28,5,21,19,18,9,20,20,9,23,14,14,23,18,15,11,16,17,16,17,16,17,17,16,17,17,17,17,17]","34","568","461","false","20","20","black","1","false","1","1","2194","1234","rdk","k","","","","0.8","0.24",""
"","null","","html-keyboard-response","74","87846","0.0-0.0-2.0-1.0-0.0-0.0-2.23","null","<p style='font-size: 60px; color: green'>正确!</p>","","","","","","","","","","","","","","","","","","","","","","","","","","","","","","","","","","","","","","","","","","","","","","","","",""
"","null","fixation","html-keyboard-response","75","88347","0.0-0.0-2.0-1.0-0.0-0.0-0.24","null","<p style='font-size: 48px; color: white'>+</p >","","","","","","","","","","","","","","","","","","","","","","","","","","","","","","","","","","","","","","","","","","","","","","","","",""
"","506","color_pract","rdk","76","88855","0.0-0.0-2.0-1.0-0.0-0.0-1.24","d","","true","[""d"",""k""]","d","3000","true","1","100","0","0","0","5.7","1","-1","3","600","600","[""hsl(0, 50%, 50%)"",""hsl(225, 50%, 50%)""]","[""hsl(0, 50%, 50%)"",""hsl(225, 50%, 50%)""]","10.194928520823122","0.78","0","circle","black","3","2","2","16.7","[14,22,11,16,17,17,16,17,17,17,17,17,17,17,16,17,17,17,17,16,17,17,17,17,17,17,17,17,17,16]","30","568","461","false","20","20","black","1","false","1","1","2194","1234","rdk","d","","","","0.78","0.24",""
"","null","","html-keyboard-response","77","89357","0.0-0.0-2.0-1.0-0.0-0.0-2.24","null","<p style='font-size: 60px; color: green'>正确!</p>","","","","","","","","","","","","","","","","","","","","","","","","","","","","","","","","","","","","","","","","","","","","","","","","",""
"","null","fixation","html-keyboard-response","78","89858","0.0-0.0-2.0-1.0-0.0-0.0-0.25","null","<p style='font-size: 48px; color: white'>+</p >","","","","","","","","","","","","","","","","","","","","","","","","","","","","","","","","","","","","","","","","","","","","","","","","",""
"","509","color_pract","rdk","79","90369","0.0-0.0-2.0-1.0-0.0-0.0-1.25","d","","false","[""d"",""k""]","k","3000","true","1","100","0","0","0","5.7","1","-1","3","600","600","[""hsl(0, 50%, 50%)"",""hsl(225, 50%, 50%)""]","[""hsl(225, 50%, 50%)"",""hsl(0, 50%, 50%)""]","10.194928520823122","0.78","0","circle","black","3","2","2","16.35483870967742","[3,15,16,17,17,17,16,17,17,17,17,16,17,17,17,17,17,17,17,17,16,17,17,17,17,17,17,17,17,17,17]","31","568","461","false","20","20","black","1","false","1","1","2194","1234","rdk","k","","","","0.78","0.24",""
"","null","","html-keyboard-response","80","90870","0.0-0.0-2.0-1.0-0.0-0.0-2.25","null","<p style='font-size: 60px; color: red'>错误!</p>","","","","","","","","","","","","","","","","","","","","","","","","","","","","","","","","","","","","","","","","","","","","","","","","",""
"","null","fixation","html-keyboard-response","81","91372","0.0-0.0-2.0-1.0-0.0-0.0-0.26","null","<p style='font-size: 48px; color: white'>+</p >","","","","","","","","","","","","","","","","","","","","","","","","","","","","","","","","","","","","","","","","","","","","","","","","",""
"","440","color_pract","rdk","82","91813","0.0-0.0-2.0-1.0-0.0-0.0-1.26","k","","false","[""d"",""k""]","d","3000","true","1","100","0","0","0","5.7","1","-1","3","600","600","[""hsl(0, 50%, 50%)"",""hsl(225, 50%, 50%)""]","[""hsl(0, 50%, 50%)"",""hsl(225, 50%, 50%)""]","10.194928520823122","0.8","0","circle","black","3","2","2","16.923076923076923","[6,15,17,16,17,17,17,17,17,17,17,16,17,17,17,21,13,25,16,9,17,25,13,20,17,24]","26","568","461","false","20","20","black","1","false","1","1","2194","1234","rdk","d","","","","0.8","0.24",""
"","null","","html-keyboard-response","83","92315","0.0-0.0-2.0-1.0-0.0-0.0-2.26","null","<p style='font-size: 60px; color: red'>错误!</p>","","","","","","","","","","","","","","","","","","","","","","","","","","","","","","","","","","","","","","","","","","","","","","","","",""
"","null","fixation","html-keyboard-response","84","92818","0.0-0.0-2.0-1.0-0.0-0.0-0.27","null","<p style='font-size: 48px; color: white'>+</p >","","","","","","","","","","","","","","","","","","","","","","","","","","","","","","","","","","","","","","","","","","","","","","","","",""
"","523","color_pract","rdk","85","93342","0.0-0.0-2.0-1.0-0.0-0.0-1.27","d","","false","[""d"",""k""]","k","3000","true","1","100","0","0","0","5.7","1","-1","3","600","600","[""hsl(0, 50%, 50%)"",""hsl(225, 50%, 50%)""]","[""hsl(225, 50%, 50%)"",""hsl(0, 50%, 50%)""]","10.194928520823122","0.8","0","circle","black","3","2","2","16.966666666666665","[8,17,59,1,6,18,15,17,16,17,17,17,16,17,17,17,17,16,17,16,17,16,17,17,17,16,18,17,17,16]","30","568","461","false","20","20","black","1","false","1","1","2194","1234","rdk","k","","","","0.8","0.24",""
"","null","","html-keyboard-response","86","93845","0.0-0.0-2.0-1.0-0.0-0.0-2.27","null","<p style='font-size: 60px; color: red'>错误!</p>","","","","","","","","","","","","","","","","","","","","","","","","","","","","","","","","","","","","","","","","","","","","","","","","",""
"","null","fixation","html-keyboard-response","87","94347","0.0-0.0-2.0-1.0-0.0-0.0-0.28","null","<p style='font-size: 48px; color: white'>+</p >","","","","","","","","","","","","","","","","","","","","","","","","","","","","","","","","","","","","","","","","","","","","","","","","",""
"","487","color_pract","rdk","88","94835","0.0-0.0-2.0-1.0-0.0-0.0-1.28","d","","false","[""d"",""k""]","k","3000","true","1","100","0","0","0","5.7","1","-1","3","600","600","[""hsl(0, 50%, 50%)"",""hsl(225, 50%, 50%)""]","[""hsl(225, 50%, 50%)"",""hsl(0, 50%, 50%)""]","10.194928520823122","0.8","0","circle","black","3","2","2","16.620689655172413","[12,16,17,17,17,17,16,17,17,17,16,17,17,17,17,16,17,17,17,17,17,17,17,17,17,24,9,16,17]","29","568","461","false","20","20","black","1","false","1","1","2194","1234","rdk","k","","","","0.8","0.24",""
"","null","","html-keyboard-response","89","95336","0.0-0.0-2.0-1.0-0.0-0.0-2.28","null","<p style='font-size: 60px; color: red'>错误!</p>","","","","","","","","","","","","","","","","","","","","","","","","","","","","","","","","","","","","","","","","","","","","","","","","",""
"","null","fixation","html-keyboard-response","90","95839","0.0-0.0-2.0-1.0-0.0-0.0-0.29","null","<p style='font-size: 48px; color: white'>+</p >","","","","","","","","","","","","","","","","","","","","","","","","","","","","","","","","","","","","","","","","","","","","","","","","",""
"","492","color_pract","rdk","91","96332","0.0-0.0-2.0-1.0-0.0-0.0-1.29","k","","true","[""d"",""k""]","k","3000","true","1","100","0","0","0","5.7","1","-1","3","600","600","[""hsl(0, 50%, 50%)"",""hsl(225, 50%, 50%)""]","[""hsl(225, 50%, 50%)"",""hsl(0, 50%, 50%)""]","10.194928520823122","0.8","0","circle","black","3","2","2","16.433333333333334","[3,16,17,17,17,17,17,16,17,17,17,17,17,17,16,17,17,17,17,17,17,17,17,17,17,17,17,17,17,17]","30","568","461","false","20","20","black","1","false","1","1","2194","1234","rdk","k","","","","0.8","0.24",""
"","null","","html-keyboard-response","92","96833","0.0-0.0-2.0-1.0-0.0-0.0-2.29","null","<p style='font-size: 60px; color: green'>正确!</p>","","","","","","","","","","","","","","","","","","","","","","","","","","","","","","","","","","","","","","","","","","","","","","","","",""
"","null","fixation","html-keyboard-response","93","97335","0.0-0.0-2.0-1.0-0.0-0.0-0.30","null","<p style='font-size: 48px; color: white'>+</p >","","","","","","","","","","","","","","","","","","","","","","","","","","","","","","","","","","","","","","","","","","","","","","","","",""
"","415","color_pract","rdk","94","97750","0.0-0.0-2.0-1.0-0.0-0.0-1.30","d","","true","[""d"",""k""]","d","3000","true","1","100","0","0","0","5.7","1","-1","3","600","600","[""hsl(0, 50%, 50%)"",""hsl(225, 50%, 50%)""]","[""hsl(0, 50%, 50%)"",""hsl(225, 50%, 50%)""]","10.194928520823122","0.8","0","circle","black","3","2","2","17.041666666666668","[39,1,15,17,17,17,17,17,17,17,17,17,17,17,17,17,17,17,17,16,17,16,17,16]","24","568","461","false","20","20","black","1","false","1","1","2194","1234","rdk","d","","","","0.8","0.24",""
"","null","","html-keyboard-response","95","98251","0.0-0.0-2.0-1.0-0.0-0.0-2.30","null","<p style='font-size: 60px; color: green'>正确!</p>","","","","","","","","","","","","","","","","","","","","","","","","","","","","","","","","","","","","","","","","","","","","","","","","",""
"","null","fixation","html-keyboard-response","96","98753","0.0-0.0-2.0-1.0-0.0-0.0-0.31","null","<p style='font-size: 48px; color: white'>+</p >","","","","","","","","","","","","","","","","","","","","","","","","","","","","","","","","","","","","","","","","","","","","","","","","",""
"","541","color_pract","rdk","97","99296","0.0-0.0-2.0-1.0-0.0-0.0-1.31","k","","false","[""d"",""k""]","d","3000","true","1","100","0","0","0","5.7","1","-1","3","600","600","[""hsl(0, 50%, 50%)"",""hsl(225, 50%, 50%)""]","[""hsl(0, 50%, 50%)"",""hsl(225, 50%, 50%)""]","10.194928520823122","0.8","0","circle","black","3","2","2","16.363636363636363","[4,15,17,16,17,17,17,17,17,16,17,17,17,17,16,17,17,18,15,16,17,17,17,17,17,17,17,17,17,16,17,17,17]","33","568","461","false","20","20","black","1","false","1","1","2194","1234","rdk","d","","","","0.8","0.24",""
"","null","","html-keyboard-response","98","99798","0.0-0.0-2.0-1.0-0.0-0.0-2.31","null","<p style='font-size: 60px; color: red'>错误!</p>","","","","","","","","","","","","","","","","","","","","","","","","","","","","","","","","","","","","","","","","","","","","","","","","",""
"","null","fixation","html-keyboard-response","99","100299","0.0-0.0-2.0-1.0-0.0-0.0-0.32","null","<p style='font-size: 48px; color: white'>+</p >","","","","","","","","","","","","","","","","","","","","","","","","","","","","","","","","","","","","","","","","","","","","","","","","",""
"","543","color_pract","rdk","100","100843","0.0-0.0-2.0-1.0-0.0-0.0-1.32","d","","true","[""d"",""k""]","d","3000","true","1","100","0","0","0","5.7","1","-1","3","600","600","[""hsl(0, 50%, 50%)"",""hsl(225, 50%, 50%)""]","[""hsl(0, 50%, 50%)"",""hsl(225, 50%, 50%)""]","10.194928520823122","0.8","0","circle","black","3","2","2","16.454545454545453","[7,16,17,17,17,17,17,17,17,17,16,17,17,17,16,17,16,17,17,16,17,17,17,17,17,17,17,16,16,17,17,16,17]","33","568","461","false","20","20","black","1","false","1","1","2194","1234","rdk","d","","","","0.8","0.24",""
"","null","","html-keyboard-response","101","101345","0.0-0.0-2.0-1.0-0.0-0.0-2.32","null","<p style='font-size: 60px; color: green'>正确!</p>","","","","","","","","","","","","","","","","","","","","","","","","","","","","","","","","","","","","","","","","","","","","","","","","",""
"","null","fixation","html-keyboard-response","102","101847","0.0-0.0-2.0-1.0-0.0-0.0-0.33","null","<p style='font-size: 48px; color: white'>+</p >","","","","","","","","","","","","","","","","","","","","","","","","","","","","","","","","","","","","","","","","","","","","","","","","",""
"","564","color_pract","rdk","103","102412","0.0-0.0-2.0-1.0-0.0-0.0-1.33","d","","false","[""d"",""k""]","k","3000","true","1","100","0","0","0","5.7","1","-1","3","600","600","[""hsl(0, 50%, 50%)"",""hsl(225, 50%, 50%)""]","[""hsl(225, 50%, 50%)"",""hsl(0, 50%, 50%)""]","10.194928520823122","0.8","0","circle","black","3","2","2","16.470588235294116","[20,16,13,9,20,21,26,4,12,27,7,20,19,17,11,21,12,16,22,11,17,16,17,17,17,17,17,17,16,17,17,17,17,17]","34","568","461","false","20","20","black","1","false","1","1","2194","1234","rdk","k","","","","0.8","0.24",""
"","null","","html-keyboard-response","104","102913","0.0-0.0-2.0-1.0-0.0-0.0-2.33","null","<p style='font-size: 60px; color: red'>错误!</p>","","","","","","","","","","","","","","","","","","","","","","","","","","","","","","","","","","","","","","","","","","","","","","","","",""
"","null","fixation","html-keyboard-response","105","103414","0.0-0.0-2.0-1.0-0.0-0.0-0.34","null","<p style='font-size: 48px; color: white'>+</p >","","","","","","","","","","","","","","","","","","","","","","","","","","","","","","","","","","","","","","","","","","","","","","","","",""
"","602","color_pract","rdk","106","104017","0.0-0.0-2.0-1.0-0.0-0.0-1.34","k","","true","[""d"",""k""]","k","3000","true","1","100","0","0","0","5.7","1","-1","3","600","600","[""hsl(0, 50%, 50%)"",""hsl(225, 50%, 50%)""]","[""hsl(225, 50%, 50%)"",""hsl(0, 50%, 50%)""]","10.194928520823122","0.8","0","circle","black","3","2","2","16.52777777777778","[6,17,16,17,16,17,17,17,17,17,17,16,17,17,17,17,17,17,17,17,17,17,17,17,17,16,17,17,17,16,17,17,17,17,16,17]","36","568","461","false","20","20","black","1","false","1","1","2194","1234","rdk","k","","","","0.8","0.24",""
"","null","","html-keyboard-response","107","104519","0.0-0.0-2.0-1.0-0.0-0.0-2.34","null","<p style='font-size: 60px; color: green'>正确!</p>","","","","","","","","","","","","","","","","","","","","","","","","","","","","","","","","","","","","","","","","","","","","","","","","",""
"","null","fixation","html-keyboard-response","108","105020","0.0-0.0-2.0-1.0-0.0-0.0-0.35","null","<p style='font-size: 48px; color: white'>+</p >","","","","","","","","","","","","","","","","","","","","","","","","","","","","","","","","","","","","","","","","","","","","","","","","",""
"","709","color_pract","rdk","109","105731","0.0-0.0-2.0-1.0-0.0-0.0-1.35","k","","false","[""d"",""k""]","d","3000","true","1","100","0","0","0","5.7","1","-1","3","600","600","[""hsl(0, 50%, 50%)"",""hsl(225, 50%, 50%)""]","[""hsl(0, 50%, 50%)"",""hsl(225, 50%, 50%)""]","10.194928520823122","0.8","0","circle","black","3","2","2","16.69047619047619","[14,29,5,16,16,17,17,17,17,17,16,17,17,17,17,17,17,18,16,17,16,17,16,17,17,17,17,17,17,17,16,17,16,17,16,17,16,17,16,17,17,17]","42","568","461","false","20","20","black","1","false","1","1","2194","1234","rdk","d","","","","0.8","0.24",""
"","112","","html-keyboard-response","110","105844","0.0-0.0-2.0-1.0-0.0-0.0-2.35","d","<p style='font-size: 60px; color: red'>错误!</p>","","","","","","","","","","","","","","","","","","","","","","","","","","","","","","","","","","","","","","","","","","","","","","","","",""
"","null","fixation","html-keyboard-response","111","106346","0.0-0.0-2.0-1.0-0.0-0.0-0.36","null","<p style='font-size: 48px; color: white'>+</p >","","","","","","","","","","","","","","","","","","","","","","","","","","","","","","","","","","","","","","","","","","","","","","","","",""
"","650","color_pract","rdk","112","106997","0.0-0.0-2.0-1.0-0.0-0.0-1.36","k","","true","[""d"",""k""]","k","3000","true","1","100","0","0","0","5.7","1","-1","3","600","600","[""hsl(0, 50%, 50%)"",""hsl(225, 50%, 50%)""]","[""hsl(225, 50%, 50%)"",""hsl(0, 50%, 50%)""]","10.194928520823122","0.8","0","circle","black","3","2","2","16.641025641025642","[6,17,16,17,17,17,17,17,17,17,17,17,17,17,17,16,17,17,17,18,16,18,15,17,17,17,17,17,17,17,17,17,17,17,17,17,17,17,17]","39","568","461","false","20","20","black","1","false","1","1","2194","1234","rdk","k","","","","0.8","0.24",""
"","null","","html-keyboard-response","113","107498","0.0-0.0-2.0-1.0-0.0-0.0-2.36","null","<p style='font-size: 60px; color: green'>正确!</p>","","","","","","","","","","","","","","","","","","","","","","","","","","","","","","","","","","","","","","","","","","","","","","","","",""
"","null","fixation","html-keyboard-response","114","107999","0.0-0.0-2.0-1.0-0.0-0.0-0.37","null","<p style='font-size: 48px; color: white'>+</p >","","","","","","","","","","","","","","","","","","","","","","","","","","","","","","","","","","","","","","","","","","","","","","","","",""
"","590","color_pract","rdk","115","108590","0.0-0.0-2.0-1.0-0.0-0.0-1.37","d","","false","[""d"",""k""]","k","3000","true","1","100","0","0","0","5.7","1","-1","3","600","600","[""hsl(0, 50%, 50%)"",""hsl(225, 50%, 50%)""]","[""hsl(225, 50%, 50%)"",""hsl(0, 50%, 50%)""]","10.194928520823122","0.8","0","circle","black","3","2","2","16.444444444444443","[3,19,16,16,17,17,16,16,17,17,17,17,17,16,17,17,17,17,17,17,17,17,17,16,17,17,17,17,17,16,17,17,17,17,17,16]","36","568","461","false","20","20","black","1","false","1","1","2194","1234","rdk","k","","","","0.8","0.24",""
"","null","","html-keyboard-response","116","109091","0.0-0.0-2.0-1.0-0.0-0.0-2.37","null","<p style='font-size: 60px; color: red'>错误!</p>","","","","","","","","","","","","","","","","","","","","","","","","","","","","","","","","","","","","","","","","","","","","","","","","",""
"","null","fixation","html-keyboard-response","117","109592","0.0-0.0-2.0-1.0-0.0-0.0-0.38","null","<p style='font-size: 48px; color: white'>+</p >","","","","","","","","","","","","","","","","","","","","","","","","","","","","","","","","","","","","","","","","","","","","","","","","",""
"","587","color_pract","rdk","118","110179","0.0-0.0-2.0-1.0-0.0-0.0-1.38","k","","false","[""d"",""k""]","d","3000","true","1","100","0","0","0","5.7","1","-1","3","600","600","[""hsl(0, 50%, 50%)"",""hsl(225, 50%, 50%)""]","[""hsl(0, 50%, 50%)"",""hsl(225, 50%, 50%)""]","10.194928520823122","0.8","0","circle","black","3","2","2","16.62857142857143","[9,17,16,17,17,16,17,16,17,17,17,17,17,17,17,17,17,17,17,17,17,17,17,17,17,17,17,16,17,17,17,16,17,17,17]","35","568","461","false","20","20","black","1","false","1","1","2194","1234","rdk","d","","","","0.8","0.24",""
"","null","","html-keyboard-response","119","110683","0.0-0.0-2.0-1.0-0.0-0.0-2.38","null","<p style='font-size: 60px; color: red'>错误!</p>","","","","","","","","","","","","","","","","","","","","","","","","","","","","","","","","","","","","","","","","","","","","","","","","",""
"","null","fixation","html-keyboard-response","120","111185","0.0-0.0-2.0-1.0-0.0-0.0-0.39","null","<p style='font-size: 48px; color: white'>+</p >","","","","","","","","","","","","","","","","","","","","","","","","","","","","","","","","","","","","","","","","","","","","","","","","",""
"","570","color_pract","rdk","121","111757","0.0-0.0-2.0-1.0-0.0-0.0-1.39","k","","false","[""d"",""k""]","d","3000","true","1","100","0","0","0","5.7","1","-1","3","600","600","[""hsl(0, 50%, 50%)"",""hsl(225, 50%, 50%)""]","[""hsl(0, 50%, 50%)"",""hsl(225, 50%, 50%)""]","10.194928520823122","0.8","0","circle","black","3","2","2","16.87878787878788","[13,16,17,16,16,17,17,17,17,17,17,17,17,17,17,17,17,17,17,17,17,17,20,17,12,17,17,17,23,17,11,22,17]","33","568","461","false","20","20","black","1","false","1","1","2194","1234","rdk","d","","","","0.8","0.24",""
"","null","","html-keyboard-response","122","112258","0.0-0.0-2.0-1.0-0.0-0.0-2.39","null","<p style='font-size: 60px; color: red'>错误!</p>","","","","","","","","","","","","","","","","","","","","","","","","","","","","","","","","","","","","","","","","","","","","","","","","",""
"","null","fixation","html-keyboard-response","123","112763","0.0-0.0-2.0-1.0-0.1-0.1-0.40","null","<p style='font-size: 48px; color: white'>+</p >","","","","","","","","","","","","","","","","","","","","","","","","","","","","","","","","","","","","","","","","","","","","","","","","",""
"","746","color_pract","rdk","124","113511","0.0-0.0-2.0-1.0-0.1-0.1-1.40","k","","true","[""d"",""k""]","k","3000","true","1","100","0","0","0","5.7","1","-1","3","600","600","[""hsl(0, 50%, 50%)"",""hsl(225, 50%, 50%)""]","[""hsl(225, 50%, 50%)"",""hsl(0, 50%, 50%)""]","10.194928520823122","0.8","0","circle","black","3","2","2","16.488888888888887","[3,16,16,16,17,17,17,17,17,16,16,17,17,17,17,17,17,17,17,17,17,16,17,17,17,17,17,16,17,17,17,18,17,16,16,23,10,17,17,17,17,18,16,17,17]","45","568","461","false","20","20","black","1","false","1","1","2194","1234","rdk","k","","","","0.8","0.24",""
"","null","","html-keyboard-response","125","114013","0.0-0.0-2.0-1.0-0.1-0.1-2.40","null","<p style='font-size: 60px; color: green'>正确!</p>","","","","","","","","","","","","","","","","","","","","","","","","","","","","","","","","","","","","","","","","","","","","","","","","",""
"","null","fixation","html-keyboard-response","126","114514","0.0-0.0-2.0-1.0-0.1-0.1-0.41","null","<p style='font-size: 48px; color: white'>+</p >","","","","","","","","","","","","","","","","","","","","","","","","","","","","","","","","","","","","","","","","","","","","","","","","",""
"","874","color_pract","rdk","127","115389","0.0-0.0-2.0-1.0-0.1-0.1-1.41","d","","true","[""d"",""k""]","d","3000","true","1","100","0","0","0","5.7","1","-1","3","600","600","[""hsl(0, 50%, 50%)"",""hsl(225, 50%, 50%)""]","[""hsl(0, 50%, 50%)"",""hsl(225, 50%, 50%)""]","10.194928520823122","0.8","0","circle","black","3","2","2","16.41509433962264","[3,14,15,17,16,17,16,17,16,17,17,17,16,17,17,17,17,17,17,17,17,17,16,17,17,16,17,16,17,17,16,17,17,17,17,17,17,17,17,17,16,17,16,17,18,16,16,19,15,16,17,17,17]","53","568","461","false","20","20","black","1","false","1","1","2194","1234","rdk","d","","","","0.8","0.24",""
"","null","","html-keyboard-response","128","115890","0.0-0.0-2.0-1.0-0.1-0.1-2.41","null","<p style='font-size: 60px; color: green'>正确!</p>","","","","","","","","","","","","","","","","","","","","","","","","","","","","","","","","","","","","","","","","","","","","","","","","",""
"","null","fixation","html-keyboard-response","129","116392","0.0-0.0-2.0-1.0-0.1-0.1-0.42","null","<p style='font-size: 48px; color: white'>+</p >","","","","","","","","","","","","","","","","","","","","","","","","","","","","","","","","","","","","","","","","","","","","","","","","",""
"","571","color_pract","rdk","130","116964","0.0-0.0-2.0-1.0-0.1-0.1-1.42","k","","true","[""d"",""k""]","k","3000","true","1","100","0","0","0","5.7","1","-1","3","600","600","[""hsl(0, 50%, 50%)"",""hsl(225, 50%, 50%)""]","[""hsl(225, 50%, 50%)"",""hsl(0, 50%, 50%)""]","10.194928520823122","0.8","0","circle","black","3","2","2","16.38235294117647","[5,18,18,17,14,16,17,17,17,17,16,17,17,17,16,17,17,16,17,17,17,17,17,16,17,17,16,17,16,17,17,17,17,16]","34","568","461","false","20","20","black","1","false","1","1","2194","1234","rdk","k","","","","0.8","0.24",""
"","null","","html-keyboard-response","131","117465","0.0-0.0-2.0-1.0-0.1-0.1-2.42","null","<p style='font-size: 60px; color: green'>正确!</p>","","","","","","","","","","","","","","","","","","","","","","","","","","","","","","","","","","","","","","","","","","","","","","","","",""
"","null","fixation","html-keyboard-response","132","117967","0.0-0.0-2.0-1.0-0.1-0.1-0.43","null","<p style='font-size: 48px; color: white'>+</p >","","","","","","","","","","","","","","","","","","","","","","","","","","","","","","","","","","","","","","","","","","","","","","","","",""
"","533","color_pract","rdk","133","118501","0.0-0.0-2.0-1.0-0.1-0.1-1.43","d","","true","[""d"",""k""]","d","3000","true","1","100","0","0","0","5.7","1","-1","3","600","600","[""hsl(0, 50%, 50%)"",""hsl(225, 50%, 50%)""]","[""hsl(0, 50%, 50%)"",""hsl(225, 50%, 50%)""]","10.194928520823122","0.8","0","circle","black","3","2","2","16.625","[12,17,17,16,17,19,14,17,17,16,17,17,17,17,17,17,16,17,19,15,16,17,17,16,17,17,17,17,17,16,17,17]","32","568","461","false","20","20","black","1","false","1","1","2194","1234","rdk","d","","","","0.8","0.24",""
"","null","","html-keyboard-response","134","119002","0.0-0.0-2.0-1.0-0.1-0.1-2.43","null","<p style='font-size: 60px; color: green'>正确!</p>","","","","","","","","","","","","","","","","","","","","","","","","","","","","","","","","","","","","","","","","","","","","","","","","",""
"","null","fixation","html-keyboard-response","135","119504","0.0-0.0-2.0-1.0-0.1-0.1-0.44","null","<p style='font-size: 48px; color: white'>+</p >","","","","","","","","","","","","","","","","","","","","","","","","","","","","","","","","","","","","","","","","","","","","","","","","",""
"","504","color_pract","rdk","136","120010","0.0-0.0-2.0-1.0-0.1-0.1-1.44","k","","false","[""d"",""k""]","d","3000","true","1","100","0","0","0","5.7","1","-1","3","600","600","[""hsl(0, 50%, 50%)"",""hsl(225, 50%, 50%)""]","[""hsl(0, 50%, 50%)"",""hsl(225, 50%, 50%)""]","10.194928520823122","0.78","0","circle","black","3","2","2","16.4","[7,16,17,17,16,17,17,18,16,17,16,17,17,16,17,17,17,16,17,17,16,16,17,16,17,17,17,17,17,17]","30","568","461","false","20","20","black","1","false","1","1","2194","1234","rdk","d","","","","0.78","0.24",""
"","null","","html-keyboard-response","137","120512","0.0-0.0-2.0-1.0-0.1-0.1-2.44","null","<p style='font-size: 60px; color: red'>错误!</p>","","","","","","","","","","","","","","","","","","","","","","","","","","","","","","","","","","","","","","","","","","","","","","","","",""
"","null","fixation","html-keyboard-response","138","121013","0.0-0.0-2.0-1.0-0.1-0.1-0.45","null","<p style='font-size: 48px; color: white'>+</p >","","","","","","","","","","","","","","","","","","","","","","","","","","","","","","","","","","","","","","","","","","","","","","","","",""
"","604","color_pract","rdk","139","121619","0.0-0.0-2.0-1.0-0.1-0.1-1.45","k","","true","[""d"",""k""]","k","3000","true","1","100","0","0","0","5.7","1","-1","3","600","600","[""hsl(0, 50%, 50%)"",""hsl(225, 50%, 50%)""]","[""hsl(225, 50%, 50%)"",""hsl(0, 50%, 50%)""]","10.194928520823122","0.8","0","circle","black","3","2","2","16.72222222222222","[41,3,9,11,17,17,17,17,17,17,17,17,17,17,17,16,17,16,18,15,17,16,17,17,16,17,17,17,17,17,17,17,16,17,17,17]","36","568","461","false","20","20","black","1","false","1","1","2194","1234","rdk","k","","","","0.8","0.24",""
"","null","","html-keyboard-response","140","122121","0.0-0.0-2.0-1.0-0.1-0.1-2.45","null","<p style='font-size: 60px; color: green'>正确!</p>","","","","","","","","","","","","","","","","","","","","","","","","","","","","","","","","","","","","","","","","","","","","","","","","",""
"","null","fixation","html-keyboard-response","141","122623","0.0-0.0-2.0-1.0-0.1-0.1-0.46","null","<p style='font-size: 48px; color: white'>+</p >","","","","","","","","","","","","","","","","","","","","","","","","","","","","","","","","","","","","","","","","","","","","","","","","",""
"","638","color_pract","rdk","142","123261","0.0-0.0-2.0-1.0-0.1-0.1-1.46","k","","true","[""d"",""k""]","k","3000","true","1","100","0","0","0","5.7","1","-1","3","600","600","[""hsl(0, 50%, 50%)"",""hsl(225, 50%, 50%)""]","[""hsl(225, 50%, 50%)"",""hsl(0, 50%, 50%)""]","10.194928520823122","0.8","0","circle","black","3","2","2","16.526315789473685","[4,17,17,16,17,17,17,17,17,17,17,17,17,17,17,17,17,17,17,16,17,17,18,16,20,12,17,17,17,17,17,16,17,17,17,16,17,18]","38","568","461","false","20","20","black","1","false","1","1","2194","1234","rdk","k","","","","0.8","0.24",""
"","null","","html-keyboard-response","143","123764","0.0-0.0-2.0-1.0-0.1-0.1-2.46","null","<p style='font-size: 60px; color: green'>正确!</p>","","","","","","","","","","","","","","","","","","","","","","","","","","","","","","","","","","","","","","","","","","","","","","","","",""
"","null","fixation","html-keyboard-response","144","124265","0.0-0.0-2.0-1.0-0.1-0.1-0.47","null","<p style='font-size: 48px; color: white'>+</p >","","","","","","","","","","","","","","","","","","","","","","","","","","","","","","","","","","","","","","","","","","","","","","","","",""
"","507","color_pract","rdk","145","124773","0.0-0.0-2.0-1.0-0.1-0.1-1.47","d","","true","[""d"",""k""]","d","3000","true","1","100","0","0","0","5.7","1","-1","3","600","600","[""hsl(0, 50%, 50%)"",""hsl(225, 50%, 50%)""]","[""hsl(0, 50%, 50%)"",""hsl(225, 50%, 50%)""]","10.194928520823122","0.8","0","circle","black","3","2","2","16.633333333333333","[12,17,16,17,17,17,17,17,17,17,17,17,16,16,17,17,16,17,17,17,17,17,17,17,17,16,17,17,17,16]","30","568","461","false","20","20","black","1","false","1","1","2194","1234","rdk","d","","","","0.8","0.24",""
"","null","","html-keyboard-response","146","125275","0.0-0.0-2.0-1.0-0.1-0.1-2.47","null","<p style='font-size: 60px; color: green'>正确!</p>","","","","","","","","","","","","","","","","","","","","","","","","","","","","","","","","","","","","","","","","","","","","","","","","",""
"","null","fixation","html-keyboard-response","147","125777","0.0-0.0-2.0-1.0-0.1-0.1-0.48","null","<p style='font-size: 48px; color: white'>+</p >","","","","","","","","","","","","","","","","","","","","","","","","","","","","","","","","","","","","","","","","","","","","","","","","",""
"","646","color_pract","rdk","148","126424","0.0-0.0-2.0-1.0-0.1-0.1-1.48","d","","true","[""d"",""k""]","d","3000","true","1","100","0","0","0","5.7","1","-1","3","600","600","[""hsl(0, 50%, 50%)"",""hsl(225, 50%, 50%)""]","[""hsl(0, 50%, 50%)"",""hsl(225, 50%, 50%)""]","10.194928520823122","0.8","0","circle","black","3","2","2","16.789473684210527","[15,17,17,18,16,17,17,24,9,17,17,17,17,17,17,17,17,17,17,17,17,17,16,17,17,17,16,17,16,17,16,17,16,17,17,17,17,17]","38","568","461","false","20","20","black","1","false","1","1","2194","1234","rdk","d","","","","0.8","0.24",""
"","null","","html-keyboard-response","149","126926","0.0-0.0-2.0-1.0-0.1-0.1-2.48","null","<p style='font-size: 60px; color: green'>正确!</p>","","","","","","","","","","","","","","","","","","","","","","","","","","","","","","","","","","","","","","","","","","","","","","","","",""
"","null","fixation","html-keyboard-response","150","127428","0.0-0.0-2.0-1.0-0.1-0.1-0.49","null","<p style='font-size: 48px; color: white'>+</p >","","","","","","","","","","","","","","","","","","","","","","","","","","","","","","","","","","","","","","","","","","","","","","","","",""
"","628","color_pract","rdk","151","128058","0.0-0.0-2.0-1.0-0.1-0.1-1.49","d","","true","[""d"",""k""]","d","3000","true","1","100","0","0","0","5.7","1","-1","3","600","600","[""hsl(0, 50%, 50%)"",""hsl(225, 50%, 50%)""]","[""hsl(0, 50%, 50%)"",""hsl(225, 50%, 50%)""]","10.194928520823122","0.78","0","circle","black","3","2","2","16.675675675675677","[12,16,17,17,17,17,16,17,17,17,16,17,17,17,16,16,17,17,17,17,17,17,16,17,17,17,17,17,17,17,17,17,16,17,17,17,17]","37","568","461","false","20","20","black","1","false","1","1","2194","1234","rdk","d","","","","0.78","0.24",""
"","null","","html-keyboard-response","152","128560","0.0-0.0-2.0-1.0-0.1-0.1-2.49","null","<p style='font-size: 60px; color: green'>正确!</p>","","","","","","","","","","","","","","","","","","","","","","","","","","","","","","","","","","","","","","","","","","","","","","","","",""
"","null","fixation","html-keyboard-response","153","129062","0.0-0.0-2.0-1.0-0.1-0.1-0.50","null","<p style='font-size: 48px; color: white'>+</p >","","","","","","","","","","","","","","","","","","","","","","","","","","","","","","","","","","","","","","","","","","","","","","","","",""
"","521","color_pract","rdk","154","129585","0.0-0.0-2.0-1.0-0.1-0.1-1.50","d","","false","[""d"",""k""]","k","3000","true","1","100","0","0","0","5.7","1","-1","3","600","600","[""hsl(0, 50%, 50%)"",""hsl(225, 50%, 50%)""]","[""hsl(225, 50%, 50%)"",""hsl(0, 50%, 50%)""]","10.194928520823122","0.78","0","circle","black","3","2","2","16.612903225806452","[11,17,17,17,15,17,17,18,17,17,17,16,16,17,17,17,17,17,17,17,17,17,17,17,16,17,17,17,16,16,17]","31","568","461","false","20","20","black","1","false","1","1","2194","1234","rdk","k","","","","0.78","0.24",""
"","null","","html-keyboard-response","155","130086","0.0-0.0-2.0-1.0-0.1-0.1-2.50","null","<p style='font-size: 60px; color: red'>错误!</p>","","","","","","","","","","","","","","","","","","","","","","","","","","","","","","","","","","","","","","","","","","","","","","","","",""
"","null","fixation","html-keyboard-response","156","130587","0.0-0.0-2.0-1.0-0.1-0.1-0.51","null","<p style='font-size: 48px; color: white'>+</p >","","","","","","","","","","","","","","","","","","","","","","","","","","","","","","","","","","","","","","","","","","","","","","","","",""
"","569","color_pract","rdk","157","131157","0.0-0.0-2.0-1.0-0.1-0.1-1.51","k","","true","[""d"",""k""]","k","3000","true","1","100","0","0","0","5.7","1","-1","3","600","600","[""hsl(0, 50%, 50%)"",""hsl(225, 50%, 50%)""]","[""hsl(225, 50%, 50%)"",""hsl(0, 50%, 50%)""]","10.194928520823122","0.8","0","circle","black","3","2","2","16.323529411764707","[7,11,17,17,17,16,17,16,17,17,17,17,17,17,17,17,17,16,17,17,17,17,16,17,16,17,15,17,17,17,17,17,17,17]","34","568","461","false","20","20","black","1","false","1","1","2194","1234","rdk","k","","","","0.8","0.24",""
"","null","","html-keyboard-response","158","131660","0.0-0.0-2.0-1.0-0.1-0.1-2.51","null","<p style='font-size: 60px; color: green'>正确!</p>","","","","","","","","","","","","","","","","","","","","","","","","","","","","","","","","","","","","","","","","","","","","","","","","",""
"","null","fixation","html-keyboard-response","159","132162","0.0-0.0-2.0-1.0-0.1-0.1-0.52","null","<p style='font-size: 48px; color: white'>+</p >","","","","","","","","","","","","","","","","","","","","","","","","","","","","","","","","","","","","","","","","","","","","","","","","",""
"","507","color_pract","rdk","160","132670","0.0-0.0-2.0-1.0-0.1-0.1-1.52","k","","true","[""d"",""k""]","k","3000","true","1","100","0","0","0","5.7","1","-1","3","600","600","[""hsl(0, 50%, 50%)"",""hsl(225, 50%, 50%)""]","[""hsl(225, 50%, 50%)"",""hsl(0, 50%, 50%)""]","10.194928520823122","0.8","0","circle","black","3","2","2","16.566666666666666","[10,17,16,17,21,11,17,16,17,16,17,17,17,17,17,17,17,17,17,17,17,17,17,17,17,17,16,17,17,17]","30","568","461","false","20","20","black","1","false","1","1","2194","1234","rdk","k","","","","0.8","0.24",""
"","null","","html-keyboard-response","161","133172","0.0-0.0-2.0-1.0-0.1-0.1-2.52","null","<p style='font-size: 60px; color: green'>正确!</p>","","","","","","","","","","","","","","","","","","","","","","","","","","","","","","","","","","","","","","","","","","","","","","","","",""
"","null","fixation","html-keyboard-response","162","133673","0.0-0.0-2.0-1.0-0.1-0.1-0.53","null","<p style='font-size: 48px; color: white'>+</p >","","","","","","","","","","","","","","","","","","","","","","","","","","","","","","","","","","","","","","","","","","","","","","","","",""
"","553","color_pract","rdk","163","134227","0.0-0.0-2.0-1.0-0.1-0.1-1.53","d","","true","[""d"",""k""]","d","3000","true","1","100","0","0","0","5.7","1","-1","3","600","600","[""hsl(0, 50%, 50%)"",""hsl(225, 50%, 50%)""]","[""hsl(0, 50%, 50%)"",""hsl(225, 50%, 50%)""]","10.194928520823122","0.8","0","circle","black","3","2","2","16.818181818181817","[15,17,17,17,17,17,17,17,17,17,17,17,17,17,17,17,17,17,17,17,16,17,17,19,15,16,17,17,16,17,16,18,16]","33","568","461","false","20","20","black","1","false","1","1","2194","1234","rdk","d","","","","0.8","0.24",""
"","null","","html-keyboard-response","164","134729","0.0-0.0-2.0-1.0-0.1-0.1-2.53","null","<p style='font-size: 60px; color: green'>正确!</p>","","","","","","","","","","","","","","","","","","","","","","","","","","","","","","","","","","","","","","","","","","","","","","","","",""
"","null","fixation","html-keyboard-response","165","135230","0.0-0.0-2.0-1.0-0.1-0.1-0.54","null","<p style='font-size: 48px; color: white'>+</p >","","","","","","","","","","","","","","","","","","","","","","","","","","","","","","","","","","","","","","","","","","","","","","","","",""
"","465","color_pract","rdk","166","135697","0.0-0.0-2.0-1.0-0.1-0.1-1.54","d","","true","[""d"",""k""]","d","3000","true","1","100","0","0","0","5.7","1","-1","3","600","600","[""hsl(0, 50%, 50%)"",""hsl(225, 50%, 50%)""]","[""hsl(0, 50%, 50%)"",""hsl(225, 50%, 50%)""]","10.194928520823122","0.8","0","circle","black","3","2","2","16.428571428571427","[7,16,18,15,17,17,16,17,17,17,16,17,17,18,16,17,17,17,17,17,17,16,17,17,17,17,16,17]","28","568","461","false","20","20","black","1","false","1","1","2194","1234","rdk","d","","","","0.8","0.24",""
"","null","","html-keyboard-response","167","136201","0.0-0.0-2.0-1.0-0.1-0.1-2.54","null","<p style='font-size: 60px; color: green'>正确!</p>","","","","","","","","","","","","","","","","","","","","","","","","","","","","","","","","","","","","","","","","","","","","","","","","",""
"","null","fixation","html-keyboard-response","168","136703","0.0-0.0-2.0-1.0-0.1-0.1-0.55","null","<p style='font-size: 48px; color: white'>+</p >","","","","","","","","","","","","","","","","","","","","","","","","","","","","","","","","","","","","","","","","","","","","","","","","",""
"","743","color_pract","rdk","169","137447","0.0-0.0-2.0-1.0-0.1-0.1-1.55","k","","true","[""d"",""k""]","k","3000","true","1","100","0","0","0","5.7","1","-1","3","600","600","[""hsl(0, 50%, 50%)"",""hsl(225, 50%, 50%)""]","[""hsl(225, 50%, 50%)"",""hsl(0, 50%, 50%)""]","10.194928520823122","0.78","0","circle","black","3","2","2","16.42222222222222","[10,15,18,8,20,19,24,4,20,20,16,11,17,20,18,19,17,11,19,19,17,10,20,21,17,9,17,16,17,17,17,17,17,17,18,16,16,17,17,17,17,17,17,16,17]","45","568","461","false","20","20","black","1","false","1","1","2194","1234","rdk","k","","","","0.78","0.24",""
"","null","","html-keyboard-response","170","137949","0.0-0.0-2.0-1.0-0.1-0.1-2.55","null","<p style='font-size: 60px; color: green'>正确!</p>","","","","","","","","","","","","","","","","","","","","","","","","","","","","","","","","","","","","","","","","","","","","","","","","",""
"","null","fixation","html-keyboard-response","171","138450","0.0-0.0-2.0-1.0-0.1-0.1-0.56","null","<p style='font-size: 48px; color: white'>+</p >","","","","","","","","","","","","","","","","","","","","","","","","","","","","","","","","","","","","","","","","","","","","","","","","",""
"","457","color_pract","rdk","172","138908","0.0-0.0-2.0-1.0-0.1-0.1-1.56","d","","false","[""d"",""k""]","k","3000","true","1","100","0","0","0","5.7","1","-1","3","600","600","[""hsl(0, 50%, 50%)"",""hsl(225, 50%, 50%)""]","[""hsl(225, 50%, 50%)"",""hsl(0, 50%, 50%)""]","10.194928520823122","0.78","0","circle","black","3","2","2","16.285714285714285","[4,16,15,27,23,6,24,7,13,17,16,17,17,17,17,17,17,17,17,17,17,17,17,16,17,17,17,17]","28","568","461","false","20","20","black","1","false","1","1","2194","1234","rdk","k","","","","0.78","0.24",""
"","null","","html-keyboard-response","173","139410","0.0-0.0-2.0-1.0-0.1-0.1-2.56","null","<p style='font-size: 60px; color: red'>错误!</p>","","","","","","","","","","","","","","","","","","","","","","","","","","","","","","","","","","","","","","","","","","","","","","","","",""
"","null","fixation","html-keyboard-response","174","139911","0.0-0.0-2.0-1.0-0.1-0.1-0.57","null","<p style='font-size: 48px; color: white'>+</p >","","","","","","","","","","","","","","","","","","","","","","","","","","","","","","","","","","","","","","","","","","","","","","","","",""
"","581","color_pract","rdk","175","140494","0.0-0.0-2.0-1.0-0.1-0.1-1.57","k","","true","[""d"",""k""]","k","3000","true","1","100","0","0","0","5.7","1","-1","3","600","600","[""hsl(0, 50%, 50%)"",""hsl(225, 50%, 50%)""]","[""hsl(225, 50%, 50%)"",""hsl(0, 50%, 50%)""]","10.194928520823122","0.8","0","circle","black","3","2","2","16.457142857142856","[7,17,18,15,16,17,16,17,17,16,17,17,17,17,17,17,17,16,17,17,17,17,16,17,17,17,17,16,17,17,16,17,17,16,17]","35","568","461","false","20","20","black","1","false","1","1","2194","1234","rdk","k","","","","0.8","0.24",""
"","null","","html-keyboard-response","176","140997","0.0-0.0-2.0-1.0-0.1-0.1-2.57","null","<p style='font-size: 60px; color: green'>正确!</p>","","","","","","","","","","","","","","","","","","","","","","","","","","","","","","","","","","","","","","","","","","","","","","","","",""
"","null","fixation","html-keyboard-response","177","141498","0.0-0.0-2.0-1.0-0.1-0.1-0.58","null","<p style='font-size: 48px; color: white'>+</p >","","","","","","","","","","","","","","","","","","","","","","","","","","","","","","","","","","","","","","","","","","","","","","","","",""
"","529","color_pract","rdk","178","142028","0.0-0.0-2.0-1.0-0.1-0.1-1.58","k","","false","[""d"",""k""]","d","3000","true","1","100","0","0","0","5.7","1","-1","3","600","600","[""hsl(0, 50%, 50%)"",""hsl(225, 50%, 50%)""]","[""hsl(0, 50%, 50%)"",""hsl(225, 50%, 50%)""]","10.194928520823122","0.8","0","circle","black","3","2","2","16.4375","[4,16,16,17,17,17,16,17,17,17,17,17,17,17,17,17,16,17,17,17,17,17,17,17,17,17,17,17,17,17,16,17]","32","568","461","false","20","20","black","1","false","1","1","2194","1234","rdk","d","","","","0.8","0.24",""
"","null","","html-keyboard-response","179","142529","0.0-0.0-2.0-1.0-0.1-0.1-2.58","null","<p style='font-size: 60px; color: red'>错误!</p>","","","","","","","","","","","","","","","","","","","","","","","","","","","","","","","","","","","","","","","","","","","","","","","","",""
"","null","fixation","html-keyboard-response","180","143031","0.0-0.0-2.0-1.0-0.1-0.1-0.59","null","<p style='font-size: 48px; color: white'>+</p >","","","","","","","","","","","","","","","","","","","","","","","","","","","","","","","","","","","","","","","","","","","","","","","","",""
"","739","color_pract","rdk","181","143771","0.0-0.0-2.0-1.0-0.1-0.1-1.59","k","","false","[""d"",""k""]","d","3000","true","1","100","0","0","0","5.7","1","-1","3","600","600","[""hsl(0, 50%, 50%)"",""hsl(225, 50%, 50%)""]","[""hsl(0, 50%, 50%)"",""hsl(225, 50%, 50%)""]","10.194928520823122","0.8","0","circle","black","3","2","2","16.533333333333335","[3,17,16,16,17,17,17,17,17,17,17,16,16,16,17,17,17,17,17,17,17,17,17,16,17,17,17,17,17,17,23,11,16,17,17,17,17,17,17,17,17,17,17,17,17]","45","568","461","false","20","20","black","1","false","1","1","2194","1234","rdk","d","","","","0.8","0.24",""
"","null","","html-keyboard-response","182","144274","0.0-0.0-2.0-1.0-0.1-0.1-2.59","null","<p style='font-size: 60px; color: red'>错误!</p>","","","","","","","","","","","","","","","","","","","","","","","","","","","","","","","","","","","","","","","","","","","","","","","","",""
"","null","fixation","html-keyboard-response","183","144775","0.0-0.0-2.0-1.0-0.1-0.1-0.60","null","<p style='font-size: 48px; color: white'>+</p >","","","","","","","","","","","","","","","","","","","","","","","","","","","","","","","","","","","","","","","","","","","","","","","","",""
"","694","color_pract","rdk","184","145471","0.0-0.0-2.0-1.0-0.1-0.1-1.60","k","","true","[""d"",""k""]","k","3000","true","1","100","0","0","0","5.7","1","-1","3","600","600","[""hsl(0, 50%, 50%)"",""hsl(225, 50%, 50%)""]","[""hsl(225, 50%, 50%)"",""hsl(0, 50%, 50%)""]","10.194928520823122","0.8","0","circle","black","3","2","2","16.595238095238095","[8,17,17,14,17,17,17,17,16,17,17,17,16,17,17,16,17,17,17,17,17,17,17,17,16,17,17,17,17,16,17,17,17,17,17,17,17,17,17,17,17,17]","42","568","461","false","20","20","black","1","false","1","1","2194","1234","rdk","k","","","","0.8","0.24",""
"","null","","html-keyboard-response","185","145973","0.0-0.0-2.0-1.0-0.1-0.1-2.60","null","<p style='font-size: 60px; color: green'>正确!</p>","","","","","","","","","","","","","","","","","","","","","","","","","","","","","","","","","","","","","","","","","","","","","","","","",""
"","null","fixation","html-keyboard-response","186","146475","0.0-0.0-2.0-1.0-0.1-0.1-0.61","null","<p style='font-size: 48px; color: white'>+</p >","","","","","","","","","","","","","","","","","","","","","","","","","","","","","","","","","","","","","","","","","","","","","","","","",""
"","551","color_pract","rdk","187","147028","0.0-0.0-2.0-1.0-0.1-0.1-1.61","d","","false","[""d"",""k""]","k","3000","true","1","100","0","0","0","5.7","1","-1","3","600","600","[""hsl(0, 50%, 50%)"",""hsl(225, 50%, 50%)""]","[""hsl(225, 50%, 50%)"",""hsl(0, 50%, 50%)""]","10.194928520823122","0.8","0","circle","black","3","2","2","16.484848484848484","[12,9,17,16,19,14,16,17,17,16,17,21,19,14,13,23,17,14,14,32,5,12,23,16,14,14,22,17,14,14,22,17,17]","33","568","461","false","20","20","black","1","false","1","1","2194","1234","rdk","k","","","","0.8","0.24",""
"","null","","html-keyboard-response","188","147530","0.0-0.0-2.0-1.0-0.1-0.1-2.61","null","<p style='font-size: 60px; color: red'>错误!</p>","","","","","","","","","","","","","","","","","","","","","","","","","","","","","","","","","","","","","","","","","","","","","","","","",""
"","null","fixation","html-keyboard-response","189","148031","0.0-0.0-2.0-1.0-0.1-0.1-0.62","null","<p style='font-size: 48px; color: white'>+</p >","","","","","","","","","","","","","","","","","","","","","","","","","","","","","","","","","","","","","","","","","","","","","","","","",""
"","657","color_pract","rdk","190","148688","0.0-0.0-2.0-1.0-0.1-0.1-1.62","k","","false","[""d"",""k""]","d","3000","true","1","100","0","0","0","5.7","1","-1","3","600","600","[""hsl(0, 50%, 50%)"",""hsl(225, 50%, 50%)""]","[""hsl(0, 50%, 50%)"",""hsl(225, 50%, 50%)""]","10.194928520823122","0.8","0","circle","black","3","2","2","16.5","[2,16,17,17,17,17,17,17,17,17,18,16,17,17,16,17,17,17,17,17,17,17,17,17,17,17,16,16,17,17,18,22,10,17,17,17,17,17,17,17]","40","568","461","false","20","20","black","1","false","1","1","2194","1234","rdk","d","","","","0.8","0.24",""
"","null","","html-keyboard-response","191","149201","0.0-0.0-2.0-1.0-0.1-0.1-2.62","null","<p style='font-size: 60px; color: red'>错误!</p>","","","","","","","","","","","","","","","","","","","","","","","","","","","","","","","","","","","","","","","","","","","","","","","","",""
"","null","fixation","html-keyboard-response","192","149702","0.0-0.0-2.0-1.0-0.1-0.1-0.63","null","<p style='font-size: 48px; color: white'>+</p >","","","","","","","","","","","","","","","","","","","","","","","","","","","","","","","","","","","","","","","","","","","","","","","","",""
"","740","color_pract","rdk","193","150442","0.0-0.0-2.0-1.0-0.1-0.1-1.63","d","","true","[""d"",""k""]","d","3000","true","1","100","0","0","0","5.7","1","-1","3","600","600","[""hsl(0, 50%, 50%)"",""hsl(225, 50%, 50%)""]","[""hsl(0, 50%, 50%)"",""hsl(225, 50%, 50%)""]","10.194928520823122","0.8","0","circle","black","3","2","2","16.636363636363637","[13,17,16,17,16,17,16,17,17,16,17,16,17,17,17,16,17,17,17,16,17,17,19,16,16,17,17,16,17,17,17,17,16,17,17,17,16,17,16,18,16,17,17,16]","44","568","461","false","20","20","black","1","false","1","1","2194","1234","rdk","d","","","","0.8","0.24",""
"","null","","html-keyboard-response","194","150944","0.0-0.0-2.0-1.0-0.1-0.1-2.63","null","<p style='font-size: 60px; color: green'>正确!</p>","","","","","","","","","","","","","","","","","","","","","","","","","","","","","","","","","","","","","","","","","","","","","","","","",""
"","null","fixation","html-keyboard-response","195","151445","0.0-0.0-2.0-1.0-0.1-0.1-0.64","null","<p style='font-size: 48px; color: white'>+</p >","","","","","","","","","","","","","","","","","","","","","","","","","","","","","","","","","","","","","","","","","","","","","","","","",""
"","672","color_pract","rdk","196","152118","0.0-0.0-2.0-1.0-0.1-0.1-1.64","k","","true","[""d"",""k""]","k","3000","true","1","100","0","0","0","5.7","1","-1","3","600","600","[""hsl(0, 50%, 50%)"",""hsl(225, 50%, 50%)""]","[""hsl(225, 50%, 50%)"",""hsl(0, 50%, 50%)""]","10.194928520823122","0.8","0","circle","black","3","2","2","16.35","[6,27,16,11,8,15,17,17,17,17,16,17,17,18,23,17,10,20,20,17,10,20,25,4,21,19,19,9,20,20,17,10,21,18,17,11,23,14,17,13]","40","568","461","false","20","20","black","1","false","1","1","2194","1234","rdk","k","","","","0.8","0.24",""
"","null","","html-keyboard-response","197","152620","0.0-0.0-2.0-1.0-0.1-0.1-2.64","null","<p style='font-size: 60px; color: green'>正确!</p>","","","","","","","","","","","","","","","","","","","","","","","","","","","","","","","","","","","","","","","","","","","","","","","","",""
"","null","fixation","html-keyboard-response","198","153122","0.0-0.0-2.0-1.0-0.1-0.1-0.65","null","<p style='font-size: 48px; color: white'>+</p >","","","","","","","","","","","","","","","","","","","","","","","","","","","","","","","","","","","","","","","","","","","","","","","","",""
"","637","color_pract","rdk","199","153759","0.0-0.0-2.0-1.0-0.1-0.1-1.65","d","","false","[""d"",""k""]","k","3000","true","1","100","0","0","0","5.7","1","-1","3","600","600","[""hsl(0, 50%, 50%)"",""hsl(225, 50%, 50%)""]","[""hsl(225, 50%, 50%)"",""hsl(0, 50%, 50%)""]","10.194928520823122","0.8","0","circle","black","3","2","2","16.657894736842106","[8,17,17,17,17,17,17,18,17,16,17,16,17,16,17,17,17,17,17,17,17,17,17,18,16,16,17,17,17,17,17,17,16,17,17,17,17,17]","38","568","461","false","20","20","black","1","false","1","1","2194","1234","rdk","k","","","","0.8","0.24",""
"","null","","html-keyboard-response","200","154262","0.0-0.0-2.0-1.0-0.1-0.1-2.65","null","<p style='font-size: 60px; color: red'>错误!</p>","","","","","","","","","","","","","","","","","","","","","","","","","","","","","","","","","","","","","","","","","","","","","","","","",""
"","null","fixation","html-keyboard-response","201","154764","0.0-0.0-2.0-1.0-0.1-0.1-0.66","null","<p style='font-size: 48px; color: white'>+</p >","","","","","","","","","","","","","","","","","","","","","","","","","","","","","","","","","","","","","","","","","","","","","","","","",""
"","779","color_pract","rdk","202","155546","0.0-0.0-2.0-1.0-0.1-0.1-1.66","d","","true","[""d"",""k""]","d","3000","true","1","100","0","0","0","5.7","1","-1","3","600","600","[""hsl(0, 50%, 50%)"",""hsl(225, 50%, 50%)""]","[""hsl(0, 50%, 50%)"",""hsl(225, 50%, 50%)""]","10.194928520823122","0.8","0","circle","black","3","2","2","16.717391304347824","[13,17,17,17,15,17,17,17,17,17,18,15,17,17,17,17,17,16,17,17,17,16,17,17,16,17,16,17,17,16,17,17,17,20,15,16,17,17,17,17,17,17,17,16,17,17]","46","568","461","false","20","20","black","1","false","1","1","2194","1234","rdk","d","","","","0.8","0.24",""
"","null","","html-keyboard-response","203","156047","0.0-0.0-2.0-1.0-0.1-0.1-2.66","null","<p style='font-size: 60px; color: green'>正确!</p>","","","","","","","","","","","","","","","","","","","","","","","","","","","","","","","","","","","","","","","","","","","","","","","","",""
"","null","fixation","html-keyboard-response","204","156549","0.0-0.0-2.0-1.0-0.1-0.1-0.67","null","<p style='font-size: 48px; color: white'>+</p >","","","","","","","","","","","","","","","","","","","","","","","","","","","","","","","","","","","","","","","","","","","","","","","","",""
"","675","color_pract","rdk","205","157224","0.0-0.0-2.0-1.0-0.1-0.1-1.67","k","","false","[""d"",""k""]","d","3000","true","1","100","0","0","0","5.7","1","-1","3","600","600","[""hsl(0, 50%, 50%)"",""hsl(225, 50%, 50%)""]","[""hsl(0, 50%, 50%)"",""hsl(225, 50%, 50%)""]","10.194928520823122","0.8","0","circle","black","3","2","2","16.675","[12,17,16,17,17,17,16,17,17,17,15,17,17,17,17,16,17,17,17,17,16,17,17,17,17,17,16,17,17,17,17,17,17,17,17,17,17,17,17,16]","40","568","461","false","20","20","black","1","false","1","1","2194","1234","rdk","d","","","","0.8","0.24",""
"","147","","html-keyboard-response","206","157373","0.0-0.0-2.0-1.0-0.1-0.1-2.67","d","<p style='font-size: 60px; color: red'>错误!</p>","","","","","","","","","","","","","","","","","","","","","","","","","","","","","","","","","","","","","","","","","","","","","","","","",""
"","null","fixation","html-keyboard-response","207","157875","0.0-0.0-2.0-1.0-0.1-0.1-0.68","null","<p style='font-size: 48px; color: white'>+</p >","","","","","","","","","","","","","","","","","","","","","","","","","","","","","","","","","","","","","","","","","","","","","","","","",""
"","776","color_pract","rdk","208","158653","0.0-0.0-2.0-1.0-0.1-0.1-1.68","k","","true","[""d"",""k""]","k","3000","true","1","100","0","0","0","5.7","1","-1","3","600","600","[""hsl(0, 50%, 50%)"",""hsl(225, 50%, 50%)""]","[""hsl(225, 50%, 50%)"",""hsl(0, 50%, 50%)""]","10.194928520823122","0.8","0","circle","black","3","2","2","16.382978723404257","[5,14,15,15,17,18,15,17,16,17,17,16,17,17,17,16,17,16,17,16,17,17,17,17,17,17,17,17,16,17,16,17,17,17,17,17,17,17,17,16,17,17,17,17,17,17,16]","47","568","461","false","20","20","black","1","false","1","1","2194","1234","rdk","k","","","","0.8","0.24",""
"","null","","html-keyboard-response","209","159154","0.0-0.0-2.0-1.0-0.1-0.1-2.68","null","<p style='font-size: 60px; color: green'>正确!</p>","","","","","","","","","","","","","","","","","","","","","","","","","","","","","","","","","","","","","","","","","","","","","","","","",""
"","null","fixation","html-keyboard-response","210","159655","0.0-0.0-2.0-1.0-0.1-0.1-0.69","null","<p style='font-size: 48px; color: white'>+</p >","","","","","","","","","","","","","","","","","","","","","","","","","","","","","","","","","","","","","","","","","","","","","","","","",""
"","576","color_pract","rdk","211","160232","0.0-0.0-2.0-1.0-0.1-0.1-1.69","d","","true","[""d"",""k""]","d","3000","true","1","100","0","0","0","5.7","1","-1","3","600","600","[""hsl(0, 50%, 50%)"",""hsl(225, 50%, 50%)""]","[""hsl(0, 50%, 50%)"",""hsl(225, 50%, 50%)""]","10.194928520823122","0.8","0","circle","black","3","2","2","16.485714285714284","[5,16,17,17,24,9,16,17,17,17,17,17,17,17,17,17,17,17,16,17,17,16,17,17,17,17,17,17,17,17,17,17,17,16,17]","35","568","461","false","20","20","black","1","false","1","1","2194","1234","rdk","d","","","","0.8","0.24",""
"","null","","html-keyboard-response","212","160733","0.0-0.0-2.0-1.0-0.1-0.1-2.69","null","<p style='font-size: 60px; color: green'>正确!</p>","","","","","","","","","","","","","","","","","","","","","","","","","","","","","","","","","","","","","","","","","","","","","","","","",""
"","null","fixation","html-keyboard-response","213","161235","0.0-0.0-2.0-1.0-0.1-0.1-0.70","null","<p style='font-size: 48px; color: white'>+</p >","","","","","","","","","","","","","","","","","","","","","","","","","","","","","","","","","","","","","","","","","","","","","","","","",""
"","537","color_pract","rdk","214","161774","0.0-0.0-2.0-1.0-0.1-0.1-1.70","k","","true","[""d"",""k""]","k","3000","true","1","100","0","0","0","5.7","1","-1","3","600","600","[""hsl(0, 50%, 50%)"",""hsl(225, 50%, 50%)""]","[""hsl(225, 50%, 50%)"",""hsl(0, 50%, 50%)""]","10.194928520823122","0.8","0","circle","black","3","2","2","16.4375","[7,16,16,16,17,17,17,17,17,16,17,17,17,17,17,17,17,17,16,17,16,17,16,17,17,17,16,17,17,17,17,17]","32","568","461","false","20","20","black","1","false","1","1","2194","1234","rdk","k","","","","0.8","0.24",""
"","null","","html-keyboard-response","215","162275","0.0-0.0-2.0-1.0-0.1-0.1-2.70","null","<p style='font-size: 60px; color: green'>正确!</p>","","","","","","","","","","","","","","","","","","","","","","","","","","","","","","","","","","","","","","","","","","","","","","","","",""
"","null","fixation","html-keyboard-response","216","162777","0.0-0.0-2.0-1.0-0.1-0.1-0.71","null","<p style='font-size: 48px; color: white'>+</p >","","","","","","","","","","","","","","","","","","","","","","","","","","","","","","","","","","","","","","","","","","","","","","","","",""
"","483","color_pract","rdk","217","163262","0.0-0.0-2.0-1.0-0.1-0.1-1.71","d","","true","[""d"",""k""]","d","3000","true","1","100","0","0","0","5.7","1","-1","3","600","600","[""hsl(0, 50%, 50%)"",""hsl(225, 50%, 50%)""]","[""hsl(0, 50%, 50%)"",""hsl(225, 50%, 50%)""]","10.194928520823122","0.8","0","circle","black","3","2","2","16.586206896551722","[12,17,17,16,17,16,17,17,17,17,16,17,17,17,17,17,16,17,16,17,17,17,17,17,17,19,19,11,17]","29","568","461","false","20","20","black","1","false","1","1","2194","1234","rdk","d","","","","0.8","0.24",""
"","null","","html-keyboard-response","218","163764","0.0-0.0-2.0-1.0-0.1-0.1-2.71","null","<p style='font-size: 60px; color: green'>正确!</p>","","","","","","","","","","","","","","","","","","","","","","","","","","","","","","","","","","","","","","","","","","","","","","","","",""
"","null","fixation","html-keyboard-response","219","164269","0.0-0.0-2.0-1.0-0.1-0.1-0.72","null","<p style='font-size: 48px; color: white'>+</p >","","","","","","","","","","","","","","","","","","","","","","","","","","","","","","","","","","","","","","","","","","","","","","","","",""
"","701","color_pract","rdk","220","164971","0.0-0.0-2.0-1.0-0.1-0.1-1.72","d","","false","[""d"",""k""]","k","3000","true","1","100","0","0","0","5.7","1","-1","3","600","600","[""hsl(0, 50%, 50%)"",""hsl(225, 50%, 50%)""]","[""hsl(225, 50%, 50%)"",""hsl(0, 50%, 50%)""]","10.194928520823122","0.78","0","circle","black","3","2","2","16.5","[5,20,21,17,9,13,17,17,17,17,17,17,17,16,17,16,17,17,17,17,17,17,17,17,16,16,17,17,16,17,17,17,17,17,17,17,17,17,17,17,17,18]","42","568","461","false","20","20","black","1","false","1","1","2194","1234","rdk","k","","","","0.78","0.24",""
"","null","","html-keyboard-response","221","165474","0.0-0.0-2.0-1.0-0.1-0.1-2.72","null","<p style='font-size: 60px; color: red'>错误!</p>","","","","","","","","","","","","","","","","","","","","","","","","","","","","","","","","","","","","","","","","","","","","","","","","",""
"","null","fixation","html-keyboard-response","222","165975","0.0-0.0-2.0-1.0-0.1-0.1-0.73","null","<p style='font-size: 48px; color: white'>+</p >","","","","","","","","","","","","","","","","","","","","","","","","","","","","","","","","","","","","","","","","","","","","","","","","",""
"","702","color_pract","rdk","223","166679","0.0-0.0-2.0-1.0-0.1-0.1-1.73","d","","true","[""d"",""k""]","d","3000","true","1","100","0","0","0","5.7","1","-1","3","600","600","[""hsl(0, 50%, 50%)"",""hsl(225, 50%, 50%)""]","[""hsl(0, 50%, 50%)"",""hsl(225, 50%, 50%)""]","10.194928520823122","0.8","0","circle","black","3","2","2","16.61904761904762","[13,16,17,16,17,17,17,17,16,17,16,17,17,16,17,16,16,17,17,17,16,17,17,17,17,17,17,16,17,16,17,17,17,17,16,17,17,16,17,17,17,17]","42","568","461","false","20","20","black","1","false","1","1","2194","1234","rdk","d","","","","0.8","0.24",""
"","null","","html-keyboard-response","224","167182","0.0-0.0-2.0-1.0-0.1-0.1-2.73","null","<p style='font-size: 60px; color: green'>正确!</p>","","","","","","","","","","","","","","","","","","","","","","","","","","","","","","","","","","","","","","","","","","","","","","","","",""
"","null","fixation","html-keyboard-response","225","167683","0.0-0.0-2.0-1.0-0.1-0.1-0.74","null","<p style='font-size: 48px; color: white'>+</p >","","","","","","","","","","","","","","","","","","","","","","","","","","","","","","","","","","","","","","","","","","","","","","","","",""
"","648","color_pract","rdk","226","168333","0.0-0.0-2.0-1.0-0.1-0.1-1.74","k","","true","[""d"",""k""]","k","3000","true","1","100","0","0","0","5.7","1","-1","3","600","600","[""hsl(0, 50%, 50%)"",""hsl(225, 50%, 50%)""]","[""hsl(225, 50%, 50%)"",""hsl(0, 50%, 50%)""]","10.194928520823122","0.8","0","circle","black","3","2","2","16.512820512820515","[6,15,18,15,17,17,17,17,17,17,17,17,17,17,17,17,17,17,16,17,17,16,17,16,17,17,17,17,16,17,17,16,17,17,17,16,18,17,17]","39","568","461","false","20","20","black","1","false","1","1","2194","1234","rdk","k","","","","0.8","0.24",""
"","null","","html-keyboard-response","227","168835","0.0-0.0-2.0-1.0-0.1-0.1-2.74","null","<p style='font-size: 60px; color: green'>正确!</p>","","","","","","","","","","","","","","","","","","","","","","","","","","","","","","","","","","","","","","","","","","","","","","","","",""
"","null","fixation","html-keyboard-response","228","169337","0.0-0.0-2.0-1.0-0.1-0.1-0.75","null","<p style='font-size: 48px; color: white'>+</p >","","","","","","","","","","","","","","","","","","","","","","","","","","","","","","","","","","","","","","","","","","","","","","","","",""
"","637","color_pract","rdk","229","169975","0.0-0.0-2.0-1.0-0.1-0.1-1.75","d","","true","[""d"",""k""]","d","3000","true","1","100","0","0","0","5.7","1","-1","3","600","600","[""hsl(0, 50%, 50%)"",""hsl(225, 50%, 50%)""]","[""hsl(0, 50%, 50%)"",""hsl(225, 50%, 50%)""]","10.194928520823122","0.8","0","circle","black","3","2","2","16.41025641025641","[3,15,24,13,12,17,16,17,17,16,18,17,17,17,17,17,17,17,17,17,17,16,17,17,17,17,17,17,18,17,17,17,16,17,16,17,17,15,17]","39","568","461","false","20","20","black","1","false","1","1","2194","1234","rdk","d","","","","0.8","0.24",""
"","null","","html-keyboard-response","230","170478","0.0-0.0-2.0-1.0-0.1-0.1-2.75","null","<p style='font-size: 60px; color: green'>正确!</p>","","","","","","","","","","","","","","","","","","","","","","","","","","","","","","","","","","","","","","","","","","","","","","","","",""
"","null","fixation","html-keyboard-response","231","170980","0.0-0.0-2.0-1.0-0.1-0.1-0.76","null","<p style='font-size: 48px; color: white'>+</p >","","","","","","","","","","","","","","","","","","","","","","","","","","","","","","","","","","","","","","","","","","","","","","","","",""
"","589","color_pract","rdk","232","171570","0.0-0.0-2.0-1.0-0.1-0.1-1.76","d","","true","[""d"",""k""]","d","3000","true","1","100","0","0","0","5.7","1","-1","3","600","600","[""hsl(0, 50%, 50%)"",""hsl(225, 50%, 50%)""]","[""hsl(0, 50%, 50%)"",""hsl(225, 50%, 50%)""]","10.194928520823122","0.8","0","circle","black","3","2","2","16.571428571428573","[7,17,16,17,16,17,17,17,17,17,17,17,17,17,17,17,17,17,17,17,17,17,17,17,17,16,17,17,17,16,17,16,17,17,17]","35","568","461","false","20","20","black","1","false","1","1","2194","1234","rdk","d","","","","0.8","0.24",""
"","null","","html-keyboard-response","233","172072","0.0-0.0-2.0-1.0-0.1-0.1-2.76","null","<p style='font-size: 60px; color: green'>正确!</p>","","","","","","","","","","","","","","","","","","","","","","","","","","","","","","","","","","","","","","","","","","","","","","","","",""
"","null","fixation","html-keyboard-response","234","172573","0.0-0.0-2.0-1.0-0.1-0.1-0.77","null","<p style='font-size: 48px; color: white'>+</p >","","","","","","","","","","","","","","","","","","","","","","","","","","","","","","","","","","","","","","","","","","","","","","","","",""
"","800","color_pract","rdk","235","173373","0.0-0.0-2.0-1.0-0.1-0.1-1.77","k","","true","[""d"",""k""]","k","3000","true","1","100","0","0","0","5.7","1","-1","3","600","600","[""hsl(0, 50%, 50%)"",""hsl(225, 50%, 50%)""]","[""hsl(225, 50%, 50%)"",""hsl(0, 50%, 50%)""]","10.194928520823122","0.78","0","circle","black","3","2","2","16.8125","[15,16,20,14,16,17,17,17,17,17,17,17,17,17,17,17,17,17,17,16,17,17,17,16,17,17,17,17,17,17,17,17,17,17,17,17,17,16,17,17,16,16,17,17,17,17,17,17]","48","568","461","false","20","20","black","1","false","1","1","2194","1234","rdk","k","","","","0.78","0.24",""
"","null","","html-keyboard-response","236","173876","0.0-0.0-2.0-1.0-0.1-0.1-2.77","null","<p style='font-size: 60px; color: green'>正确!</p>","","","","","","","","","","","","","","","","","","","","","","","","","","","","","","","","","","","","","","","","","","","","","","","","",""
"","null","fixation","html-keyboard-response","237","174377","0.0-0.0-2.0-1.0-0.1-0.1-0.78","null","<p style='font-size: 48px; color: white'>+</p >","","","","","","","","","","","","","","","","","","","","","","","","","","","","","","","","","","","","","","","","","","","","","","","","",""
"","522","color_pract","rdk","238","174901","0.0-0.0-2.0-1.0-0.1-0.1-1.78","d","","false","[""d"",""k""]","k","3000","true","1","100","0","0","0","5.7","1","-1","3","600","600","[""hsl(0, 50%, 50%)"",""hsl(225, 50%, 50%)""]","[""hsl(225, 50%, 50%)"",""hsl(0, 50%, 50%)""]","10.194928520823122","0.78","0","circle","black","3","2","2","16.516129032258064","[8,16,17,16,17,16,17,17,17,17,17,17,17,16,20,14,16,17,17,16,17,17,17,17,17,17,17,17,17,17,17]","31","568","461","false","20","20","black","1","false","1","1","2194","1234","rdk","k","","","","0.78","0.24",""
"","null","","html-keyboard-response","239","175403","0.0-0.0-2.0-1.0-0.1-0.1-2.78","null","<p style='font-size: 60px; color: red'>错误!</p>","","","","","","","","","","","","","","","","","","","","","","","","","","","","","","","","","","","","","","","","","","","","","","","","",""
"","null","fixation","html-keyboard-response","240","175905","0.0-0.0-2.0-1.0-0.1-0.1-0.79","null","<p style='font-size: 48px; color: white'>+</p >","","","","","","","","","","","","","","","","","","","","","","","","","","","","","","","","","","","","","","","","","","","","","","","","",""
"","606","color_pract","rdk","241","176512","0.0-0.0-2.0-1.0-0.1-0.1-1.79","d","","true","[""d"",""k""]","d","3000","true","1","100","0","0","0","5.7","1","-1","3","600","600","[""hsl(0, 50%, 50%)"",""hsl(225, 50%, 50%)""]","[""hsl(0, 50%, 50%)"",""hsl(225, 50%, 50%)""]","10.194928520823122","0.8","0","circle","black","3","2","2","16.666666666666668","[13,17,17,16,16,17,16,17,17,17,17,17,17,17,17,17,17,16,17,17,16,17,16,17,16,17,17,16,17,17,17,17,17,17,17,17]","36","568","461","false","20","20","black","1","false","1","1","2194","1234","rdk","d","","","","0.8","0.24",""
"","null","","html-keyboard-response","242","177014","0.0-0.0-2.0-1.0-0.1-0.1-2.79","null","<p style='font-size: 60px; color: green'>正确!</p>","","","","","","","","","","","","","","","","","","","","","","","","","","","","","","","","","","","","","","","","","","","","","","","","",""
"","null","","html-keyboard-response","243","179018","0.0-0.0-2.0-1.0-1.0","null","<p style='font-size: 35px; color: white'>您的正确率为： 66% 。平均反应时为：613毫秒。</p>","","","","","","","","","","","","","","","","","","","","","","","","","","","","","","","","","","","","","","","","","","","","","","","","",""
"","null","fixation","html-keyboard-response","244","179521","0.0-0.0-2.0-1.1-0.2-0.2-0.80","null","<p style='font-size: 48px; color: white'>+</p >","","","","","","","","","","","","","","","","","","","","","","","","","","","","","","","","","","","","","","","","","","","","","","","","",""
"","673","color_pract","rdk","245","180195","0.0-0.0-2.0-1.1-0.2-0.2-1.80","d","","true","[""d"",""k""]","d","3000","true","1","100","0","0","0","5.7","1","-1","3","600","600","[""hsl(0, 50%, 50%)"",""hsl(225, 50%, 50%)""]","[""hsl(0, 50%, 50%)"",""hsl(225, 50%, 50%)""]","10.194928520823122","0.8","0","circle","black","3","2","2","16.7","[12,17,16,16,17,21,12,17,17,17,17,16,17,17,17,16,17,17,18,16,17,17,17,17,17,17,17,17,17,17,17,17,16,17,17,17,16,17,17,17]","40","568","461","false","20","20","black","1","false","1","1","2194","1234","rdk","d","","","","0.8","0.24",""
"","null","","html-keyboard-response","246","180697","0.0-0.0-2.0-1.1-0.2-0.2-2.80","null","<p style='font-size: 60px; color: green'>正确!</p>","","","","","","","","","","","","","","","","","","","","","","","","","","","","","","","","","","","","","","","","","","","","","","","","",""
"","null","fixation","html-keyboard-response","247","181198","0.0-0.0-2.0-1.1-0.2-0.2-0.81","null","<p style='font-size: 48px; color: white'>+</p >","","","","","","","","","","","","","","","","","","","","","","","","","","","","","","","","","","","","","","","","","","","","","","","","",""
"","581","color_pract","rdk","248","181781","0.0-0.0-2.0-1.1-0.2-0.2-1.81","k","","true","[""d"",""k""]","k","3000","true","1","100","0","0","0","5.7","1","-1","3","600","600","[""hsl(0, 50%, 50%)"",""hsl(225, 50%, 50%)""]","[""hsl(225, 50%, 50%)"",""hsl(0, 50%, 50%)""]","10.194928520823122","0.78","0","circle","black","3","2","2","16.2","[2,13,16,17,17,17,16,17,18,16,17,16,17,17,17,16,17,21,22,6,17,17,17,17,17,17,17,17,17,16,17,18,15,16,17]","35","568","461","false","20","20","black","1","false","1","1","2194","1234","rdk","k","","","","0.78","0.24",""
"","null","","html-keyboard-response","249","182283","0.0-0.0-2.0-1.1-0.2-0.2-2.81","null","<p style='font-size: 60px; color: green'>正确!</p>","","","","","","","","","","","","","","","","","","","","","","","","","","","","","","","","","","","","","","","","","","","","","","","","",""
"","null","fixation","html-keyboard-response","250","182786","0.0-0.0-2.0-1.1-0.2-0.2-0.82","null","<p style='font-size: 48px; color: white'>+</p >","","","","","","","","","","","","","","","","","","","","","","","","","","","","","","","","","","","","","","","","","","","","","","","","",""
"","713","color_pract","rdk","251","183501","0.0-0.0-2.0-1.1-0.2-0.2-1.82","d","","true","[""d"",""k""]","d","3000","true","1","100","0","0","0","5.7","1","-1","3","600","600","[""hsl(0, 50%, 50%)"",""hsl(225, 50%, 50%)""]","[""hsl(0, 50%, 50%)"",""hsl(225, 50%, 50%)""]","10.194928520823122","0.78","0","circle","black","3","2","2","16.697674418604652","[13,16,15,17,22,10,17,17,17,17,17,17,17,17,17,17,17,17,17,17,17,16,17,17,17,16,17,17,17,17,17,17,17,17,17,17,16,17,17,16,17,17,17]","43","568","461","false","20","20","black","1","false","1","1","2194","1234","rdk","d","","","","0.78","0.24",""
"","null","","html-keyboard-response","252","184004","0.0-0.0-2.0-1.1-0.2-0.2-2.82","null","<p style='font-size: 60px; color: green'>正确!</p>","","","","","","","","","","","","","","","","","","","","","","","","","","","","","","","","","","","","","","","","","","","","","","","","",""
"","null","fixation","html-keyboard-response","253","184506","0.0-0.0-2.0-1.1-0.2-0.2-0.83","null","<p style='font-size: 48px; color: white'>+</p >","","","","","","","","","","","","","","","","","","","","","","","","","","","","","","","","","","","","","","","","","","","","","","","","",""
"","546","color_pract","rdk","254","185054","0.0-0.0-2.0-1.1-0.2-0.2-1.83","d","","false","[""d"",""k""]","k","3000","true","1","100","0","0","0","5.7","1","-1","3","600","600","[""hsl(0, 50%, 50%)"",""hsl(225, 50%, 50%)""]","[""hsl(225, 50%, 50%)"",""hsl(0, 50%, 50%)""]","10.194928520823122","0.76","0","circle","black","3","2","2","16.393939393939394","[7,17,16,16,16,16,17,17,17,17,16,17,17,17,16,21,13,17,16,16,17,17,17,17,17,16,17,17,17,17,16,17,17]","33","568","461","false","20","20","black","1","false","1","1","2194","1234","rdk","k","","","","0.76","0.24",""
