"success","rt","part","trial_type","trial_index","time_elapsed","internal_node_id","response","stimulus","correct","choices","correct_choice","trial_duration","response_ends_trial","number_of_apertures","number_of_dots","coherent_direction","coherence","opposite_coherence","dot_radius","dot_side_length","dot_life","move_distance","aperture_width","aperture_height","dot_color","dot_color_final","color_change_delay","target_color_proportion","motion_change_delay","dot_shape","background_color","RDK_type","aperture_type","reinsert_type","frame_rate","frame_rate_array","number_of_frames","aperture_center_x","aperture_center_y","fixation_cross","fixation_cross_width","fixation_cross_height","fixation_cross_color","fixation_cross_thickness","border","border_thickness","border_color","canvas_width","canvas_height","task","correct_responce","revs","correctNum","totalTrials","proportionColor","proportionMotion","data_label"
"true","47345","fullScreen","fullscreen","0","48973","0.0-0.0-0.0","","","","","","","","","","","","","","","","","","","","","","","","","","","","","","","","","","","","","","","","","","","","","","","","","","",""
"","250744","survey","survey","1","299892","0.0-0.0-1.0","{""sex"":""男"",""age"":23,""hands"":""右"",""color_blindness"":""都不是""}","","","","","","","","","","","","","","","","","","","","","","","","","","","","","","","","","","","","","","","","","","","","","","","","","",""
"","77117","pract_color","html-keyboard-response","2","377011","0.0-0.0-2.0-0.0"," ","
    <div style=""text-align: left; color: white; padding: 10px""> 
      <h3 style=""text-align: center; font-size: 30px; margin: 10px"">颜色判断任务</h3> 
      <p>接下来，屏幕上会呈现一些运动的圆点，其中一半为 <span style=""color: hsl(0, 50%, 50%)"">红色</span> ，一半为 <span style=""color: hsl(225, 50%, 50%)"">蓝色</span>，</p>
        <p><span style=""font-weight: bold"">大约0.2秒后,</span>  一部分点会随机变为另一种颜色（例如从红色变为蓝色），变化后某种颜色的数量会超过另一种。</p >
        <p>您需要又快又准地判断判断 <span style=""font-weight: bold"">变化后，散点图的整体颜色（即大多数点的颜色）是红色还是蓝色 </span>：</p >
        <ul>
          <li>整体为 <span style=""color: hsl(0, 50%, 50%)"">红色</span>，请按键盘 <span style=""color: hsl(0, 50%, 50%)"">""D"" 键</span></li>
          <li>整体为 <span style=""color: hsl(225, 50%, 50%)"">蓝色</span>，请按键盘 <span style=""color: hsl(225, 50%, 50%)"">""k"" 键</span> </li>
        </ul>
        <p>请将手指放在相应按键上，按下空格键进入练习阶段</p>
      </div>","","","","","","","","","","","","","","","","","","","","","","","","","","","","","","","","","","","","","","","","","","","","","","","","",""
"","null","fixation","html-keyboard-response","3","377518","0.0-0.0-2.0-1.0-0.0-0.0-0.0","null","<p style='font-size: 48px; color: white'>+</p >","","","","","","","","","","","","","","","","","","","","","","","","","","","","","","","","","","","","","","","","","","","","","","","","",""
"","-1","color_pract","rdk","4","380522","0.0-0.0-2.0-1.0-0.0-0.0-1.0","","","false","[""d"",""k""]","k","3000","true","1","100","0","0","0","5.7","1","-1","3","600","600","[""hsl(0, 50%, 50%)"",""hsl(225, 50%, 50%)""]","[""hsl(225, 50%, 50%)"",""hsl(0, 50%, 50%)""]","11.066915118055558","0.6","0","circle","black","3","2","2","15.412371134020619","[3,4,174,2,7,8,8,8,9,8,8,8,8,8,9,8,8,9,8,8,8,9,8,9,8,8,9,8,9,9,8,8,9,8,8,9,8,9,8,8,9,8,10,8,8,9,8,8,9,8,9,8,8,9,8,9,8,8,8,9,8,9,8,9,8,8,9,8,10,7,9,16,8,8,9,8,9,8,8,8,8,8,8,8,8,8,8,9,8,8,8,8,1195,5,9,8,8,8,8,8,8,9,8,8,8,9,9,8,8,9,8,9,8,8,9,8,8,9,9,8,18,32,1,9,8,9,8,8,8,8,8,9,9,8,8,8,8,8,9,8,9,16,9,8,8,9,8,9,9,8,9,8,8,8,8,9,8,11,6,8,10,7,8,9,8,11,6,9,11,5,8,9,8,9,8,9,8,8,8,9,8,8,8,8,8,9,8,8,8,8,9,8,9,8]","194","776","400","false","20","20","black","1","false","1","1","1552","970","rdk","k","","","","0.6","0.24",""
"","null","","html-keyboard-response","5","381031","0.0-0.0-2.0-1.0-0.0-0.0-2.0","null","<p style='font-size: 60px; color: yellow'>太慢!</p>","","","","","","","","","","","","","","","","","","","","","","","","","","","","","","","","","","","","","","","","","","","","","","","","",""
"","null","fixation","html-keyboard-response","6","381547","0.0-0.0-2.0-1.0-0.0-0.0-0.1","null","<p style='font-size: 48px; color: white'>+</p >","","","","","","","","","","","","","","","","","","","","","","","","","","","","","","","","","","","","","","","","","","","","","","","","",""
"","1165","color_pract","rdk","7","382715","0.0-0.0-2.0-1.0-0.0-0.0-1.1","k","","false","[""d"",""k""]","d","3000","true","1","100","0","0","0","5.7","1","-1","3","600","600","[""hsl(0, 50%, 50%)"",""hsl(225, 50%, 50%)""]","[""hsl(0, 50%, 50%)"",""hsl(225, 50%, 50%)""]","11.066915118055558","0.62","0","circle","black","3","2","2","8.359712230215827","[7,11,7,7,9,8,9,16,1,8,9,8,9,9,8,8,8,9,8,8,8,9,8,8,9,8,9,9,8,9,8,9,8,8,8,9,8,8,9,8,9,8,8,8,8,9,8,8,8,9,8,8,9,8,8,9,8,8,8,8,9,9,8,8,8,8,8,9,9,9,8,9,8,8,8,9,9,8,8,9,9,8,9,9,7,9,8,9,8,9,8,9,8,9,8,9,8,8,8,8,9,8,8,9,8,9,8,8,8,8,9,8,9,9,8,8,9,8,8,9,8,8,9,8,8,8,8,8,8,9,9,8,9,8,8,8,8,9,8]","139","776","400","false","20","20","black","1","false","1","1","1552","970","rdk","d","","","","0.62","0.24",""
"","null","","html-keyboard-response","8","383220","0.0-0.0-2.0-1.0-0.0-0.0-2.1","null","<p style='font-size: 60px; color: red'>错误!</p>","","","","","","","","","","","","","","","","","","","","","","","","","","","","","","","","","","","","","","","","","","","","","","","","",""
"","null","fixation","html-keyboard-response","9","383734","0.0-0.0-2.0-1.0-0.0-0.0-0.2","null","<p style='font-size: 48px; color: white'>+</p >","","","","","","","","","","","","","","","","","","","","","","","","","","","","","","","","","","","","","","","","","","","","","","","","",""
"","1140","color_pract","rdk","10","384874","0.0-0.0-2.0-1.0-0.0-0.0-1.2","k","","false","[""d"",""k""]","d","3000","true","1","100","0","0","0","5.7","1","-1","3","600","600","[""hsl(0, 50%, 50%)"",""hsl(225, 50%, 50%)""]","[""hsl(0, 50%, 50%)"",""hsl(225, 50%, 50%)""]","11.066915118055558","0.64","0","circle","black","3","2","2","8.348148148148148","[7,8,8,8,9,8,8,8,8,9,8,9,8,9,8,8,12,5,7,9,8,8,9,9,8,8,8,9,8,8,8,8,8,9,8,8,8,8,9,9,9,8,9,8,9,9,8,8,9,9,8,9,8,8,9,7,9,8,9,8,9,8,10,6,9,9,8,9,8,9,8,8,9,9,7,9,8,9,8,9,8,9,8,9,8,9,8,8,8,8,8,8,8,9,8,9,8,8,8,8,9,8,9,8,9,8,8,8,8,9,8,8,9,8,9,8,9,8,9,9,8,8,9,8,8,9,8,9,8,9,8,8,8,9,8]","135","776","400","false","20","20","black","1","false","1","1","1552","970","rdk","d","","","","0.64","0.24",""
"","null","","html-keyboard-response","11","385376","0.0-0.0-2.0-1.0-0.0-0.0-2.2","null","<p style='font-size: 60px; color: red'>错误!</p>","","","","","","","","","","","","","","","","","","","","","","","","","","","","","","","","","","","","","","","","","","","","","","","","",""
"","null","fixation","html-keyboard-response","12","385877","0.0-0.0-2.0-1.0-0.0-0.0-0.3","null","<p style='font-size: 48px; color: white'>+</p >","","","","","","","","","","","","","","","","","","","","","","","","","","","","","","","","","","","","","","","","","","","","","","","","",""
"","989","color_pract","rdk","13","386866","0.0-0.0-2.0-1.0-0.0-0.0-1.3","k","","true","[""d"",""k""]","k","3000","true","1","100","0","0","0","5.7","1","-1","3","600","600","[""hsl(0, 50%, 50%)"",""hsl(225, 50%, 50%)""]","[""hsl(225, 50%, 50%)"",""hsl(0, 50%, 50%)""]","11.066915118055558","0.66","0","circle","black","3","2","2","8.252100840336135","[2,13,4,9,8,9,9,9,8,8,8,9,8,8,8,8,9,8,8,8,9,8,9,8,8,9,8,8,8,8,9,8,8,8,9,8,8,8,8,8,8,8,8,8,8,8,8,9,8,9,9,8,8,8,9,8,8,9,8,9,9,8,9,8,8,8,8,8,8,8,9,8,9,8,8,9,8,8,8,9,8,8,9,8,8,9,8,8,8,9,9,8,8,8,8,9,8,8,8,9,8,9,8,9,8,8,9,8,9,9,8,9,8,8,8,8,8,8,8]","119","776","400","false","20","20","black","1","false","1","1","1552","970","rdk","k","","","","0.66","0.24",""
"","null","","html-keyboard-response","14","387367","0.0-0.0-2.0-1.0-0.0-0.0-2.3","null","<p style='font-size: 60px; color: green'>正确!</p>","","","","","","","","","","","","","","","","","","","","","","","","","","","","","","","","","","","","","","","","","","","","","","","","",""
"","null","fixation","html-keyboard-response","15","387868","0.0-0.0-2.0-1.0-0.0-0.0-0.4","null","<p style='font-size: 48px; color: white'>+</p >","","","","","","","","","","","","","","","","","","","","","","","","","","","","","","","","","","","","","","","","","","","","","","","","",""
"","2485","color_pract","rdk","16","390354","0.0-0.0-2.0-1.0-0.0-0.0-1.4","k","","false","[""d"",""k""]","d","3000","true","1","100","0","0","0","5.7","1","-1","3","600","600","[""hsl(0, 50%, 50%)"",""hsl(225, 50%, 50%)""]","[""hsl(0, 50%, 50%)"",""hsl(225, 50%, 50%)""]","11.066915118055558","0.66","0","circle","black","3","2","2","8.278523489932885","[2,8,8,9,9,8,8,9,9,8,9,8,8,9,8,8,9,8,8,8,8,8,8,8,8,9,8,8,8,8,8,9,8,9,9,8,8,8,8,8,8,8,8,9,8,8,8,9,9,8,9,8,8,8,9,8,9,8,8,8,8,9,8,8,8,8,8,8,8,8,8,9,8,9,8,8,8,8,8,8,8,8,8,8,8,8,9,8,9,8,9,8,8,9,8,8,9,8,8,9,8,9,8,8,9,8,8,9,8,8,9,8,9,8,8,9,8,8,8,8,9,8,8,8,8,9,8,9,8,8,9,8,9,8,8,9,8,8,8,8,8,9,8,8,8,8,9,8,8,8,9,8,8,9,9,9,8,8,8,8,8,9,8,9,8,9,8,8,8,8,8,9,8,9,8,9,8,8,9,8,9,8,9,8,9,8,8,9,8,8,9,8,8,8,9,9,8,8,8,9,8,8,8,8,9,8,9,8,9,7,9,9,8,8,9,8,8,8,8,8,10,7,8,8,8,9,8,9,8,8,8,8,8,9,8,8,8,8,8,9,8,8,9,8,8,8,9,8,8,8,9,8,9,8,8,9,8,9,8,9,8,9,8,9,8,10,7,8,9,8,8,8,8,9,9,8,8,9,8,9,8,8,8,9,8,9,9,8,9,8,8,8,8,8,8,9,8,8]","298","776","400","false","20","20","black","1","false","1","1","1552","970","rdk","d","","","","0.66","0.24",""
"","null","","html-keyboard-response","17","390855","0.0-0.0-2.0-1.0-0.0-0.0-2.4","null","<p style='font-size: 60px; color: red'>错误!</p>","","","","","","","","","","","","","","","","","","","","","","","","","","","","","","","","","","","","","","","","","","","","","","","","",""
"","null","fixation","html-keyboard-response","18","391356","0.0-0.0-2.0-1.0-0.0-0.0-0.5","null","<p style='font-size: 48px; color: white'>+</p >","","","","","","","","","","","","","","","","","","","","","","","","","","","","","","","","","","","","","","","","","","","","","","","","",""
"","2033","color_pract","rdk","19","393390","0.0-0.0-2.0-1.0-0.0-0.0-1.5","k","","true","[""d"",""k""]","k","3000","true","1","100","0","0","0","5.7","1","-1","3","600","600","[""hsl(0, 50%, 50%)"",""hsl(225, 50%, 50%)""]","[""hsl(225, 50%, 50%)"",""hsl(0, 50%, 50%)""]","11.066915118055558","0.68","0","circle","black","3","2","2","8.274590163934427","[6,9,8,8,9,9,7,9,9,8,9,8,8,8,8,8,8,9,9,8,9,8,8,9,8,8,9,8,8,9,8,8,8,8,8,9,8,8,9,8,8,8,8,9,8,8,9,8,8,9,8,9,9,8,8,8,9,8,9,8,8,9,8,8,8,8,9,8,8,8,9,8,8,9,8,8,9,8,8,8,8,8,9,8,8,8,9,8,9,8,8,8,8,8,8,9,8,8,8,8,8,8,8,8,8,9,8,8,8,8,8,9,8,8,8,9,8,8,8,8,9,8,9,8,8,8,9,8,8,9,8,9,7,9,8,9,8,8,9,8,8,9,8,8,8,8,8,8,8,8,9,9,8,8,9,8,8,8,9,8,8,9,9,8,9,8,8,8,8,9,8,9,9,8,8,9,8,9,8,8,8,8,8,8,8,8,8,9,8,8,8,9,8,8,8,9,8,8,8,8,9,8,8,8,8,9,8,8,8,8,9,8,9,8,8,8,9,8,8,9,8,8,8,8,9,8,8,8,8,9,8,8,8,9,8,9,9,8,8,9,9,8,8,9]","244","776","400","false","20","20","black","1","false","1","1","1552","970","rdk","k","","","","0.68","0.24",""
"","null","","html-keyboard-response","20","393893","0.0-0.0-2.0-1.0-0.0-0.0-2.5","null","<p style='font-size: 60px; color: green'>正确!</p>","","","","","","","","","","","","","","","","","","","","","","","","","","","","","","","","","","","","","","","","","","","","","","","","",""
"","null","fixation","html-keyboard-response","21","394395","0.0-0.0-2.0-1.0-0.0-0.0-0.6","null","<p style='font-size: 48px; color: white'>+</p >","","","","","","","","","","","","","","","","","","","","","","","","","","","","","","","","","","","","","","","","","","","","","","","","",""
"","903","color_pract","rdk","22","395298","0.0-0.0-2.0-1.0-0.0-0.0-1.6","k","","false","[""d"",""k""]","d","3000","true","1","100","0","0","0","5.7","1","-1","3","600","600","[""hsl(0, 50%, 50%)"",""hsl(225, 50%, 50%)""]","[""hsl(0, 50%, 50%)"",""hsl(225, 50%, 50%)""]","11.066915118055558","0.68","0","circle","black","3","2","2","8.25","[9,9,8,8,8,8,8,9,8,8,8,8,9,8,8,8,9,8,8,8,9,8,8,8,8,8,8,9,8,8,8,8,8,9,8,8,8,8,9,9,8,9,8,8,9,8,9,8,8,8,8,9,8,9,8,8,9,8,8,8,9,8,8,8,8,9,8,8,8,8,8,9,8,8,8,8,8,8,8,8,8,9,8,8,8,9,8,9,8,8,9,8,8,8,8,8,9,8,8,8,8,9,8,8,9,8,8,9]","108","776","400","false","20","20","black","1","false","1","1","1552","970","rdk","d","","","","0.68","0.24",""
"","null","","html-keyboard-response","23","395801","0.0-0.0-2.0-1.0-0.0-0.0-2.6","null","<p style='font-size: 60px; color: red'>错误!</p>","","","","","","","","","","","","","","","","","","","","","","","","","","","","","","","","","","","","","","","","","","","","","","","","",""
"","null","fixation","html-keyboard-response","24","396301","0.0-0.0-2.0-1.0-0.0-0.0-0.7","null","<p style='font-size: 48px; color: white'>+</p >","","","","","","","","","","","","","","","","","","","","","","","","","","","","","","","","","","","","","","","","","","","","","","","","",""
"","2696","color_pract","rdk","25","399000","0.0-0.0-2.0-1.0-0.0-0.0-1.7","k","","true","[""d"",""k""]","k","3000","true","1","100","0","0","0","5.7","1","-1","3","600","600","[""hsl(0, 50%, 50%)"",""hsl(225, 50%, 50%)""]","[""hsl(225, 50%, 50%)"",""hsl(0, 50%, 50%)""]","11.066915118055558","0.7000000000000001","0","circle","black","3","2","2","8.246913580246913","[3,5,9,8,8,8,9,8,8,8,8,9,8,9,8,9,8,8,8,8,8,8,8,8,8,9,8,9,8,8,8,8,9,8,9,8,8,8,8,8,8,8,9,8,8,8,8,8,8,9,8,9,8,8,8,8,8,9,8,8,8,9,8,8,8,8,8,9,9,8,8,8,8,8,8,8,9,8,8,9,8,8,8,8,9,9,8,9,8,8,8,8,8,8,8,8,8,8,8,8,9,8,8,8,8,9,8,8,8,9,8,8,9,8,8,9,8,8,9,8,9,8,8,8,8,8,8,8,8,8,8,9,8,8,9,8,8,8,8,8,9,8,8,8,8,9,8,8,8,8,8,8,9,8,8,8,9,8,8,8,9,8,8,8,8,8,8,9,8,8,8,8,8,8,8,8,8,9,8,10,7,8,8,8,8,9,9,9,8,9,8,8,9,9,8,9,8,9,8,9,9,8,9,8,9,8,9,8,9,9,8,8,8,9,8,8,8,10,6,8,9,9,8,9,8,8,9,8,9,8,8,9,8,8,8,9,9,8,9,8,8,8,8,8,9,8,8,9,8,9,9,8,8,8,8,9,9,8,8,8,9,8,8,9,8,8,9,8,9,10,7,8,8,8,8,9,8,8,8,8,8,9,8,9,8,8,9,8,8,9,8,8,8,8,8,9,8,8,9,8,8,8,8,8,8,9,7,8,8,9,8,9,8,8,8,8,9,8,9,9,8,9,8,9]","324","776","400","false","20","20","black","1","false","1","1","1552","970","rdk","k","","","","0.7000000000000001","0.24",""
"","null","","html-keyboard-response","26","399501","0.0-0.0-2.0-1.0-0.0-0.0-2.7","null","<p style='font-size: 60px; color: green'>正确!</p>","","","","","","","","","","","","","","","","","","","","","","","","","","","","","","","","","","","","","","","","","","","","","","","","",""
"","null","fixation","html-keyboard-response","27","400002","0.0-0.0-2.0-1.0-0.0-0.0-0.8","null","<p style='font-size: 48px; color: white'>+</p >","","","","","","","","","","","","","","","","","","","","","","","","","","","","","","","","","","","","","","","","","","","","","","","","",""
"","1295","color_pract","rdk","28","401298","0.0-0.0-2.0-1.0-0.0-0.0-1.8","k","","true","[""d"",""k""]","k","3000","true","1","100","0","0","0","5.7","1","-1","3","600","600","[""hsl(0, 50%, 50%)"",""hsl(225, 50%, 50%)""]","[""hsl(225, 50%, 50%)"",""hsl(0, 50%, 50%)""]","11.066915118055558","0.7000000000000001","0","circle","black","3","2","2","8.243589743589743","[2,10,7,8,8,8,9,8,9,8,8,8,8,8,9,8,8,9,8,9,9,8,8,9,8,8,9,8,8,9,8,8,8,9,8,8,8,8,8,8,8,9,8,8,9,8,8,8,8,8,9,8,8,8,9,9,8,8,8,9,8,8,8,8,9,8,9,8,8,9,8,8,8,8,9,8,8,8,8,8,8,8,9,8,9,8,9,8,8,8,9,8,8,9,8,8,9,8,8,8,8,9,8,8,9,8,9,8,9,8,9,8,8,9,8,8,8,8,9,8,9,8,9,8,8,8,9,8,8,8,8,9,8,8,8,8,8,8,9,8,8,9,8,8,8,8,8,9,8,9,8,9,9,8,8,8]","156","776","400","false","20","20","black","1","false","1","1","1552","970","rdk","k","","","","0.7000000000000001","0.24",""
"","null","","html-keyboard-response","29","401798","0.0-0.0-2.0-1.0-0.0-0.0-2.8","null","<p style='font-size: 60px; color: green'>正确!</p>","","","","","","","","","","","","","","","","","","","","","","","","","","","","","","","","","","","","","","","","","","","","","","","","",""
"","null","fixation","html-keyboard-response","30","402300","0.0-0.0-2.0-1.0-0.0-0.0-0.9","null","<p style='font-size: 48px; color: white'>+</p >","","","","","","","","","","","","","","","","","","","","","","","","","","","","","","","","","","","","","","","","","","","","","","","","",""
"","2680","color_pract","rdk","31","404981","0.0-0.0-2.0-1.0-0.0-0.0-1.9","k","","false","[""d"",""k""]","d","3000","true","1","100","0","0","0","5.7","1","-1","3","600","600","[""hsl(0, 50%, 50%)"",""hsl(225, 50%, 50%)""]","[""hsl(0, 50%, 50%)"",""hsl(225, 50%, 50%)""]","11.066915118055558","0.7000000000000001","0","circle","black","3","2","2","8.236024844720497","[3,7,8,8,8,8,8,8,9,8,8,9,8,8,9,8,8,9,8,9,8,9,8,8,8,8,9,8,8,8,9,8,8,8,9,9,8,8,9,8,8,8,8,9,9,8,8,8,9,8,8,8,8,8,8,8,8,9,8,8,8,8,9,8,9,8,9,8,8,8,8,9,8,8,8,8,9,8,9,8,8,9,8,8,8,8,8,8,8,8,8,8,8,8,8,9,8,9,8,8,8,9,8,9,8,8,8,8,8,8,9,9,8,8,8,8,9,8,8,8,9,8,8,8,9,8,8,8,8,8,8,8,9,8,8,8,8,8,8,8,8,8,8,9,8,8,8,8,8,8,8,8,9,10,7,8,10,7,8,8,8,9,8,8,9,8,8,9,9,8,8,8,8,8,8,8,8,9,8,8,9,8,8,8,9,8,8,8,8,8,9,8,8,8,8,8,8,8,9,8,8,8,8,8,8,8,8,8,9,8,8,8,8,9,8,8,8,8,9,10,7,9,8,8,8,8,8,8,9,8,8,8,8,9,8,8,9,8,8,9,8,8,8,9,9,9,8,8,8,8,9,9,8,8,9,9,8,8,9,8,9,8,8,8,8,8,8,8,8,9,8,9,8,8,9,8,9,8,8,9,8,9,9,7,8,9,8,8,8,9,8,9,8,8,8,9,9,9,8,9,8,8,8,8,8,8,8,8,9,8,9,8,9,8,8,8,8,8,9,9,8,9]","322","776","400","false","20","20","black","1","false","1","1","1552","970","rdk","d","","","","0.7000000000000001","0.24",""
"","null","","html-keyboard-response","32","405483","0.0-0.0-2.0-1.0-0.0-0.0-2.9","null","<p style='font-size: 60px; color: red'>错误!</p>","","","","","","","","","","","","","","","","","","","","","","","","","","","","","","","","","","","","","","","","","","","","","","","","",""
"","null","fixation","html-keyboard-response","33","405985","0.0-0.0-2.0-1.0-0.0-0.0-0.10","null","<p style='font-size: 48px; color: white'>+</p >","","","","","","","","","","","","","","","","","","","","","","","","","","","","","","","","","","","","","","","","","","","","","","","","",""
"","1833","color_pract","rdk","34","407819","0.0-0.0-2.0-1.0-0.0-0.0-1.10","k","","true","[""d"",""k""]","k","3000","true","1","100","0","0","0","5.7","1","-1","3","600","600","[""hsl(0, 50%, 50%)"",""hsl(225, 50%, 50%)""]","[""hsl(225, 50%, 50%)"",""hsl(0, 50%, 50%)""]","11.066915118055558","0.7200000000000001","0","circle","black","3","2","2","8.281818181818181","[7,8,8,8,9,8,9,8,8,8,8,9,9,8,8,8,8,8,8,8,8,8,8,9,8,8,8,8,9,8,8,8,8,8,8,8,8,8,8,9,8,8,9,9,8,8,8,8,8,8,8,8,8,8,8,9,9,8,8,9,8,8,8,8,8,9,8,9,8,9,8,9,8,8,8,8,8,8,8,8,9,8,8,8,8,9,8,9,8,9,9,8,8,8,9,8,9,8,8,8,9,9,8,8,9,8,9,8,8,8,9,8,9,8,8,8,9,8,8,8,9,8,8,9,8,8,8,8,9,8,9,8,8,8,9,8,8,9,8,8,8,9,8,9,9,8,9,8,9,9,8,8,8,8,8,8,8,9,8,8,8,8,9,8,8,8,8,9,8,8,8,9,8,8,8,8,8,9,8,9,9,9,8,8,8,8,8,9,9,8,8,8,9,8,9,8,9,8,8,8,9,8,9,8,9,7,8,8,8,8,8,9,9,9,8,9,8,9,8,9]","220","776","400","false","20","20","black","1","false","1","1","1552","970","rdk","k","","","","0.7200000000000001","0.24",""
"","null","","html-keyboard-response","35","408321","0.0-0.0-2.0-1.0-0.0-0.0-2.10","null","<p style='font-size: 60px; color: green'>正确!</p>","","","","","","","","","","","","","","","","","","","","","","","","","","","","","","","","","","","","","","","","","","","","","","","","",""
"","null","fixation","html-keyboard-response","36","408822","0.0-0.0-2.0-1.0-0.0-0.0-0.11","null","<p style='font-size: 48px; color: white'>+</p >","","","","","","","","","","","","","","","","","","","","","","","","","","","","","","","","","","","","","","","","","","","","","","","","",""
"","970","color_pract","rdk","37","409794","0.0-0.0-2.0-1.0-0.0-0.0-1.11","k","","false","[""d"",""k""]","d","3000","true","1","100","0","0","0","5.7","1","-1","3","600","600","[""hsl(0, 50%, 50%)"",""hsl(225, 50%, 50%)""]","[""hsl(0, 50%, 50%)"",""hsl(225, 50%, 50%)""]","11.066915118055558","0.7200000000000001","0","circle","black","3","2","2","8.222222222222221","[2,6,11,6,9,9,8,9,8,8,9,8,9,9,8,8,9,8,8,9,8,8,8,8,8,9,8,8,9,8,8,8,8,8,9,9,8,9,8,8,8,8,9,8,9,8,8,8,8,9,8,8,8,8,8,9,8,8,8,8,8,8,9,8,9,9,8,8,8,8,8,8,9,8,8,8,9,8,9,8,8,8,8,9,8,8,8,9,8,8,8,9,8,8,8,8,8,8,8,9,8,8,9,8,8,9,8,9,8,8,9,9,8,8,9,8,8]","117","776","400","false","20","20","black","1","false","1","1","1552","970","rdk","d","","","","0.7200000000000001","0.24",""
"","null","","html-keyboard-response","38","410295","0.0-0.0-2.0-1.0-0.0-0.0-2.11","null","<p style='font-size: 60px; color: red'>错误!</p>","","","","","","","","","","","","","","","","","","","","","","","","","","","","","","","","","","","","","","","","","","","","","","","","",""
"","null","fixation","html-keyboard-response","39","410797","0.0-0.0-2.0-1.0-0.0-0.0-0.12","null","<p style='font-size: 48px; color: white'>+</p >","","","","","","","","","","","","","","","","","","","","","","","","","","","","","","","","","","","","","","","","","","","","","","","","",""
"","1755","color_pract","rdk","40","412554","0.0-0.0-2.0-1.0-0.0-0.0-1.12","d","","true","[""d"",""k""]","d","3000","true","1","100","0","0","0","5.7","1","-1","3","600","600","[""hsl(0, 50%, 50%)"",""hsl(225, 50%, 50%)""]","[""hsl(0, 50%, 50%)"",""hsl(225, 50%, 50%)""]","11.066915118055558","0.7400000000000001","0","circle","black","3","2","2","8.19431279620853","[4,4,8,9,8,8,8,9,8,8,9,9,8,9,8,8,8,8,8,8,8,8,9,8,9,9,9,7,8,8,8,8,9,8,8,8,8,9,8,8,8,8,8,9,8,8,8,9,8,8,9,8,9,8,8,8,8,8,9,8,9,8,8,8,8,8,9,8,9,8,8,8,8,9,8,8,8,8,9,8,8,8,9,8,8,8,8,8,8,8,9,8,8,8,8,8,8,8,8,8,9,8,9,8,8,8,8,9,8,8,9,8,9,8,9,8,8,8,8,8,9,8,8,9,8,8,8,8,8,9,8,9,8,8,9,8,8,8,8,8,8,8,9,8,9,8,8,8,8,9,8,8,8,8,8,8,8,9,8,9,8,10,7,8,8,8,8,9,8,8,8,8,8,8,8,8,8,8,8,8,8,9,8,9,8,8,8,8,9,8,8,9,8,8,8,9,8,8,9,8,8,8,8,9,8,8,9,8,9,8,8]","211","776","400","false","20","20","black","1","false","1","1","1552","970","rdk","d","","","","0.7400000000000001","0.24",""
"","null","","html-keyboard-response","41","413070","0.0-0.0-2.0-1.0-0.0-0.0-2.12","null","<p style='font-size: 60px; color: green'>正确!</p>","","","","","","","","","","","","","","","","","","","","","","","","","","","","","","","","","","","","","","","","","","","","","","","","",""
"","null","fixation","html-keyboard-response","42","413572","0.0-0.0-2.0-1.0-0.0-0.0-0.13","null","<p style='font-size: 48px; color: white'>+</p >","","","","","","","","","","","","","","","","","","","","","","","","","","","","","","","","","","","","","","","","","","","","","","","","",""
"","741","color_pract","rdk","43","414314","0.0-0.0-2.0-1.0-0.0-0.0-1.13","k","","true","[""d"",""k""]","k","3000","true","1","100","0","0","0","5.7","1","-1","3","600","600","[""hsl(0, 50%, 50%)"",""hsl(225, 50%, 50%)""]","[""hsl(225, 50%, 50%)"",""hsl(0, 50%, 50%)""]","11.066915118055558","0.7400000000000001","0","circle","black","3","2","2","8.258426966292134","[2,16,1,8,8,8,8,8,9,8,8,9,8,9,9,8,8,9,8,9,9,8,8,9,8,8,9,8,9,9,8,9,8,9,8,9,8,8,8,8,9,9,8,9,8,8,8,8,8,9,8,8,8,9,8,8,8,8,9,8,8,8,8,8,9,8,8,8,8,8,9,8,8,8,8,9,8,8,9,8,8,9,8,9,8,8,9,8,9]","89","776","400","false","20","20","black","1","false","1","1","1552","970","rdk","k","","","","0.7400000000000001","0.24",""
"","null","","html-keyboard-response","44","414815","0.0-0.0-2.0-1.0-0.0-0.0-2.13","null","<p style='font-size: 60px; color: green'>正确!</p>","","","","","","","","","","","","","","","","","","","","","","","","","","","","","","","","","","","","","","","","","","","","","","","","",""
"","null","fixation","html-keyboard-response","45","415316","0.0-0.0-2.0-1.0-0.0-0.0-0.14","null","<p style='font-size: 48px; color: white'>+</p >","","","","","","","","","","","","","","","","","","","","","","","","","","","","","","","","","","","","","","","","","","","","","","","","",""
"","781","color_pract","rdk","46","416098","0.0-0.0-2.0-1.0-0.0-0.0-1.14","k","","true","[""d"",""k""]","k","3000","true","1","100","0","0","0","5.7","1","-1","3","600","600","[""hsl(0, 50%, 50%)"",""hsl(225, 50%, 50%)""]","[""hsl(225, 50%, 50%)"",""hsl(0, 50%, 50%)""]","11.066915118055558","0.7400000000000001","0","circle","black","3","2","2","8.258064516129032","[9,7,8,9,8,9,8,8,8,8,8,8,9,9,8,8,8,8,9,8,9,8,8,8,8,9,9,8,8,8,8,9,8,8,9,8,8,8,8,8,9,8,8,8,8,8,9,8,8,8,9,8,9,8,8,8,8,8,8,9,9,8,8,8,9,8,8,9,8,9,8,8,8,8,9,8,9,8,9,8,9,8,8,8,8,8,8,8,8,9,8,8,8]","93","776","400","false","20","20","black","1","false","1","1","1552","970","rdk","k","","","","0.7400000000000001","0.24",""
"","null","","html-keyboard-response","47","416600","0.0-0.0-2.0-1.0-0.0-0.0-2.14","null","<p style='font-size: 60px; color: green'>正确!</p>","","","","","","","","","","","","","","","","","","","","","","","","","","","","","","","","","","","","","","","","","","","","","","","","",""
"","null","fixation","html-keyboard-response","48","417101","0.0-0.0-2.0-1.0-0.0-0.0-0.15","null","<p style='font-size: 48px; color: white'>+</p >","","","","","","","","","","","","","","","","","","","","","","","","","","","","","","","","","","","","","","","","","","","","","","","","",""
"","628","color_pract","rdk","49","417731","0.0-0.0-2.0-1.0-0.0-0.0-1.15","d","","true","[""d"",""k""]","d","3000","true","1","100","0","0","0","5.7","1","-1","3","600","600","[""hsl(0, 50%, 50%)"",""hsl(225, 50%, 50%)""]","[""hsl(0, 50%, 50%)"",""hsl(225, 50%, 50%)""]","11.066915118055558","0.7400000000000001","0","circle","black","3","2","2","8.2","[5,8,8,8,8,9,8,8,9,8,8,9,8,8,8,8,8,8,9,8,9,8,8,8,8,9,8,8,8,8,9,8,8,8,8,8,9,8,8,8,8,9,8,8,8,9,8,8,9,8,8,9,9,8,8,8,8,8,8,8,9,9,9,8,9,8,8,8,8,8,8,8,8,9,8]","75","776","400","false","20","20","black","1","false","1","1","1552","970","rdk","d","","","","0.7400000000000001","0.24",""
"","null","","html-keyboard-response","50","418232","0.0-0.0-2.0-1.0-0.0-0.0-2.15","null","<p style='font-size: 60px; color: green'>正确!</p>","","","","","","","","","","","","","","","","","","","","","","","","","","","","","","","","","","","","","","","","","","","","","","","","",""
"","null","fixation","html-keyboard-response","51","418734","0.0-0.0-2.0-1.0-0.0-0.0-0.16","null","<p style='font-size: 48px; color: white'>+</p >","","","","","","","","","","","","","","","","","","","","","","","","","","","","","","","","","","","","","","","","","","","","","","","","",""
"","1051","color_pract","rdk","52","419786","0.0-0.0-2.0-1.0-0.0-0.0-1.16","k","","true","[""d"",""k""]","k","3000","true","1","100","0","0","0","5.7","1","-1","3","600","600","[""hsl(0, 50%, 50%)"",""hsl(225, 50%, 50%)""]","[""hsl(225, 50%, 50%)"",""hsl(0, 50%, 50%)""]","11.066915118055558","0.7200000000000001","0","circle","black","3","2","2","8.222222222222221","[2,8,9,8,8,9,8,9,8,8,8,9,8,9,9,8,8,8,9,8,8,8,8,8,9,8,8,9,8,8,8,8,8,9,8,9,8,8,8,9,8,8,9,8,9,9,8,8,8,8,8,9,8,8,8,9,8,8,9,8,8,8,8,9,8,9,8,8,8,8,8,8,8,8,9,8,8,8,8,8,8,9,8,8,8,8,8,8,8,8,9,8,9,8,8,8,9,8,9,8,9,9,8,9,8,9,8,8,9,8,9,8,8,8,8,9,8,8,8,8,9,8,8,8,9,7]","126","776","400","false","20","20","black","1","false","1","1","1552","970","rdk","k","","","","0.7200000000000001","0.24",""
"","null","","html-keyboard-response","53","420297","0.0-0.0-2.0-1.0-0.0-0.0-2.16","null","<p style='font-size: 60px; color: green'>正确!</p>","","","","","","","","","","","","","","","","","","","","","","","","","","","","","","","","","","","","","","","","","","","","","","","","",""
"","null","fixation","html-keyboard-response","54","420799","0.0-0.0-2.0-1.0-0.0-0.0-0.17","null","<p style='font-size: 48px; color: white'>+</p >","","","","","","","","","","","","","","","","","","","","","","","","","","","","","","","","","","","","","","","","","","","","","","","","",""
"","754","color_pract","rdk","55","421554","0.0-0.0-2.0-1.0-0.0-0.0-1.17","d","","true","[""d"",""k""]","d","3000","true","1","100","0","0","0","5.7","1","-1","3","600","600","[""hsl(0, 50%, 50%)"",""hsl(225, 50%, 50%)""]","[""hsl(0, 50%, 50%)"",""hsl(225, 50%, 50%)""]","11.066915118055558","0.7200000000000001","0","circle","black","3","2","2","8.280898876404494","[13,9,8,9,8,9,9,8,8,8,8,9,8,9,8,8,8,9,8,9,8,8,8,9,8,8,8,8,8,8,8,8,8,8,9,8,8,8,8,8,9,8,8,8,8,8,8,8,9,8,8,8,8,8,8,8,8,8,8,9,8,9,8,9,8,8,8,8,8,8,8,9,8,9,8,8,8,8,9,8,9,8,8,8,9,8,8,8,8]","89","776","400","false","20","20","black","1","false","1","1","1552","970","rdk","d","","","","0.7200000000000001","0.24",""
"","null","","html-keyboard-response","56","422056","0.0-0.0-2.0-1.0-0.0-0.0-2.17","null","<p style='font-size: 60px; color: green'>正确!</p>","","","","","","","","","","","","","","","","","","","","","","","","","","","","","","","","","","","","","","","","","","","","","","","","",""
"","null","fixation","html-keyboard-response","57","422557","0.0-0.0-2.0-1.0-0.0-0.0-0.18","null","<p style='font-size: 48px; color: white'>+</p >","","","","","","","","","","","","","","","","","","","","","","","","","","","","","","","","","","","","","","","","","","","","","","","","",""
"","645","color_pract","rdk","58","423202","0.0-0.0-2.0-1.0-0.0-0.0-1.18","d","","true","[""d"",""k""]","d","3000","true","1","100","0","0","0","5.7","1","-1","3","600","600","[""hsl(0, 50%, 50%)"",""hsl(225, 50%, 50%)""]","[""hsl(0, 50%, 50%)"",""hsl(225, 50%, 50%)""]","11.066915118055558","0.7200000000000001","0","circle","black","3","2","2","8.246753246753247","[5,8,8,8,9,8,8,8,8,8,8,9,8,8,8,9,8,8,9,8,9,8,8,9,8,8,8,8,9,9,8,8,8,9,8,9,8,8,8,9,9,8,8,8,9,9,8,9,8,8,8,8,8,8,8,9,8,8,9,8,8,9,8,8,8,8,8,8,8,9,8,8,8,9,8,9,9]","77","776","400","false","20","20","black","1","false","1","1","1552","970","rdk","d","","","","0.7200000000000001","0.24",""
"","null","","html-keyboard-response","59","423703","0.0-0.0-2.0-1.0-0.0-0.0-2.18","null","<p style='font-size: 60px; color: green'>正确!</p>","","","","","","","","","","","","","","","","","","","","","","","","","","","","","","","","","","","","","","","","","","","","","","","","",""
"","null","fixation","html-keyboard-response","60","424205","0.0-0.0-2.0-1.0-0.0-0.0-0.19","null","<p style='font-size: 48px; color: white'>+</p >","","","","","","","","","","","","","","","","","","","","","","","","","","","","","","","","","","","","","","","","","","","","","","","","",""
"","692","color_pract","rdk","61","424898","0.0-0.0-2.0-1.0-0.0-0.0-1.19","k","","true","[""d"",""k""]","k","3000","true","1","100","0","0","0","5.7","1","-1","3","600","600","[""hsl(0, 50%, 50%)"",""hsl(225, 50%, 50%)""]","[""hsl(225, 50%, 50%)"",""hsl(0, 50%, 50%)""]","11.066915118055558","0.7200000000000001","0","circle","black","3","2","2","8.108433734939759","[2,8,8,8,8,9,8,8,8,8,8,8,8,8,8,8,8,9,8,8,8,8,8,9,8,8,8,8,8,8,9,8,9,8,8,8,8,8,9,9,8,8,9,8,8,8,8,8,8,8,8,8,8,9,8,9,8,8,8,8,8,9,8,8,9,8,8,8,8,9,8,8,8,8,9,8,8,8,8,9,8,8,8]","83","776","400","false","20","20","black","1","false","1","1","1552","970","rdk","k","","","","0.7200000000000001","0.24",""
"","null","","html-keyboard-response","62","425399","0.0-0.0-2.0-1.0-0.0-0.0-2.19","null","<p style='font-size: 60px; color: green'>正确!</p>","","","","","","","","","","","","","","","","","","","","","","","","","","","","","","","","","","","","","","","","","","","","","","","","",""
"","null","fixation","html-keyboard-response","63","425900","0.0-0.0-2.0-1.0-0.0-0.0-0.20","null","<p style='font-size: 48px; color: white'>+</p >","","","","","","","","","","","","","","","","","","","","","","","","","","","","","","","","","","","","","","","","","","","","","","","","",""
"","638","color_pract","rdk","64","426538","0.0-0.0-2.0-1.0-0.0-0.0-1.20","k","","true","[""d"",""k""]","k","3000","true","1","100","0","0","0","5.7","1","-1","3","600","600","[""hsl(0, 50%, 50%)"",""hsl(225, 50%, 50%)""]","[""hsl(225, 50%, 50%)"",""hsl(0, 50%, 50%)""]","11.066915118055558","0.7000000000000001","0","circle","black","3","2","2","8.25","[7,9,9,8,8,8,8,8,8,9,8,8,9,8,8,8,9,8,9,8,8,8,8,9,8,8,8,8,9,8,9,8,8,8,8,9,8,8,8,8,8,8,9,8,8,8,8,8,8,9,8,9,8,9,8,8,8,9,8,8,8,8,8,9,8,8,8,9,8,9,8,9,8,9,8,8]","76","776","400","false","20","20","black","1","false","1","1","1552","970","rdk","k","","","","0.7000000000000001","0.24",""
"","null","","html-keyboard-response","65","427040","0.0-0.0-2.0-1.0-0.0-0.0-2.20","null","<p style='font-size: 60px; color: green'>正确!</p>","","","","","","","","","","","","","","","","","","","","","","","","","","","","","","","","","","","","","","","","","","","","","","","","",""
"","null","fixation","html-keyboard-response","66","427541","0.0-0.0-2.0-1.0-0.0-0.0-0.21","null","<p style='font-size: 48px; color: white'>+</p >","","","","","","","","","","","","","","","","","","","","","","","","","","","","","","","","","","","","","","","","","","","","","","","","",""
"","781","color_pract","rdk","67","428322","0.0-0.0-2.0-1.0-0.0-0.0-1.21","d","","true","[""d"",""k""]","d","3000","true","1","100","0","0","0","5.7","1","-1","3","600","600","[""hsl(0, 50%, 50%)"",""hsl(225, 50%, 50%)""]","[""hsl(0, 50%, 50%)"",""hsl(225, 50%, 50%)""]","11.066915118055558","0.7000000000000001","0","circle","black","3","2","2","8.182795698924732","[10,7,8,8,8,8,8,8,8,9,8,8,8,8,8,8,9,8,9,8,8,8,8,8,8,8,9,8,9,8,8,8,8,9,9,8,9,8,8,9,8,9,8,9,8,8,8,8,8,8,8,8,8,8,8,8,8,8,9,8,8,8,9,8,8,8,8,9,8,8,8,8,8,8,8,8,8,8,8,9,8,8,8,8,8,8,8,8,8,9,8,8,8]","93","776","400","false","20","20","black","1","false","1","1","1552","970","rdk","d","","","","0.7000000000000001","0.24",""
"","null","","html-keyboard-response","68","428823","0.0-0.0-2.0-1.0-0.0-0.0-2.21","null","<p style='font-size: 60px; color: green'>正确!</p>","","","","","","","","","","","","","","","","","","","","","","","","","","","","","","","","","","","","","","","","","","","","","","","","",""
"","null","fixation","html-keyboard-response","69","429337","0.0-0.0-2.0-1.0-0.0-0.0-0.22","null","<p style='font-size: 48px; color: white'>+</p >","","","","","","","","","","","","","","","","","","","","","","","","","","","","","","","","","","","","","","","","","","","","","","","","",""
"","777","color_pract","rdk","70","430114","0.0-0.0-2.0-1.0-0.0-0.0-1.22","k","","true","[""d"",""k""]","k","3000","true","1","100","0","0","0","5.7","1","-1","3","600","600","[""hsl(0, 50%, 50%)"",""hsl(225, 50%, 50%)""]","[""hsl(225, 50%, 50%)"",""hsl(0, 50%, 50%)""]","11.066915118055558","0.7000000000000001","0","circle","black","3","2","2","8.161290322580646","[4,9,8,8,8,8,8,8,8,8,8,8,9,8,9,8,8,9,8,8,8,8,9,9,8,8,8,8,8,9,8,8,8,9,8,8,9,8,8,8,8,9,8,8,8,8,9,9,8,8,8,9,8,8,8,8,8,8,8,8,8,9,8,9,8,9,9,8,8,8,8,9,8,8,8,8,8,8,8,8,8,8,8,9,8,8,8,8,8,8,8,8,8]","93","776","400","false","20","20","black","1","false","1","1","1552","970","rdk","k","","","","0.7000000000000001","0.24",""
"","null","","html-keyboard-response","71","430615","0.0-0.0-2.0-1.0-0.0-0.0-2.22","null","<p style='font-size: 60px; color: green'>正确!</p>","","","","","","","","","","","","","","","","","","","","","","","","","","","","","","","","","","","","","","","","","","","","","","","","",""
"","null","fixation","html-keyboard-response","72","431116","0.0-0.0-2.0-1.0-0.0-0.0-0.23","null","<p style='font-size: 48px; color: white'>+</p >","","","","","","","","","","","","","","","","","","","","","","","","","","","","","","","","","","","","","","","","","","","","","","","","",""
"","653","color_pract","rdk","73","431770","0.0-0.0-2.0-1.0-0.0-0.0-1.23","d","","true","[""d"",""k""]","d","3000","true","1","100","0","0","0","5.7","1","-1","3","600","600","[""hsl(0, 50%, 50%)"",""hsl(225, 50%, 50%)""]","[""hsl(0, 50%, 50%)"",""hsl(225, 50%, 50%)""]","11.066915118055558","0.7000000000000001","0","circle","black","3","2","2","8.243589743589743","[7,8,8,8,8,9,8,8,8,8,9,8,8,9,8,8,8,9,8,9,9,8,8,8,8,9,8,9,8,8,8,9,8,8,9,8,9,8,8,9,8,8,8,8,8,9,8,9,8,9,8,8,8,8,9,8,8,8,8,9,8,8,8,9,8,8,8,8,8,9,8,8,8,9,8,8,8,8]","78","776","400","false","20","20","black","1","false","1","1","1552","970","rdk","d","","","","0.7000000000000001","0.24",""
"","null","","html-keyboard-response","74","432271","0.0-0.0-2.0-1.0-0.0-0.0-2.23","null","<p style='font-size: 60px; color: green'>正确!</p>","","","","","","","","","","","","","","","","","","","","","","","","","","","","","","","","","","","","","","","","","","","","","","","","",""
"","null","fixation","html-keyboard-response","75","432772","0.0-0.0-2.0-1.0-0.0-0.0-0.24","null","<p style='font-size: 48px; color: white'>+</p >","","","","","","","","","","","","","","","","","","","","","","","","","","","","","","","","","","","","","","","","","","","","","","","","",""
"","797","color_pract","rdk","76","433570","0.0-0.0-2.0-1.0-0.0-0.0-1.24","k","","true","[""d"",""k""]","k","3000","true","1","100","0","0","0","5.7","1","-1","3","600","600","[""hsl(0, 50%, 50%)"",""hsl(225, 50%, 50%)""]","[""hsl(225, 50%, 50%)"",""hsl(0, 50%, 50%)""]","11.066915118055558","0.68","0","circle","black","3","2","2","8.125","[5,5,8,8,9,9,8,8,8,9,8,8,9,8,9,8,8,8,8,9,8,8,9,8,8,8,8,8,8,8,8,8,8,8,8,8,8,8,8,8,8,8,8,8,8,8,9,8,8,9,8,8,8,9,8,8,8,8,8,8,8,8,9,8,8,8,9,8,8,9,8,8,8,8,9,8,8,8,8,8,8,8,8,8,9,8,8,9,8,9,8,8,8,9,8,8]","96","776","400","false","20","20","black","1","false","1","1","1552","970","rdk","k","","","","0.68","0.24",""
"","null","","html-keyboard-response","77","434071","0.0-0.0-2.0-1.0-0.0-0.0-2.24","null","<p style='font-size: 60px; color: green'>正确!</p>","","","","","","","","","","","","","","","","","","","","","","","","","","","","","","","","","","","","","","","","","","","","","","","","",""
"","null","fixation","html-keyboard-response","78","434572","0.0-0.0-2.0-1.0-0.0-0.0-0.25","null","<p style='font-size: 48px; color: white'>+</p >","","","","","","","","","","","","","","","","","","","","","","","","","","","","","","","","","","","","","","","","","","","","","","","","",""
"","566","color_pract","rdk","79","435138","0.0-0.0-2.0-1.0-0.0-0.0-1.25","d","","true","[""d"",""k""]","d","3000","true","1","100","0","0","0","5.7","1","-1","3","600","600","[""hsl(0, 50%, 50%)"",""hsl(225, 50%, 50%)""]","[""hsl(0, 50%, 50%)"",""hsl(225, 50%, 50%)""]","11.066915118055558","0.68","0","circle","black","3","2","2","8.191176470588236","[2,8,9,8,8,8,9,9,8,9,8,8,8,8,9,8,8,8,9,8,8,9,8,9,8,9,8,8,8,9,8,9,8,9,8,8,8,8,8,8,8,8,9,9,8,8,8,8,9,8,8,8,8,8,9,8,8,8,9,9,8,8,8,8,8,9,8,8]","68","776","400","false","20","20","black","1","false","1","1","1552","970","rdk","d","","","","0.68","0.24",""
"","null","","html-keyboard-response","80","435642","0.0-0.0-2.0-1.0-0.0-0.0-2.25","null","<p style='font-size: 60px; color: green'>正确!</p>","","","","","","","","","","","","","","","","","","","","","","","","","","","","","","","","","","","","","","","","","","","","","","","","",""
"","null","fixation","html-keyboard-response","81","436143","0.0-0.0-2.0-1.0-0.0-0.0-0.26","null","<p style='font-size: 48px; color: white'>+</p >","","","","","","","","","","","","","","","","","","","","","","","","","","","","","","","","","","","","","","","","","","","","","","","","",""
"","682","color_pract","rdk","82","436826","0.0-0.0-2.0-1.0-0.0-0.0-1.26","k","","true","[""d"",""k""]","k","3000","true","1","100","0","0","0","5.7","1","-1","3","600","600","[""hsl(0, 50%, 50%)"",""hsl(225, 50%, 50%)""]","[""hsl(225, 50%, 50%)"",""hsl(0, 50%, 50%)""]","11.066915118055558","0.68","0","circle","black","3","2","2","8.195121951219512","[6,8,8,9,8,8,9,8,9,8,8,9,8,8,9,8,8,9,8,8,8,8,9,8,8,8,8,9,8,8,8,8,8,8,8,9,8,8,8,8,9,8,8,8,8,8,8,8,8,8,8,8,9,8,8,8,8,8,9,8,8,8,8,8,9,8,8,8,8,9,8,8,8,8,8,9,9,8,8,9,8,9]","82","776","400","false","20","20","black","1","false","1","1","1552","970","rdk","k","","","","0.68","0.24",""
"","null","","html-keyboard-response","83","437327","0.0-0.0-2.0-1.0-0.0-0.0-2.26","null","<p style='font-size: 60px; color: green'>正确!</p>","","","","","","","","","","","","","","","","","","","","","","","","","","","","","","","","","","","","","","","","","","","","","","","","",""
"","null","fixation","html-keyboard-response","84","437828","0.0-0.0-2.0-1.0-0.0-0.0-0.27","null","<p style='font-size: 48px; color: white'>+</p >","","","","","","","","","","","","","","","","","","","","","","","","","","","","","","","","","","","","","","","","","","","","","","","","",""
"","591","color_pract","rdk","85","438419","0.0-0.0-2.0-1.0-0.0-0.0-1.27","d","","true","[""d"",""k""]","d","3000","true","1","100","0","0","0","5.7","1","-1","3","600","600","[""hsl(0, 50%, 50%)"",""hsl(225, 50%, 50%)""]","[""hsl(0, 50%, 50%)"",""hsl(225, 50%, 50%)""]","11.066915118055558","0.68","0","circle","black","3","2","2","8.253521126760564","[5,9,8,8,8,8,8,8,8,9,8,9,8,9,8,8,9,8,9,8,8,8,9,8,8,8,9,8,8,8,8,8,8,9,8,8,9,8,8,9,8,9,8,9,8,8,9,8,9,8,8,8,8,9,8,8,8,8,8,9,8,8,8,8,9,8,9,8,9,8,9]","71","776","400","false","20","20","black","1","false","1","1","1552","970","rdk","d","","","","0.68","0.24",""
"","null","","html-keyboard-response","86","438921","0.0-0.0-2.0-1.0-0.0-0.0-2.27","null","<p style='font-size: 60px; color: green'>正确!</p>","","","","","","","","","","","","","","","","","","","","","","","","","","","","","","","","","","","","","","","","","","","","","","","","",""
"","null","fixation","html-keyboard-response","87","439422","0.0-0.0-2.0-1.0-0.0-0.0-0.28","null","<p style='font-size: 48px; color: white'>+</p >","","","","","","","","","","","","","","","","","","","","","","","","","","","","","","","","","","","","","","","","","","","","","","","","",""
"","1140","color_pract","rdk","88","440563","0.0-0.0-2.0-1.0-0.0-0.0-1.28","k","","false","[""d"",""k""]","d","3000","true","1","100","0","0","0","5.7","1","-1","3","600","600","[""hsl(0, 50%, 50%)"",""hsl(225, 50%, 50%)""]","[""hsl(0, 50%, 50%)"",""hsl(225, 50%, 50%)""]","11.066915118055558","0.66","0","circle","black","3","2","2","8.255474452554745","[2,9,8,9,8,8,8,9,8,8,8,8,8,9,8,8,9,8,8,8,8,9,8,8,8,8,9,8,8,9,8,9,8,9,8,8,8,8,8,8,8,8,9,8,8,9,8,9,8,8,9,9,8,8,8,9,8,9,8,9,8,8,8,8,9,8,8,9,9,8,8,8,8,9,8,9,8,8,8,8,8,9,8,8,8,9,8,9,8,8,9,8,9,8,8,8,9,8,8,9,8,8,8,9,8,9,8,8,9,8,9,8,8,8,8,9,8,8,8,8,9,8,8,8,8,9,8,8,8,9,9,8,8,8,9,8,9]","137","776","400","false","20","20","black","1","false","1","1","1552","970","rdk","d","","","","0.66","0.24",""
"","null","","html-keyboard-response","89","441064","0.0-0.0-2.0-1.0-0.0-0.0-2.28","null","<p style='font-size: 60px; color: red'>错误!</p>","","","","","","","","","","","","","","","","","","","","","","","","","","","","","","","","","","","","","","","","","","","","","","","","",""
"","null","fixation","html-keyboard-response","90","441566","0.0-0.0-2.0-1.0-0.0-0.0-0.29","null","<p style='font-size: 48px; color: white'>+</p >","","","","","","","","","","","","","","","","","","","","","","","","","","","","","","","","","","","","","","","","","","","","","","","","",""
"","515","color_pract","rdk","91","442082","0.0-0.0-2.0-1.0-0.0-0.0-1.29","k","","true","[""d"",""k""]","k","3000","true","1","100","0","0","0","5.7","1","-1","3","600","600","[""hsl(0, 50%, 50%)"",""hsl(225, 50%, 50%)""]","[""hsl(225, 50%, 50%)"",""hsl(0, 50%, 50%)""]","11.066915118055558","0.68","0","circle","black","3","2","2","8.19672131147541","[9,7,8,9,8,9,8,8,9,8,8,9,8,8,8,8,8,8,8,9,8,8,8,8,8,9,8,8,8,8,8,8,8,9,8,8,8,8,9,8,8,9,8,8,8,8,8,9,8,9,8,8,8,8,9,7,8,8,8,9,8]","61","776","400","false","20","20","black","1","false","1","1","1552","970","rdk","k","","","","0.68","0.24",""
"","null","","html-keyboard-response","92","442583","0.0-0.0-2.0-1.0-0.0-0.0-2.29","null","<p style='font-size: 60px; color: green'>正确!</p>","","","","","","","","","","","","","","","","","","","","","","","","","","","","","","","","","","","","","","","","","","","","","","","","",""
"","null","fixation","html-keyboard-response","93","443084","0.0-0.0-2.0-1.0-0.0-0.0-0.30","null","<p style='font-size: 48px; color: white'>+</p >","","","","","","","","","","","","","","","","","","","","","","","","","","","","","","","","","","","","","","","","","","","","","","","","",""
"","575","color_pract","rdk","94","443660","0.0-0.0-2.0-1.0-0.0-0.0-1.30","k","","true","[""d"",""k""]","k","3000","true","1","100","0","0","0","5.7","1","-1","3","600","600","[""hsl(0, 50%, 50%)"",""hsl(225, 50%, 50%)""]","[""hsl(225, 50%, 50%)"",""hsl(0, 50%, 50%)""]","11.066915118055558","0.68","0","circle","black","3","2","2","8.202898550724637","[8,7,9,8,8,8,8,9,8,8,8,9,8,8,9,8,8,9,8,8,8,8,9,8,8,8,8,8,8,8,8,8,8,9,8,8,9,8,8,8,8,9,8,8,8,8,9,8,8,8,8,8,8,8,8,8,9,8,8,8,8,8,8,9,8,9,9,8,9]","69","776","400","false","20","20","black","1","false","1","1","1552","970","rdk","k","","","","0.68","0.24",""
"","null","","html-keyboard-response","95","444163","0.0-0.0-2.0-1.0-0.0-0.0-2.30","null","<p style='font-size: 60px; color: green'>正确!</p>","","","","","","","","","","","","","","","","","","","","","","","","","","","","","","","","","","","","","","","","","","","","","","","","",""
"","null","fixation","html-keyboard-response","96","444664","0.0-0.0-2.0-1.0-0.0-0.0-0.31","null","<p style='font-size: 48px; color: white'>+</p >","","","","","","","","","","","","","","","","","","","","","","","","","","","","","","","","","","","","","","","","","","","","","","","","",""
"","778","color_pract","rdk","97","445443","0.0-0.0-2.0-1.0-0.0-0.0-1.31","d","","true","[""d"",""k""]","d","3000","true","1","100","0","0","0","5.7","1","-1","3","600","600","[""hsl(0, 50%, 50%)"",""hsl(225, 50%, 50%)""]","[""hsl(0, 50%, 50%)"",""hsl(225, 50%, 50%)""]","11.066915118055558","0.68","0","circle","black","3","2","2","8.159574468085106","[2,9,9,8,8,8,9,8,8,9,8,8,8,8,8,8,8,8,8,8,9,8,8,8,8,8,8,9,8,9,8,8,9,8,9,8,8,8,8,8,9,8,8,8,9,8,8,9,8,8,9,8,8,8,8,9,8,8,8,8,8,9,8,8,8,9,8,8,8,8,9,8,8,8,8,8,8,8,8,8,8,8,8,8,8,9,8,9,8,8,9,8,8,9]","94","776","400","false","20","20","black","1","false","1","1","1552","970","rdk","d","","","","0.68","0.24",""
"","null","","html-keyboard-response","98","445945","0.0-0.0-2.0-1.0-0.0-0.0-2.31","null","<p style='font-size: 60px; color: green'>正确!</p>","","","","","","","","","","","","","","","","","","","","","","","","","","","","","","","","","","","","","","","","","","","","","","","","",""
"","null","fixation","html-keyboard-response","99","446446","0.0-0.0-2.0-1.0-0.0-0.0-0.32","null","<p style='font-size: 48px; color: white'>+</p >","","","","","","","","","","","","","","","","","","","","","","","","","","","","","","","","","","","","","","","","","","","","","","","","",""
"","668","color_pract","rdk","100","447114","0.0-0.0-2.0-1.0-0.0-0.0-1.32","d","","true","[""d"",""k""]","d","3000","true","1","100","0","0","0","5.7","1","-1","3","600","600","[""hsl(0, 50%, 50%)"",""hsl(225, 50%, 50%)""]","[""hsl(0, 50%, 50%)"",""hsl(225, 50%, 50%)""]","11.066915118055558","0.68","0","circle","black","3","2","2","8.275","[4,9,8,9,8,8,8,8,8,8,8,8,9,8,8,9,8,9,8,8,9,8,9,8,9,8,8,9,8,9,8,9,8,8,8,8,8,9,8,9,8,8,8,9,8,9,9,8,8,8,8,9,9,8,8,8,8,8,8,8,9,9,8,8,9,8,9,8,9,8,8,8,8,9,8,8,9,8,8,9]","80","776","400","false","20","20","black","1","false","1","1","1552","970","rdk","d","","","","0.68","0.24",""
"","null","","html-keyboard-response","101","447615","0.0-0.0-2.0-1.0-0.0-0.0-2.32","null","<p style='font-size: 60px; color: green'>正确!</p>","","","","","","","","","","","","","","","","","","","","","","","","","","","","","","","","","","","","","","","","","","","","","","","","",""
"","null","fixation","html-keyboard-response","102","448116","0.0-0.0-2.0-1.0-0.0-0.0-0.33","null","<p style='font-size: 48px; color: white'>+</p >","","","","","","","","","","","","","","","","","","","","","","","","","","","","","","","","","","","","","","","","","","","","","","","","",""
"","989","color_pract","rdk","103","449106","0.0-0.0-2.0-1.0-0.0-0.0-1.33","d","","true","[""d"",""k""]","d","3000","true","1","100","0","0","0","5.7","1","-1","3","600","600","[""hsl(0, 50%, 50%)"",""hsl(225, 50%, 50%)""]","[""hsl(0, 50%, 50%)"",""hsl(225, 50%, 50%)""]","11.066915118055558","0.66","0","circle","black","3","2","2","8.23728813559322","[8,8,9,8,8,9,8,8,8,8,9,8,8,8,8,9,8,8,8,8,8,8,8,8,9,8,8,8,8,8,9,8,8,8,8,8,8,8,8,8,8,9,8,8,9,8,9,8,8,9,8,8,8,9,8,9,8,8,8,8,8,8,8,9,8,8,8,8,8,9,8,8,8,8,9,9,8,8,8,9,8,8,8,8,9,8,8,8,9,9,8,9,8,9,8,8,9,8,8,8,8,9,8,8,9,8,8,8,8,8,9,8,8,8,9,9,8,8]","118","776","400","false","20","20","black","1","false","1","1","1552","970","rdk","d","","","","0.66","0.24",""
"","null","","html-keyboard-response","104","449614","0.0-0.0-2.0-1.0-0.0-0.0-2.33","null","<p style='font-size: 60px; color: green'>正确!</p>","","","","","","","","","","","","","","","","","","","","","","","","","","","","","","","","","","","","","","","","","","","","","","","","",""
"","null","fixation","html-keyboard-response","105","450115","0.0-0.0-2.0-1.0-0.0-0.0-0.34","null","<p style='font-size: 48px; color: white'>+</p >","","","","","","","","","","","","","","","","","","","","","","","","","","","","","","","","","","","","","","","","","","","","","","","","",""
"","615","color_pract","rdk","106","450731","0.0-0.0-2.0-1.0-0.0-0.0-1.34","k","","true","[""d"",""k""]","k","3000","true","1","100","0","0","0","5.7","1","-1","3","600","600","[""hsl(0, 50%, 50%)"",""hsl(225, 50%, 50%)""]","[""hsl(225, 50%, 50%)"",""hsl(0, 50%, 50%)""]","11.066915118055558","0.66","0","circle","black","3","2","2","8.202702702702704","[5,8,9,8,9,8,8,9,8,8,9,8,9,8,8,8,8,9,8,8,8,8,8,8,8,8,8,8,8,8,8,9,8,9,8,9,8,8,8,8,8,9,8,8,8,8,8,9,8,8,8,8,8,8,8,9,8,8,9,8,9,8,9,8,8,9,8,8,8,9,8,9,8,8]","74","776","400","false","20","20","black","1","false","1","1","1552","970","rdk","k","","","","0.66","0.24",""
"","null","","html-keyboard-response","107","451231","0.0-0.0-2.0-1.0-0.0-0.0-2.34","null","<p style='font-size: 60px; color: green'>正确!</p>","","","","","","","","","","","","","","","","","","","","","","","","","","","","","","","","","","","","","","","","","","","","","","","","",""
"","null","fixation","html-keyboard-response","108","451732","0.0-0.0-2.0-1.0-0.0-0.0-0.35","null","<p style='font-size: 48px; color: white'>+</p >","","","","","","","","","","","","","","","","","","","","","","","","","","","","","","","","","","","","","","","","","","","","","","","","",""
"","527","color_pract","rdk","109","452259","0.0-0.0-2.0-1.0-0.0-0.0-1.35","d","","false","[""d"",""k""]","k","3000","true","1","100","0","0","0","5.7","1","-1","3","600","600","[""hsl(0, 50%, 50%)"",""hsl(225, 50%, 50%)""]","[""hsl(225, 50%, 50%)"",""hsl(0, 50%, 50%)""]","11.066915118055558","0.66","0","circle","black","3","2","2","8.301587301587302","[11,6,9,8,8,8,8,8,9,8,8,8,8,9,9,8,8,8,9,8,8,8,9,8,9,8,8,8,9,8,8,9,8,8,8,8,9,8,8,8,8,9,8,9,8,8,9,8,8,9,8,9,8,8,8,8,9,8,9,8,8,9,8]","63","776","400","false","20","20","black","1","false","1","1","1552","970","rdk","k","","","","0.66","0.24",""
"","null","","html-keyboard-response","110","452760","0.0-0.0-2.0-1.0-0.0-0.0-2.35","null","<p style='font-size: 60px; color: red'>错误!</p>","","","","","","","","","","","","","","","","","","","","","","","","","","","","","","","","","","","","","","","","","","","","","","","","",""
"","null","fixation","html-keyboard-response","111","453262","0.0-0.0-2.0-1.0-0.0-0.0-0.36","null","<p style='font-size: 48px; color: white'>+</p >","","","","","","","","","","","","","","","","","","","","","","","","","","","","","","","","","","","","","","","","","","","","","","","","",""
"","621","color_pract","rdk","112","453883","0.0-0.0-2.0-1.0-0.0-0.0-1.36","k","","true","[""d"",""k""]","k","3000","true","1","100","0","0","0","5.7","1","-1","3","600","600","[""hsl(0, 50%, 50%)"",""hsl(225, 50%, 50%)""]","[""hsl(225, 50%, 50%)"",""hsl(0, 50%, 50%)""]","11.066915118055558","0.68","0","circle","black","3","2","2","8.216216216216216","[4,9,8,8,8,8,9,8,9,8,8,9,8,8,9,8,8,8,8,8,8,8,8,9,9,8,8,8,8,9,8,8,8,8,9,8,8,8,8,9,8,8,9,8,9,8,8,9,8,9,8,9,8,8,9,8,8,9,8,9,8,8,9,8,8,8,8,8,8,8,9,8,8,8]","74","776","400","false","20","20","black","1","false","1","1","1552","970","rdk","k","","","","0.68","0.24",""
"","null","","html-keyboard-response","113","454393","0.0-0.0-2.0-1.0-0.0-0.0-2.36","null","<p style='font-size: 60px; color: green'>正确!</p>","","","","","","","","","","","","","","","","","","","","","","","","","","","","","","","","","","","","","","","","","","","","","","","","",""
"","null","fixation","html-keyboard-response","114","454894","0.0-0.0-2.0-1.0-0.0-0.0-0.37","null","<p style='font-size: 48px; color: white'>+</p >","","","","","","","","","","","","","","","","","","","","","","","","","","","","","","","","","","","","","","","","","","","","","","","","",""
"","642","color_pract","rdk","115","455538","0.0-0.0-2.0-1.0-0.0-0.0-1.37","d","","true","[""d"",""k""]","d","3000","true","1","100","0","0","0","5.7","1","-1","3","600","600","[""hsl(0, 50%, 50%)"",""hsl(225, 50%, 50%)""]","[""hsl(0, 50%, 50%)"",""hsl(225, 50%, 50%)""]","11.066915118055558","0.68","0","circle","black","3","2","2","8.155844155844155","[3,8,9,8,8,8,8,8,8,8,8,9,8,9,8,9,8,9,8,8,8,8,8,8,8,8,9,9,8,8,8,9,8,9,8,8,8,8,8,8,8,8,8,8,8,8,8,9,8,8,9,8,9,8,8,8,8,8,8,9,9,8,8,8,8,8,9,8,8,8,8,9,8,8,8,9,8]","77","776","400","false","20","20","black","1","false","1","1","1552","970","rdk","d","","","","0.68","0.24",""
"","null","","html-keyboard-response","116","456040","0.0-0.0-2.0-1.0-0.0-0.0-2.37","null","<p style='font-size: 60px; color: green'>正确!</p>","","","","","","","","","","","","","","","","","","","","","","","","","","","","","","","","","","","","","","","","","","","","","","","","",""
"","null","fixation","html-keyboard-response","117","456541","0.0-0.0-2.0-1.0-0.0-0.0-0.38","null","<p style='font-size: 48px; color: white'>+</p >","","","","","","","","","","","","","","","","","","","","","","","","","","","","","","","","","","","","","","","","","","","","","","","","",""
"","540","color_pract","rdk","118","457082","0.0-0.0-2.0-1.0-0.0-0.0-1.38","d","","true","[""d"",""k""]","d","3000","true","1","100","0","0","0","5.7","1","-1","3","600","600","[""hsl(0, 50%, 50%)"",""hsl(225, 50%, 50%)""]","[""hsl(0, 50%, 50%)"",""hsl(225, 50%, 50%)""]","11.066915118055558","0.68","0","circle","black","3","2","2","8.203125","[8,8,9,8,8,9,8,8,8,8,8,9,8,8,9,8,9,8,8,8,8,8,8,9,8,9,8,8,8,9,9,8,8,8,9,8,8,8,9,8,8,8,8,9,8,8,8,9,8,8,8,8,8,8,8,8,8,8,8,8,8,8,8,8]","64","776","400","false","20","20","black","1","false","1","1","1552","970","rdk","d","","","","0.68","0.24",""
"","null","","html-keyboard-response","119","457583","0.0-0.0-2.0-1.0-0.0-0.0-2.38","null","<p style='font-size: 60px; color: green'>正确!</p>","","","","","","","","","","","","","","","","","","","","","","","","","","","","","","","","","","","","","","","","","","","","","","","","",""
"","null","fixation","html-keyboard-response","120","458084","0.0-0.0-2.0-1.0-0.0-0.0-0.39","null","<p style='font-size: 48px; color: white'>+</p >","","","","","","","","","","","","","","","","","","","","","","","","","","","","","","","","","","","","","","","","","","","","","","","","",""
"","518","color_pract","rdk","121","458602","0.0-0.0-2.0-1.0-0.0-0.0-1.39","k","","true","[""d"",""k""]","k","3000","true","1","100","0","0","0","5.7","1","-1","3","600","600","[""hsl(0, 50%, 50%)"",""hsl(225, 50%, 50%)""]","[""hsl(225, 50%, 50%)"",""hsl(0, 50%, 50%)""]","11.066915118055558","0.68","0","circle","black","3","2","2","8.258064516129032","[7,9,8,8,8,8,9,8,8,9,8,8,8,8,8,9,8,8,8,9,8,8,9,9,8,8,8,9,8,8,8,9,8,9,8,8,8,8,8,9,8,8,9,8,9,8,8,9,9,8,8,8,9,8,8,8,8,8,8,8,8,9]","62","776","400","false","20","20","black","1","false","1","1","1552","970","rdk","k","","","","0.68","0.24",""
"","null","","html-keyboard-response","122","459103","0.0-0.0-2.0-1.0-0.0-0.0-2.39","null","<p style='font-size: 60px; color: green'>正确!</p>","","","","","","","","","","","","","","","","","","","","","","","","","","","","","","","","","","","","","","","","","","","","","","","","",""
"","null","fixation","html-keyboard-response","123","459606","0.0-0.0-2.0-1.0-0.1-0.1-0.40","null","<p style='font-size: 48px; color: white'>+</p >","","","","","","","","","","","","","","","","","","","","","","","","","","","","","","","","","","","","","","","","","","","","","","","","",""
"","644","color_pract","rdk","124","460251","0.0-0.0-2.0-1.0-0.1-0.1-1.40","d","","true","[""d"",""k""]","d","3000","true","1","100","0","0","0","5.7","1","-1","3","600","600","[""hsl(0, 50%, 50%)"",""hsl(225, 50%, 50%)""]","[""hsl(0, 50%, 50%)"",""hsl(225, 50%, 50%)""]","11.066915118055558","0.66","0","circle","black","3","2","2","8.205128205128204","[1,9,8,8,8,8,9,9,8,8,8,9,8,8,8,9,8,9,8,8,8,9,9,8,9,8,9,8,8,8,8,8,9,8,8,8,8,9,8,8,8,9,8,8,8,8,8,9,9,8,8,9,8,8,8,8,8,9,8,8,9,8,8,8,8,8,9,8,9,8,9,8,8,8,8,9,8,9]","78","776","400","false","20","20","black","1","false","1","1","1552","970","rdk","d","","","","0.66","0.24",""
"","null","","html-keyboard-response","125","460752","0.0-0.0-2.0-1.0-0.1-0.1-2.40","null","<p style='font-size: 60px; color: green'>正确!</p>","","","","","","","","","","","","","","","","","","","","","","","","","","","","","","","","","","","","","","","","","","","","","","","","",""
"","null","fixation","html-keyboard-response","126","461254","0.0-0.0-2.0-1.0-0.1-0.1-0.41","null","<p style='font-size: 48px; color: white'>+</p >","","","","","","","","","","","","","","","","","","","","","","","","","","","","","","","","","","","","","","","","","","","","","","","","",""
"","619","color_pract","rdk","127","461874","0.0-0.0-2.0-1.0-0.1-0.1-1.41","k","","true","[""d"",""k""]","k","3000","true","1","100","0","0","0","5.7","1","-1","3","600","600","[""hsl(0, 50%, 50%)"",""hsl(225, 50%, 50%)""]","[""hsl(225, 50%, 50%)"",""hsl(0, 50%, 50%)""]","11.066915118055558","0.66","0","circle","black","3","2","2","8.18918918918919","[3,8,9,8,9,8,9,7,8,8,8,9,8,8,8,8,8,8,9,8,8,8,9,8,8,8,8,8,9,8,8,8,8,9,8,8,8,9,8,8,9,8,9,8,8,9,9,9,9,8,8,8,8,8,9,8,8,9,8,8,8,8,8,8,9,8,9,8,8,8,8,8,8,9]","74","776","400","false","20","20","black","1","false","1","1","1552","970","rdk","k","","","","0.66","0.24",""
"","null","","html-keyboard-response","128","462375","0.0-0.0-2.0-1.0-0.1-0.1-2.41","null","<p style='font-size: 60px; color: green'>正确!</p>","","","","","","","","","","","","","","","","","","","","","","","","","","","","","","","","","","","","","","","","","","","","","","","","",""
"","null","fixation","html-keyboard-response","129","462876","0.0-0.0-2.0-1.0-0.1-0.1-0.42","null","<p style='font-size: 48px; color: white'>+</p >","","","","","","","","","","","","","","","","","","","","","","","","","","","","","","","","","","","","","","","","","","","","","","","","",""
"","829","color_pract","rdk","130","463706","0.0-0.0-2.0-1.0-0.1-0.1-1.42","k","","true","[""d"",""k""]","k","3000","true","1","100","0","0","0","5.7","1","-1","3","600","600","[""hsl(0, 50%, 50%)"",""hsl(225, 50%, 50%)""]","[""hsl(225, 50%, 50%)"",""hsl(0, 50%, 50%)""]","11.066915118055558","0.66","0","circle","black","3","2","2","8.326530612244898","[18,9,8,8,9,8,8,9,8,8,8,8,8,8,9,8,8,8,8,9,8,8,8,9,8,8,8,8,8,8,8,8,8,8,8,9,8,8,8,8,9,9,8,8,8,8,8,8,9,8,8,8,9,8,8,8,9,8,9,8,8,9,8,8,8,9,8,8,9,8,8,8,8,8,9,9,8,8,8,8,9,8,8,9,8,8,8,9,8,9,8,8,8,8,8,8,8,8]","98","776","400","false","20","20","black","1","false","1","1","1552","970","rdk","k","","","","0.66","0.24",""
"","null","","html-keyboard-response","131","464207","0.0-0.0-2.0-1.0-0.1-0.1-2.42","null","<p style='font-size: 60px; color: green'>正确!</p>","","","","","","","","","","","","","","","","","","","","","","","","","","","","","","","","","","","","","","","","","","","","","","","","",""
"","null","fixation","html-keyboard-response","132","464710","0.0-0.0-2.0-1.0-0.1-0.1-0.43","null","<p style='font-size: 48px; color: white'>+</p >","","","","","","","","","","","","","","","","","","","","","","","","","","","","","","","","","","","","","","","","","","","","","","","","",""
"","628","color_pract","rdk","133","465339","0.0-0.0-2.0-1.0-0.1-0.1-1.43","d","","true","[""d"",""k""]","d","3000","true","1","100","0","0","0","5.7","1","-1","3","600","600","[""hsl(0, 50%, 50%)"",""hsl(225, 50%, 50%)""]","[""hsl(0, 50%, 50%)"",""hsl(225, 50%, 50%)""]","11.066915118055558","0.66","0","circle","black","3","2","2","8.197368421052632","[1,8,9,8,8,8,8,8,9,8,8,8,9,8,8,9,8,9,9,8,8,9,8,8,8,9,8,8,8,8,8,8,8,8,9,8,8,8,9,8,9,8,8,8,9,8,9,8,8,8,8,9,9,8,8,8,9,9,8,9,8,8,9,8,8,9,8,8,8,8,9,8,8,8,8,9]","76","776","400","false","20","20","black","1","false","1","1","1552","970","rdk","d","","","","0.66","0.24",""
"","null","","html-keyboard-response","134","465840","0.0-0.0-2.0-1.0-0.1-0.1-2.43","null","<p style='font-size: 60px; color: green'>正确!</p>","","","","","","","","","","","","","","","","","","","","","","","","","","","","","","","","","","","","","","","","","","","","","","","","",""
"","null","fixation","html-keyboard-response","135","466341","0.0-0.0-2.0-1.0-0.1-0.1-0.44","null","<p style='font-size: 48px; color: white'>+</p >","","","","","","","","","","","","","","","","","","","","","","","","","","","","","","","","","","","","","","","","","","","","","","","","",""
"","813","color_pract","rdk","136","467154","0.0-0.0-2.0-1.0-0.1-0.1-1.44","d","","true","[""d"",""k""]","d","3000","true","1","100","0","0","0","5.7","1","-1","3","600","600","[""hsl(0, 50%, 50%)"",""hsl(225, 50%, 50%)""]","[""hsl(0, 50%, 50%)"",""hsl(225, 50%, 50%)""]","11.066915118055558","0.64","0","circle","black","3","2","2","8.195876288659793","[9,7,8,8,8,8,8,8,8,8,8,9,8,8,8,8,8,8,8,8,8,8,8,9,8,8,8,9,8,9,8,8,8,9,8,8,8,8,8,9,8,9,8,8,8,8,9,9,8,8,8,8,8,8,9,8,8,9,8,8,8,8,8,8,8,9,8,8,8,8,9,9,8,8,8,8,8,8,8,8,9,9,8,9,8,8,8,8,9,8,8,9,7,9,8,8,8]","97","776","400","false","20","20","black","1","false","1","1","1552","970","rdk","d","","","","0.64","0.24",""
"","null","","html-keyboard-response","137","467655","0.0-0.0-2.0-1.0-0.1-0.1-2.44","null","<p style='font-size: 60px; color: green'>正确!</p>","","","","","","","","","","","","","","","","","","","","","","","","","","","","","","","","","","","","","","","","","","","","","","","","",""
"","null","fixation","html-keyboard-response","138","468156","0.0-0.0-2.0-1.0-0.1-0.1-0.45","null","<p style='font-size: 48px; color: white'>+</p >","","","","","","","","","","","","","","","","","","","","","","","","","","","","","","","","","","","","","","","","","","","","","","","","",""
"","629","color_pract","rdk","139","468786","0.0-0.0-2.0-1.0-0.1-0.1-1.45","k","","true","[""d"",""k""]","k","3000","true","1","100","0","0","0","5.7","1","-1","3","600","600","[""hsl(0, 50%, 50%)"",""hsl(225, 50%, 50%)""]","[""hsl(225, 50%, 50%)"",""hsl(0, 50%, 50%)""]","11.066915118055558","0.64","0","circle","black","3","2","2","8.197368421052632","[1,9,8,9,9,8,8,8,9,8,9,8,9,9,8,9,8,8,8,8,8,9,8,8,8,8,8,8,9,8,8,9,8,9,8,8,9,8,8,8,8,8,8,9,8,8,8,8,9,9,8,9,8,9,8,8,8,8,8,9,8,8,8,8,8,9,8,8,8,8,8,8,8,8,9,9]","76","776","400","false","20","20","black","1","false","1","1","1552","970","rdk","k","","","","0.64","0.24",""
"","null","","html-keyboard-response","140","469287","0.0-0.0-2.0-1.0-0.1-0.1-2.45","null","<p style='font-size: 60px; color: green'>正确!</p>","","","","","","","","","","","","","","","","","","","","","","","","","","","","","","","","","","","","","","","","","","","","","","","","",""
"","null","fixation","html-keyboard-response","141","469789","0.0-0.0-2.0-1.0-0.1-0.1-0.46","null","<p style='font-size: 48px; color: white'>+</p >","","","","","","","","","","","","","","","","","","","","","","","","","","","","","","","","","","","","","","","","","","","","","","","","",""
"","613","color_pract","rdk","142","470402","0.0-0.0-2.0-1.0-0.1-0.1-1.46","d","","true","[""d"",""k""]","d","3000","true","1","100","0","0","0","5.7","1","-1","3","600","600","[""hsl(0, 50%, 50%)"",""hsl(225, 50%, 50%)""]","[""hsl(0, 50%, 50%)"",""hsl(225, 50%, 50%)""]","11.066915118055558","0.64","0","circle","black","3","2","2","8.094594594594595","[1,9,8,8,8,8,8,8,8,8,9,8,9,8,8,8,8,9,9,8,8,8,8,9,8,8,9,8,8,8,8,8,8,9,8,8,8,8,8,8,8,9,8,8,8,9,8,8,8,9,8,8,8,9,8,8,8,8,8,8,8,9,8,9,8,8,8,8,8,8,8,8,8,8]","74","776","400","false","20","20","black","1","false","1","1","1552","970","rdk","d","","","","0.64","0.24",""
"","null","","html-keyboard-response","143","470904","0.0-0.0-2.0-1.0-0.1-0.1-2.46","null","<p style='font-size: 60px; color: green'>正确!</p>","","","","","","","","","","","","","","","","","","","","","","","","","","","","","","","","","","","","","","","","","","","","","","","","",""
"","null","fixation","html-keyboard-response","144","471405","0.0-0.0-2.0-1.0-0.1-0.1-0.47","null","<p style='font-size: 48px; color: white'>+</p >","","","","","","","","","","","","","","","","","","","","","","","","","","","","","","","","","","","","","","","","","","","","","","","","",""
"","580","color_pract","rdk","145","471986","0.0-0.0-2.0-1.0-0.1-0.1-1.47","k","","true","[""d"",""k""]","k","3000","true","1","100","0","0","0","5.7","1","-1","3","600","600","[""hsl(0, 50%, 50%)"",""hsl(225, 50%, 50%)""]","[""hsl(225, 50%, 50%)"",""hsl(0, 50%, 50%)""]","11.066915118055558","0.64","0","circle","black","3","2","2","8.257142857142858","[2,9,8,8,9,9,8,8,9,8,9,8,9,8,8,9,8,8,9,9,8,8,9,8,8,8,8,9,8,9,8,8,9,8,8,8,8,8,9,8,8,9,8,8,9,8,9,8,8,9,8,9,8,8,8,8,9,8,8,8,9,9,9,8,8,9,8,8,8,8]","70","776","400","false","20","20","black","1","false","1","1","1552","970","rdk","k","","","","0.64","0.24",""
"","null","","html-keyboard-response","146","472488","0.0-0.0-2.0-1.0-0.1-0.1-2.47","null","<p style='font-size: 60px; color: green'>正确!</p>","","","","","","","","","","","","","","","","","","","","","","","","","","","","","","","","","","","","","","","","","","","","","","","","",""
"","null","fixation","html-keyboard-response","147","472989","0.0-0.0-2.0-1.0-0.1-0.1-0.48","null","<p style='font-size: 48px; color: white'>+</p >","","","","","","","","","","","","","","","","","","","","","","","","","","","","","","","","","","","","","","","","","","","","","","","","",""
"","606","color_pract","rdk","148","473596","0.0-0.0-2.0-1.0-0.1-0.1-1.48","k","","true","[""d"",""k""]","k","3000","true","1","100","0","0","0","5.7","1","-1","3","600","600","[""hsl(0, 50%, 50%)"",""hsl(225, 50%, 50%)""]","[""hsl(225, 50%, 50%)"",""hsl(0, 50%, 50%)""]","11.066915118055558","0.62","0","circle","black","3","2","2","8.178082191780822","[1,10,6,8,8,8,8,9,8,9,8,8,8,8,8,8,9,8,8,8,9,8,8,8,8,8,8,8,8,9,9,9,8,8,8,8,9,8,8,8,8,8,9,8,9,8,9,8,8,8,8,9,8,8,9,9,8,8,8,9,8,8,8,8,9,8,9,8,9,8,9,8,9]","73","776","400","false","20","20","black","1","false","1","1","1552","970","rdk","k","","","","0.62","0.24",""
"","null","","html-keyboard-response","149","474097","0.0-0.0-2.0-1.0-0.1-0.1-2.48","null","<p style='font-size: 60px; color: green'>正确!</p>","","","","","","","","","","","","","","","","","","","","","","","","","","","","","","","","","","","","","","","","","","","","","","","","",""
"","null","fixation","html-keyboard-response","150","474598","0.0-0.0-2.0-1.0-0.1-0.1-0.49","null","<p style='font-size: 48px; color: white'>+</p >","","","","","","","","","","","","","","","","","","","","","","","","","","","","","","","","","","","","","","","","","","","","","","","","",""
"","660","color_pract","rdk","151","475259","0.0-0.0-2.0-1.0-0.1-0.1-1.49","k","","true","[""d"",""k""]","k","3000","true","1","100","0","0","0","5.7","1","-1","3","600","600","[""hsl(0, 50%, 50%)"",""hsl(225, 50%, 50%)""]","[""hsl(225, 50%, 50%)"",""hsl(0, 50%, 50%)""]","11.066915118055558","0.62","0","circle","black","3","2","2","8.2375","[1,9,8,8,9,8,8,8,8,9,8,8,8,8,8,8,9,8,9,8,8,8,8,9,8,8,8,9,9,8,9,8,8,9,9,8,8,9,8,8,9,8,8,9,8,8,9,9,8,9,8,8,9,8,8,8,9,8,8,9,8,8,8,8,9,8,8,8,8,8,9,8,8,9,9,8,8,9,8,9]","80","776","400","false","20","20","black","1","false","1","1","1552","970","rdk","k","","","","0.62","0.24",""
"","null","","html-keyboard-response","152","475759","0.0-0.0-2.0-1.0-0.1-0.1-2.49","null","<p style='font-size: 60px; color: green'>正确!</p>","","","","","","","","","","","","","","","","","","","","","","","","","","","","","","","","","","","","","","","","","","","","","","","","",""
"","null","fixation","html-keyboard-response","153","476260","0.0-0.0-2.0-1.0-0.1-0.1-0.50","null","<p style='font-size: 48px; color: white'>+</p >","","","","","","","","","","","","","","","","","","","","","","","","","","","","","","","","","","","","","","","","","","","","","","","","",""
"","693","color_pract","rdk","154","476954","0.0-0.0-2.0-1.0-0.1-0.1-1.50","d","","true","[""d"",""k""]","d","3000","true","1","100","0","0","0","5.7","1","-1","3","600","600","[""hsl(0, 50%, 50%)"",""hsl(225, 50%, 50%)""]","[""hsl(0, 50%, 50%)"",""hsl(225, 50%, 50%)""]","11.066915118055558","0.62","0","circle","black","3","2","2","8.240963855421686","[4,8,8,9,8,8,8,8,8,8,9,8,8,8,9,8,9,8,9,8,8,8,9,8,9,8,8,8,8,8,9,8,8,8,8,9,8,9,8,8,9,8,8,8,8,8,9,8,8,8,9,9,9,8,8,9,8,8,8,9,8,8,8,9,8,9,8,8,9,8,8,9,8,9,8,9,8,8,8,8,8,9,8]","83","776","400","false","20","20","black","1","false","1","1","1552","970","rdk","d","","","","0.62","0.24",""
"","null","","html-keyboard-response","155","477456","0.0-0.0-2.0-1.0-0.1-0.1-2.50","null","<p style='font-size: 60px; color: green'>正确!</p>","","","","","","","","","","","","","","","","","","","","","","","","","","","","","","","","","","","","","","","","","","","","","","","","",""
"","null","fixation","html-keyboard-response","156","477958","0.0-0.0-2.0-1.0-0.1-0.1-0.51","null","<p style='font-size: 48px; color: white'>+</p >","","","","","","","","","","","","","","","","","","","","","","","","","","","","","","","","","","","","","","","","","","","","","","","","",""
"","708","color_pract","rdk","157","478667","0.0-0.0-2.0-1.0-0.1-0.1-1.51","k","","false","[""d"",""k""]","d","3000","true","1","100","0","0","0","5.7","1","-1","3","600","600","[""hsl(0, 50%, 50%)"",""hsl(225, 50%, 50%)""]","[""hsl(0, 50%, 50%)"",""hsl(225, 50%, 50%)""]","11.066915118055558","0.62","0","circle","black","3","2","2","8.19277108433735","[8,8,8,9,8,8,8,8,8,8,8,8,8,8,8,8,8,9,8,8,9,8,8,8,8,8,8,8,9,8,9,8,8,8,8,8,8,8,8,8,8,8,8,8,8,8,8,9,8,9,8,8,8,8,9,8,8,9,8,8,8,8,8,9,8,8,8,9,9,8,8,8,8,9,8,9,8,8,9,9,8,8,8]","83","776","400","false","20","20","black","1","false","1","1","1552","970","rdk","d","","","","0.62","0.24",""
"","null","","html-keyboard-response","158","479170","0.0-0.0-2.0-1.0-0.1-0.1-2.51","null","<p style='font-size: 60px; color: red'>错误!</p>","","","","","","","","","","","","","","","","","","","","","","","","","","","","","","","","","","","","","","","","","","","","","","","","",""
"","null","fixation","html-keyboard-response","159","479672","0.0-0.0-2.0-1.0-0.1-0.1-0.52","null","<p style='font-size: 48px; color: white'>+</p >","","","","","","","","","","","","","","","","","","","","","","","","","","","","","","","","","","","","","","","","","","","","","","","","",""
"","692","color_pract","rdk","160","480366","0.0-0.0-2.0-1.0-0.1-0.1-1.52","k","","true","[""d"",""k""]","k","3000","true","1","100","0","0","0","5.7","1","-1","3","600","600","[""hsl(0, 50%, 50%)"",""hsl(225, 50%, 50%)""]","[""hsl(225, 50%, 50%)"",""hsl(0, 50%, 50%)""]","11.066915118055558","0.64","0","circle","black","3","2","2","8.216867469879517","[4,4,8,10,7,9,8,9,8,8,8,8,8,9,8,9,8,8,9,8,9,8,8,9,8,9,9,8,8,9,8,8,8,8,8,9,8,9,8,9,8,8,8,9,8,8,8,8,9,8,9,8,8,9,8,8,8,9,8,8,8,8,8,9,8,8,9,8,9,8,9,8,8,8,9,8,8,9,8,8,8,8,9]","83","776","400","false","20","20","black","1","false","1","1","1552","970","rdk","k","","","","0.64","0.24",""
"","null","","html-keyboard-response","161","480867","0.0-0.0-2.0-1.0-0.1-0.1-2.52","null","<p style='font-size: 60px; color: green'>正确!</p>","","","","","","","","","","","","","","","","","","","","","","","","","","","","","","","","","","","","","","","","","","","","","","","","",""
"","null","fixation","html-keyboard-response","162","481368","0.0-0.0-2.0-1.0-0.1-0.1-0.53","null","<p style='font-size: 48px; color: white'>+</p >","","","","","","","","","","","","","","","","","","","","","","","","","","","","","","","","","","","","","","","","","","","","","","","","",""
"","585","color_pract","rdk","163","481954","0.0-0.0-2.0-1.0-0.1-0.1-1.53","d","","true","[""d"",""k""]","d","3000","true","1","100","0","0","0","5.7","1","-1","3","600","600","[""hsl(0, 50%, 50%)"",""hsl(225, 50%, 50%)""]","[""hsl(0, 50%, 50%)"",""hsl(225, 50%, 50%)""]","11.066915118055558","0.64","0","circle","black","3","2","2","8.2","[6,8,8,9,8,8,8,8,8,8,9,8,8,9,8,9,8,8,8,9,8,8,8,9,9,8,8,9,8,8,8,8,8,8,8,8,8,8,8,9,8,8,8,8,8,9,8,9,8,8,9,8,8,8,9,8,8,8,8,9,8,8,8,8,9,8,8,9,8,8]","70","776","400","false","20","20","black","1","false","1","1","1552","970","rdk","d","","","","0.64","0.24",""
"","null","","html-keyboard-response","164","482456","0.0-0.0-2.0-1.0-0.1-0.1-2.53","null","<p style='font-size: 60px; color: green'>正确!</p>","","","","","","","","","","","","","","","","","","","","","","","","","","","","","","","","","","","","","","","","","","","","","","","","",""
"","null","fixation","html-keyboard-response","165","482957","0.0-0.0-2.0-1.0-0.1-0.1-0.54","null","<p style='font-size: 48px; color: white'>+</p >","","","","","","","","","","","","","","","","","","","","","","","","","","","","","","","","","","","","","","","","","","","","","","","","",""
"","988","color_pract","rdk","166","483946","0.0-0.0-2.0-1.0-0.1-0.1-1.54","d","","true","[""d"",""k""]","d","3000","true","1","100","0","0","0","5.7","1","-1","3","600","600","[""hsl(0, 50%, 50%)"",""hsl(225, 50%, 50%)""]","[""hsl(0, 50%, 50%)"",""hsl(225, 50%, 50%)""]","11.066915118055558","0.64","0","circle","black","3","2","2","8.288135593220339","[8,8,8,8,9,8,8,8,8,8,8,8,9,8,9,8,8,8,9,8,9,8,8,9,8,8,8,8,9,8,8,8,8,9,8,8,8,8,9,9,8,8,8,9,8,9,8,9,8,9,8,8,9,9,8,8,8,8,9,8,9,8,9,8,8,9,8,8,8,9,9,8,8,8,8,8,9,8,9,8,8,8,8,8,8,9,8,9,8,8,8,8,9,8,9,8,8,8,9,8,8,9,8,8,9,8,8,8,8,8,9,8,9,8,8,9,8,8]","118","776","400","false","20","20","black","1","false","1","1","1552","970","rdk","d","","","","0.64","0.24",""
"","null","","html-keyboard-response","167","484447","0.0-0.0-2.0-1.0-0.1-0.1-2.54","null","<p style='font-size: 60px; color: green'>正确!</p>","","","","","","","","","","","","","","","","","","","","","","","","","","","","","","","","","","","","","","","","","","","","","","","","",""
"","null","fixation","html-keyboard-response","168","484949","0.0-0.0-2.0-1.0-0.1-0.1-0.55","null","<p style='font-size: 48px; color: white'>+</p >","","","","","","","","","","","","","","","","","","","","","","","","","","","","","","","","","","","","","","","","","","","","","","","","",""
"","676","color_pract","rdk","169","485627","0.0-0.0-2.0-1.0-0.1-0.1-1.55","k","","true","[""d"",""k""]","k","3000","true","1","100","0","0","0","5.7","1","-1","3","600","600","[""hsl(0, 50%, 50%)"",""hsl(225, 50%, 50%)""]","[""hsl(225, 50%, 50%)"",""hsl(0, 50%, 50%)""]","11.066915118055558","0.64","0","circle","black","3","2","2","8.234567901234568","[7,8,8,8,9,8,8,8,9,8,9,8,8,8,8,8,8,8,8,9,8,9,8,8,8,8,8,8,8,9,8,8,8,8,8,8,9,8,8,9,8,9,8,8,8,9,8,8,8,8,9,8,8,9,8,9,8,8,9,8,8,8,8,9,8,8,8,8,9,9,8,8,8,9,8,8,8,9,9,8,8]","81","776","400","false","20","20","black","1","false","1","1","1552","970","rdk","k","","","","0.64","0.24",""
"","null","","html-keyboard-response","170","486128","0.0-0.0-2.0-1.0-0.1-0.1-2.55","null","<p style='font-size: 60px; color: green'>正确!</p>","","","","","","","","","","","","","","","","","","","","","","","","","","","","","","","","","","","","","","","","","","","","","","","","",""
"","null","fixation","html-keyboard-response","171","486630","0.0-0.0-2.0-1.0-0.1-0.1-0.56","null","<p style='font-size: 48px; color: white'>+</p >","","","","","","","","","","","","","","","","","","","","","","","","","","","","","","","","","","","","","","","","","","","","","","","","",""
"","779","color_pract","rdk","172","487410","0.0-0.0-2.0-1.0-0.1-0.1-1.56","k","","true","[""d"",""k""]","k","3000","true","1","100","0","0","0","5.7","1","-1","3","600","600","[""hsl(0, 50%, 50%)"",""hsl(225, 50%, 50%)""]","[""hsl(225, 50%, 50%)"",""hsl(0, 50%, 50%)""]","11.066915118055558","0.62","0","circle","black","3","2","2","8.268817204301076","[5,8,8,8,9,9,9,8,8,8,9,8,8,8,8,8,9,9,8,8,8,9,9,8,8,8,9,8,8,8,9,8,8,9,8,8,9,9,8,9,8,8,9,8,9,8,8,9,8,8,9,8,8,8,8,8,9,8,8,9,8,9,8,8,8,9,8,8,8,8,9,8,8,8,8,8,8,8,8,8,9,8,8,8,8,8,9,8,9,8,9,8,9]","93","776","400","false","20","20","black","1","false","1","1","1552","970","rdk","k","","","","0.62","0.24",""
"","null","","html-keyboard-response","173","487911","0.0-0.0-2.0-1.0-0.1-0.1-2.56","null","<p style='font-size: 60px; color: green'>正确!</p>","","","","","","","","","","","","","","","","","","","","","","","","","","","","","","","","","","","","","","","","","","","","","","","","",""
"","null","fixation","html-keyboard-response","174","488413","0.0-0.0-2.0-1.0-0.1-0.1-0.57","null","<p style='font-size: 48px; color: white'>+</p >","","","","","","","","","","","","","","","","","","","","","","","","","","","","","","","","","","","","","","","","","","","","","","","","",""
"","766","color_pract","rdk","175","489179","0.0-0.0-2.0-1.0-0.1-0.1-1.57","k","","true","[""d"",""k""]","k","3000","true","1","100","0","0","0","5.7","1","-1","3","600","600","[""hsl(0, 50%, 50%)"",""hsl(225, 50%, 50%)""]","[""hsl(225, 50%, 50%)"",""hsl(0, 50%, 50%)""]","11.066915118055558","0.62","0","circle","black","3","2","2","8.241758241758241","[7,8,8,9,8,8,8,8,8,8,9,8,8,9,8,8,8,8,8,8,9,8,9,8,8,8,8,9,8,8,8,9,9,8,8,8,8,9,8,9,8,8,9,8,8,8,8,9,8,8,8,8,8,9,8,8,9,8,8,8,9,8,8,9,9,8,8,8,8,9,8,8,8,8,8,8,9,8,9,8,9,8,9,8,9,8,8,8,8,8,8]","91","776","400","false","20","20","black","1","false","1","1","1552","970","rdk","k","","","","0.62","0.24",""
"","null","","html-keyboard-response","176","489681","0.0-0.0-2.0-1.0-0.1-0.1-2.57","null","<p style='font-size: 60px; color: green'>正确!</p>","","","","","","","","","","","","","","","","","","","","","","","","","","","","","","","","","","","","","","","","","","","","","","","","",""
"","null","fixation","html-keyboard-response","177","490182","0.0-0.0-2.0-1.0-0.1-0.1-0.58","null","<p style='font-size: 48px; color: white'>+</p >","","","","","","","","","","","","","","","","","","","","","","","","","","","","","","","","","","","","","","","","","","","","","","","","",""
"","612","color_pract","rdk","178","490796","0.0-0.0-2.0-1.0-0.1-0.1-1.58","d","","true","[""d"",""k""]","d","3000","true","1","100","0","0","0","5.7","1","-1","3","600","600","[""hsl(0, 50%, 50%)"",""hsl(225, 50%, 50%)""]","[""hsl(0, 50%, 50%)"",""hsl(225, 50%, 50%)""]","11.066915118055558","0.62","0","circle","black","3","2","2","8.291666666666666","[6,8,8,9,8,8,8,8,8,8,8,8,8,9,8,8,9,9,8,9,8,8,8,9,8,8,8,9,9,8,8,8,8,8,9,9,8,9,9,8,8,9,8,8,8,8,9,8,8,9,8,8,8,8,9,8,9,8,8,9,8,9,8,9,9,8,8,8,9,8,8,9]","72","776","400","false","20","20","black","1","false","1","1","1552","970","rdk","d","","","","0.62","0.24",""
"","null","","html-keyboard-response","179","491297","0.0-0.0-2.0-1.0-0.1-0.1-2.58","null","<p style='font-size: 60px; color: green'>正确!</p>","","","","","","","","","","","","","","","","","","","","","","","","","","","","","","","","","","","","","","","","","","","","","","","","",""
"","null","fixation","html-keyboard-response","180","491798","0.0-0.0-2.0-1.0-0.1-0.1-0.59","null","<p style='font-size: 48px; color: white'>+</p >","","","","","","","","","","","","","","","","","","","","","","","","","","","","","","","","","","","","","","","","","","","","","","","","",""
"","732","color_pract","rdk","181","492530","0.0-0.0-2.0-1.0-0.1-0.1-1.59","d","","true","[""d"",""k""]","d","3000","true","1","100","0","0","0","5.7","1","-1","3","600","600","[""hsl(0, 50%, 50%)"",""hsl(225, 50%, 50%)""]","[""hsl(0, 50%, 50%)"",""hsl(225, 50%, 50%)""]","11.066915118055558","0.62","0","circle","black","3","2","2","8.227272727272727","[5,8,8,8,8,8,9,8,8,8,9,8,8,8,8,9,9,9,9,8,9,8,8,9,8,8,9,8,8,8,9,9,8,9,8,9,8,8,8,8,8,9,8,8,8,8,8,8,8,9,8,8,8,8,8,9,8,8,8,8,9,8,9,8,8,8,8,8,8,8,8,9,8,8,9,8,8,8,9,8,8,8,8,9,9,8,8,8]","88","776","400","false","20","20","black","1","false","1","1","1552","970","rdk","d","","","","0.62","0.24",""
"","null","","html-keyboard-response","182","493032","0.0-0.0-2.0-1.0-0.1-0.1-2.59","null","<p style='font-size: 60px; color: green'>正确!</p>","","","","","","","","","","","","","","","","","","","","","","","","","","","","","","","","","","","","","","","","","","","","","","","","",""
"","null","fixation","html-keyboard-response","183","493534","0.0-0.0-2.0-1.0-0.1-0.1-0.60","null","<p style='font-size: 48px; color: white'>+</p >","","","","","","","","","","","","","","","","","","","","","","","","","","","","","","","","","","","","","","","","","","","","","","","","",""
"","747","color_pract","rdk","184","494282","0.0-0.0-2.0-1.0-0.1-0.1-1.60","k","","true","[""d"",""k""]","k","3000","true","1","100","0","0","0","5.7","1","-1","3","600","600","[""hsl(0, 50%, 50%)"",""hsl(225, 50%, 50%)""]","[""hsl(225, 50%, 50%)"",""hsl(0, 50%, 50%)""]","11.066915118055558","0.6","0","circle","black","3","2","2","8.188888888888888","[2,9,8,8,8,8,8,9,8,8,8,8,9,8,8,9,8,8,9,8,8,9,8,8,8,9,8,8,8,8,8,8,8,8,9,8,8,8,8,8,8,8,9,8,8,9,8,9,8,8,8,8,9,8,8,8,8,9,8,9,8,8,9,8,9,8,8,9,8,9,8,9,8,8,8,8,9,8,8,8,8,8,9,8,8,9,8,9,8,8]","90","776","400","false","20","20","black","1","false","1","1","1552","970","rdk","k","","","","0.6","0.24",""
"","null","","html-keyboard-response","185","494783","0.0-0.0-2.0-1.0-0.1-0.1-2.60","null","<p style='font-size: 60px; color: green'>正确!</p>","","","","","","","","","","","","","","","","","","","","","","","","","","","","","","","","","","","","","","","","","","","","","","","","",""
"","null","fixation","html-keyboard-response","186","495284","0.0-0.0-2.0-1.0-0.1-0.1-0.61","null","<p style='font-size: 48px; color: white'>+</p >","","","","","","","","","","","","","","","","","","","","","","","","","","","","","","","","","","","","","","","","","","","","","","","","",""
"","582","color_pract","rdk","187","495867","0.0-0.0-2.0-1.0-0.1-0.1-1.61","d","","true","[""d"",""k""]","d","3000","true","1","100","0","0","0","5.7","1","-1","3","600","600","[""hsl(0, 50%, 50%)"",""hsl(225, 50%, 50%)""]","[""hsl(0, 50%, 50%)"",""hsl(225, 50%, 50%)""]","11.066915118055558","0.6","0","circle","black","3","2","2","8.185714285714285","[1,8,8,9,8,9,8,8,8,8,9,8,8,9,8,9,8,9,9,8,8,8,9,8,9,8,8,9,8,8,8,8,9,9,8,8,9,8,9,8,8,9,8,8,8,8,9,8,8,8,8,9,9,8,8,8,8,8,8,8,8,8,8,8,8,8,8,9,8,9]","70","776","400","false","20","20","black","1","false","1","1","1552","970","rdk","d","","","","0.6","0.24",""
"","null","","html-keyboard-response","188","496368","0.0-0.0-2.0-1.0-0.1-0.1-2.61","null","<p style='font-size: 60px; color: green'>正确!</p>","","","","","","","","","","","","","","","","","","","","","","","","","","","","","","","","","","","","","","","","","","","","","","","","",""
"","null","fixation","html-keyboard-response","189","496870","0.0-0.0-2.0-1.0-0.1-0.1-0.62","null","<p style='font-size: 48px; color: white'>+</p >","","","","","","","","","","","","","","","","","","","","","","","","","","","","","","","","","","","","","","","","","","","","","","","","",""
"","668","color_pract","rdk","190","497539","0.0-0.0-2.0-1.0-0.1-0.1-1.62","k","","true","[""d"",""k""]","k","3000","true","1","100","0","0","0","5.7","1","-1","3","600","600","[""hsl(0, 50%, 50%)"",""hsl(225, 50%, 50%)""]","[""hsl(225, 50%, 50%)"",""hsl(0, 50%, 50%)""]","11.066915118055558","0.6","0","circle","black","3","2","2","8.2375","[7,9,8,8,8,8,9,8,8,8,8,8,8,8,9,8,9,8,8,8,9,8,8,8,8,8,9,8,8,9,8,9,8,8,9,8,9,8,9,8,8,9,8,8,8,8,8,9,9,8,8,9,8,8,8,9,8,8,8,9,8,8,8,8,8,8,8,8,8,9,8,8,8,9,8,8,8,8,8,9]","80","776","400","false","20","20","black","1","false","1","1","1552","970","rdk","k","","","","0.6","0.24",""
"","null","","html-keyboard-response","191","498042","0.0-0.0-2.0-1.0-0.1-0.1-2.62","null","<p style='font-size: 60px; color: green'>正确!</p>","","","","","","","","","","","","","","","","","","","","","","","","","","","","","","","","","","","","","","","","","","","","","","","","",""
"","null","fixation","html-keyboard-response","192","498545","0.0-0.0-2.0-1.0-0.1-0.1-0.63","null","<p style='font-size: 48px; color: white'>+</p >","","","","","","","","","","","","","","","","","","","","","","","","","","","","","","","","","","","","","","","","","","","","","","","","",""
"","649","color_pract","rdk","193","499194","0.0-0.0-2.0-1.0-0.1-0.1-1.63","d","","true","[""d"",""k""]","d","3000","true","1","100","0","0","0","5.7","1","-1","3","600","600","[""hsl(0, 50%, 50%)"",""hsl(225, 50%, 50%)""]","[""hsl(0, 50%, 50%)"",""hsl(225, 50%, 50%)""]","11.066915118055558","0.6","0","circle","black","3","2","2","8.246753246753247","[9,7,8,8,8,8,9,8,9,8,8,8,8,9,9,8,9,8,8,8,8,8,9,8,8,9,8,8,8,8,8,8,8,8,8,9,8,8,8,9,8,9,8,8,9,8,9,8,9,8,8,8,8,9,8,8,8,9,9,8,8,8,8,8,9,8,8,8,8,8,8,8,9,8,8,9,8]","77","776","400","false","20","20","black","1","false","1","1","1552","970","rdk","d","","","","0.6","0.24",""
"","null","","html-keyboard-response","194","499699","0.0-0.0-2.0-1.0-0.1-0.1-2.63","null","<p style='font-size: 60px; color: green'>正确!</p>","","","","","","","","","","","","","","","","","","","","","","","","","","","","","","","","","","","","","","","","","","","","","","","","",""
"","null","fixation","html-keyboard-response","195","500201","0.0-0.0-2.0-1.0-0.1-0.1-0.64","null","<p style='font-size: 48px; color: white'>+</p >","","","","","","","","","","","","","","","","","","","","","","","","","","","","","","","","","","","","","","","","","","","","","","","","",""
"","833","color_pract","rdk","196","501035","0.0-0.0-2.0-1.0-0.1-0.1-1.64","d","","true","[""d"",""k""]","d","3000","true","1","100","0","0","0","5.7","1","-1","3","600","600","[""hsl(0, 50%, 50%)"",""hsl(225, 50%, 50%)""]","[""hsl(0, 50%, 50%)"",""hsl(225, 50%, 50%)""]","11.066915118055558","0.58","0","circle","black","3","2","2","8.17","[2,9,9,8,8,9,8,9,8,8,8,9,8,8,8,8,8,8,8,8,8,8,9,8,8,9,8,9,8,8,8,8,9,8,8,8,8,9,8,8,8,9,8,8,8,8,8,8,8,9,8,8,8,9,8,8,8,8,8,8,8,8,8,9,8,8,9,8,9,8,8,8,9,8,8,8,9,8,8,8,8,8,9,9,8,8,8,8,8,8,8,8,9,8,8,8,8,9,8,9]","100","776","400","false","20","20","black","1","false","1","1","1552","970","rdk","d","","","","0.58","0.24",""
"","null","","html-keyboard-response","197","501542","0.0-0.0-2.0-1.0-0.1-0.1-2.64","null","<p style='font-size: 60px; color: green'>正确!</p>","","","","","","","","","","","","","","","","","","","","","","","","","","","","","","","","","","","","","","","","","","","","","","","","",""
"","null","fixation","html-keyboard-response","198","502043","0.0-0.0-2.0-1.0-0.1-0.1-0.65","null","<p style='font-size: 48px; color: white'>+</p >","","","","","","","","","","","","","","","","","","","","","","","","","","","","","","","","","","","","","","","","","","","","","","","","",""
"","758","color_pract","rdk","199","502802","0.0-0.0-2.0-1.0-0.1-0.1-1.65","k","","true","[""d"",""k""]","k","3000","true","1","100","0","0","0","5.7","1","-1","3","600","600","[""hsl(0, 50%, 50%)"",""hsl(225, 50%, 50%)""]","[""hsl(225, 50%, 50%)"",""hsl(0, 50%, 50%)""]","11.066915118055558","0.58","0","circle","black","3","2","2","8.197802197802197","[2,8,9,9,8,8,8,8,9,9,8,8,9,8,8,8,8,8,8,8,9,8,8,8,9,8,9,8,8,8,8,9,8,8,8,8,8,8,8,8,8,8,8,9,8,8,8,9,8,8,8,9,8,8,8,9,8,8,8,8,9,8,8,9,9,8,8,9,8,8,8,8,9,8,9,8,8,9,8,9,8,8,9,8,9,8,9,8,8,8,8]","91","776","400","false","20","20","black","1","false","1","1","1552","970","rdk","k","","","","0.58","0.24",""
"","null","","html-keyboard-response","200","503303","0.0-0.0-2.0-1.0-0.1-0.1-2.65","null","<p style='font-size: 60px; color: green'>正确!</p>","","","","","","","","","","","","","","","","","","","","","","","","","","","","","","","","","","","","","","","","","","","","","","","","",""
"","null","fixation","html-keyboard-response","201","503803","0.0-0.0-2.0-1.0-0.1-0.1-0.66","null","<p style='font-size: 48px; color: white'>+</p >","","","","","","","","","","","","","","","","","","","","","","","","","","","","","","","","","","","","","","","","","","","","","","","","",""
"","966","color_pract","rdk","202","504770","0.0-0.0-2.0-1.0-0.1-0.1-1.66","d","","false","[""d"",""k""]","k","3000","true","1","100","0","0","0","5.7","1","-1","3","600","600","[""hsl(0, 50%, 50%)"",""hsl(225, 50%, 50%)""]","[""hsl(225, 50%, 50%)"",""hsl(0, 50%, 50%)""]","11.066915118055558","0.58","0","circle","black","3","2","2","8.350877192982455","[8,8,9,8,9,8,9,8,9,8,9,8,9,8,8,9,8,9,9,8,8,8,9,8,9,8,9,8,9,8,9,8,8,8,9,8,8,9,8,9,8,9,8,9,8,8,8,9,8,8,8,8,9,8,9,8,8,8,9,8,8,9,8,8,8,9,8,9,8,8,8,9,8,9,8,8,9,8,8,8,9,8,8,8,9,8,9,8,8,8,9,8,8,9,8,9,8,9,8,8,8,9,8,9,8,8,9,8,8,8,9,8,8,8]","114","776","400","false","20","20","black","1","false","1","1","1552","970","rdk","k","","","","0.58","0.24",""
"","null","","html-keyboard-response","203","505272","0.0-0.0-2.0-1.0-0.1-0.1-2.66","null","<p style='font-size: 60px; color: red'>错误!</p>","","","","","","","","","","","","","","","","","","","","","","","","","","","","","","","","","","","","","","","","","","","","","","","","",""
"","null","fixation","html-keyboard-response","204","505772","0.0-0.0-2.0-1.0-0.1-0.1-0.67","null","<p style='font-size: 48px; color: white'>+</p >","","","","","","","","","","","","","","","","","","","","","","","","","","","","","","","","","","","","","","","","","","","","","","","","",""
"","782","color_pract","rdk","205","506554","0.0-0.0-2.0-1.0-0.1-0.1-1.67","d","","true","[""d"",""k""]","d","3000","true","1","100","0","0","0","5.7","1","-1","3","600","600","[""hsl(0, 50%, 50%)"",""hsl(225, 50%, 50%)""]","[""hsl(0, 50%, 50%)"",""hsl(225, 50%, 50%)""]","11.066915118055558","0.6","0","circle","black","3","2","2","8.297872340425531","[6,8,8,9,8,8,9,8,9,8,9,8,7,8,9,8,8,8,9,8,8,8,8,9,8,9,8,8,8,8,8,8,8,8,9,8,8,9,8,9,9,8,8,9,9,8,8,9,8,9,8,8,9,8,8,9,8,9,8,8,8,8,9,9,8,8,8,9,8,8,9,8,9,9,8,8,8,9,8,8,8,9,8,9,9,8,8,8,8,8,9,8,9,8]","94","776","400","false","20","20","black","1","false","1","1","1552","970","rdk","d","","","","0.6","0.24",""
"","null","","html-keyboard-response","206","507056","0.0-0.0-2.0-1.0-0.1-0.1-2.67","null","<p style='font-size: 60px; color: green'>正确!</p>","","","","","","","","","","","","","","","","","","","","","","","","","","","","","","","","","","","","","","","","","","","","","","","","",""
"","null","fixation","html-keyboard-response","207","507557","0.0-0.0-2.0-1.0-0.1-0.1-0.68","null","<p style='font-size: 48px; color: white'>+</p >","","","","","","","","","","","","","","","","","","","","","","","","","","","","","","","","","","","","","","","","","","","","","","","","",""
"","1068","color_pract","rdk","208","508627","0.0-0.0-2.0-1.0-0.1-0.1-1.68","d","","false","[""d"",""k""]","k","3000","true","1","100","0","0","0","5.7","1","-1","3","600","600","[""hsl(0, 50%, 50%)"",""hsl(225, 50%, 50%)""]","[""hsl(225, 50%, 50%)"",""hsl(0, 50%, 50%)""]","11.066915118055558","0.6","0","circle","black","3","2","2","8.220472440944881","[11,8,9,8,8,8,8,8,8,8,9,8,8,9,8,8,8,8,8,8,8,8,8,8,8,8,8,8,9,8,9,8,8,8,9,8,8,8,8,8,9,8,8,9,8,8,8,8,8,8,8,8,8,9,8,8,8,8,8,8,8,8,8,8,8,8,8,8,9,8,9,8,8,9,9,8,9,8,8,8,8,9,8,8,9,8,9,8,8,8,8,8,8,8,8,8,8,8,8,9,8,8,8,9,8,8,8,8,8,8,8,9,8,8,8,8,8,9,9,9,8,8,9,8,8,9,8]","127","776","400","false","20","20","black","1","false","1","1","1552","970","rdk","k","","","","0.6","0.24",""
"","null","","html-keyboard-response","209","509128","0.0-0.0-2.0-1.0-0.1-0.1-2.68","null","<p style='font-size: 60px; color: red'>错误!</p>","","","","","","","","","","","","","","","","","","","","","","","","","","","","","","","","","","","","","","","","","","","","","","","","",""
"","null","fixation","html-keyboard-response","210","509629","0.0-0.0-2.0-1.0-0.1-0.1-0.69","null","<p style='font-size: 48px; color: white'>+</p >","","","","","","","","","","","","","","","","","","","","","","","","","","","","","","","","","","","","","","","","","","","","","","","","",""
"","725","color_pract","rdk","211","510355","0.0-0.0-2.0-1.0-0.1-0.1-1.69","k","","true","[""d"",""k""]","k","3000","true","1","100","0","0","0","5.7","1","-1","3","600","600","[""hsl(0, 50%, 50%)"",""hsl(225, 50%, 50%)""]","[""hsl(225, 50%, 50%)"",""hsl(0, 50%, 50%)""]","11.066915118055558","0.62","0","circle","black","3","2","2","8.218390804597702","[6,8,8,8,9,8,8,8,9,8,8,8,8,8,9,8,8,9,8,8,8,8,8,8,8,8,8,9,8,8,8,8,9,8,8,9,8,8,8,8,8,8,9,8,9,8,8,8,9,8,8,8,9,8,9,8,9,8,8,8,8,9,8,9,8,8,9,8,9,8,8,9,8,8,8,8,8,9,8,8,8,9,9,8,8,8,8]","87","776","400","false","20","20","black","1","false","1","1","1552","970","rdk","k","","","","0.62","0.24",""
"","null","","html-keyboard-response","212","510858","0.0-0.0-2.0-1.0-0.1-0.1-2.69","null","<p style='font-size: 60px; color: green'>正确!</p>","","","","","","","","","","","","","","","","","","","","","","","","","","","","","","","","","","","","","","","","","","","","","","","","",""
"","null","fixation","html-keyboard-response","213","511374","0.0-0.0-2.0-1.0-0.1-0.1-0.70","null","<p style='font-size: 48px; color: white'>+</p >","","","","","","","","","","","","","","","","","","","","","","","","","","","","","","","","","","","","","","","","","","","","","","","","",""
"","692","color_pract","rdk","214","512068","0.0-0.0-2.0-1.0-0.1-0.1-1.70","d","","true","[""d"",""k""]","d","3000","true","1","100","0","0","0","5.7","1","-1","3","600","600","[""hsl(0, 50%, 50%)"",""hsl(225, 50%, 50%)""]","[""hsl(0, 50%, 50%)"",""hsl(225, 50%, 50%)""]","11.066915118055558","0.62","0","circle","black","3","2","2","8.289156626506024","[8,8,8,8,8,8,8,8,9,9,8,8,9,8,8,8,8,8,9,8,9,8,9,8,9,8,8,8,9,8,8,8,9,8,8,8,8,9,9,8,8,9,8,8,9,8,8,9,9,8,8,9,8,8,9,8,8,8,9,8,9,8,8,8,9,8,8,8,8,8,8,9,8,9,8,8,8,8,8,8,9,8,9]","83","776","400","false","20","20","black","1","false","1","1","1552","970","rdk","d","","","","0.62","0.24",""
"","null","","html-keyboard-response","215","512569","0.0-0.0-2.0-1.0-0.1-0.1-2.70","null","<p style='font-size: 60px; color: green'>正确!</p>","","","","","","","","","","","","","","","","","","","","","","","","","","","","","","","","","","","","","","","","","","","","","","","","",""
"","null","fixation","html-keyboard-response","216","513070","0.0-0.0-2.0-1.0-0.1-0.1-0.71","null","<p style='font-size: 48px; color: white'>+</p >","","","","","","","","","","","","","","","","","","","","","","","","","","","","","","","","","","","","","","","","","","","","","","","","",""
"","738","color_pract","rdk","217","513810","0.0-0.0-2.0-1.0-0.1-0.1-1.71","d","","true","[""d"",""k""]","d","3000","true","1","100","0","0","0","5.7","1","-1","3","600","600","[""hsl(0, 50%, 50%)"",""hsl(225, 50%, 50%)""]","[""hsl(0, 50%, 50%)"",""hsl(225, 50%, 50%)""]","11.066915118055558","0.62","0","circle","black","3","2","2","8.202247191011235","[3,8,8,8,8,8,9,8,8,9,9,8,8,8,8,9,8,8,8,9,8,8,8,8,8,8,8,8,9,9,8,9,8,8,8,8,9,8,9,8,8,9,9,8,8,8,9,8,8,8,8,8,8,9,8,8,8,9,8,8,9,8,8,8,8,8,8,8,9,8,8,8,8,9,8,9,8,8,9,8,8,8,8,9,8,9,8,8,9]","89","776","400","false","20","20","black","1","false","1","1","1552","970","rdk","d","","","","0.62","0.24",""
"","null","","html-keyboard-response","218","514312","0.0-0.0-2.0-1.0-0.1-0.1-2.71","null","<p style='font-size: 60px; color: green'>正确!</p>","","","","","","","","","","","","","","","","","","","","","","","","","","","","","","","","","","","","","","","","","","","","","","","","",""
"","null","fixation","html-keyboard-response","219","514813","0.0-0.0-2.0-1.0-0.1-0.1-0.72","null","<p style='font-size: 48px; color: white'>+</p >","","","","","","","","","","","","","","","","","","","","","","","","","","","","","","","","","","","","","","","","","","","","","","","","",""
"","796","color_pract","rdk","220","515610","0.0-0.0-2.0-1.0-0.1-0.1-1.72","d","","true","[""d"",""k""]","d","3000","true","1","100","0","0","0","5.7","1","-1","3","600","600","[""hsl(0, 50%, 50%)"",""hsl(225, 50%, 50%)""]","[""hsl(0, 50%, 50%)"",""hsl(225, 50%, 50%)""]","11.066915118055558","0.62","0","circle","black","3","2","2","8.208333333333334","[2,9,9,8,8,8,8,9,8,8,9,8,8,8,9,8,8,9,8,8,9,8,8,8,8,8,8,9,8,8,9,8,8,8,9,8,9,8,8,9,8,8,8,8,9,8,8,8,9,8,8,8,8,9,8,8,9,8,9,9,8,8,8,8,8,8,8,8,8,8,8,9,8,8,8,9,8,9,8,8,8,9,8,8,9,8,9,8,8,8,8,8,9,9,8,8]","96","776","400","false","20","20","black","1","false","1","1","1552","970","rdk","d","","","","0.62","0.24",""
"","null","","html-keyboard-response","221","516111","0.0-0.0-2.0-1.0-0.1-0.1-2.72","null","<p style='font-size: 60px; color: green'>正确!</p>","","","","","","","","","","","","","","","","","","","","","","","","","","","","","","","","","","","","","","","","","","","","","","","","",""
"","null","fixation","html-keyboard-response","222","516612","0.0-0.0-2.0-1.0-0.1-0.1-0.73","null","<p style='font-size: 48px; color: white'>+</p >","","","","","","","","","","","","","","","","","","","","","","","","","","","","","","","","","","","","","","","","","","","","","","","","",""
"","797","color_pract","rdk","223","517410","0.0-0.0-2.0-1.0-0.1-0.1-1.73","k","","true","[""d"",""k""]","k","3000","true","1","100","0","0","0","5.7","1","-1","3","600","600","[""hsl(0, 50%, 50%)"",""hsl(225, 50%, 50%)""]","[""hsl(225, 50%, 50%)"",""hsl(0, 50%, 50%)""]","11.066915118055558","0.6","0","circle","black","3","2","2","8.21875","[3,9,8,9,9,8,8,9,8,8,8,9,9,8,8,8,9,8,9,8,8,9,8,8,8,8,9,8,9,8,8,8,8,9,8,9,8,8,8,8,8,8,8,9,8,8,9,8,8,8,8,9,8,8,8,8,8,8,8,8,8,8,8,8,8,9,8,8,8,8,9,8,8,8,9,8,8,9,8,8,9,8,8,8,9,8,8,8,9,8,9,8,9,8,9,8]","96","776","400","false","20","20","black","1","false","1","1","1552","970","rdk","k","","","","0.6","0.24",""
"","null","","html-keyboard-response","224","517911","0.0-0.0-2.0-1.0-0.1-0.1-2.73","null","<p style='font-size: 60px; color: green'>正确!</p>","","","","","","","","","","","","","","","","","","","","","","","","","","","","","","","","","","","","","","","","","","","","","","","","",""
"","null","fixation","html-keyboard-response","225","518412","0.0-0.0-2.0-1.0-0.1-0.1-0.74","null","<p style='font-size: 48px; color: white'>+</p >","","","","","","","","","","","","","","","","","","","","","","","","","","","","","","","","","","","","","","","","","","","","","","","","",""
"","839","color_pract","rdk","226","519252","0.0-0.0-2.0-1.0-0.1-0.1-1.74","k","","true","[""d"",""k""]","k","3000","true","1","100","0","0","0","5.7","1","-1","3","600","600","[""hsl(0, 50%, 50%)"",""hsl(225, 50%, 50%)""]","[""hsl(225, 50%, 50%)"",""hsl(0, 50%, 50%)""]","11.066915118055558","0.6","0","circle","black","3","2","2","8.207920792079207","[3,8,9,8,8,8,8,9,8,8,9,8,8,8,9,8,8,8,8,9,8,8,8,9,8,9,8,8,9,8,9,8,9,8,8,8,8,9,8,8,8,8,9,8,8,9,8,8,8,8,9,8,8,8,8,8,9,8,9,8,8,8,8,8,8,8,9,9,8,8,9,8,8,8,8,8,8,9,8,8,9,8,9,8,9,8,8,8,8,8,8,8,8,9,8,8,8,9,8,9,8]","101","776","400","false","20","20","black","1","false","1","1","1552","970","rdk","k","","","","0.6","0.24",""
"","null","","html-keyboard-response","227","519754","0.0-0.0-2.0-1.0-0.1-0.1-2.74","null","<p style='font-size: 60px; color: green'>正确!</p>","","","","","","","","","","","","","","","","","","","","","","","","","","","","","","","","","","","","","","","","","","","","","","","","",""
"","null","fixation","html-keyboard-response","228","520255","0.0-0.0-2.0-1.0-0.1-0.1-0.75","null","<p style='font-size: 48px; color: white'>+</p >","","","","","","","","","","","","","","","","","","","","","","","","","","","","","","","","","","","","","","","","","","","","","","","","",""
"","682","color_pract","rdk","229","520938","0.0-0.0-2.0-1.0-0.1-0.1-1.75","k","","false","[""d"",""k""]","d","3000","true","1","100","0","0","0","5.7","1","-1","3","600","600","[""hsl(0, 50%, 50%)"",""hsl(225, 50%, 50%)""]","[""hsl(0, 50%, 50%)"",""hsl(225, 50%, 50%)""]","11.066915118055558","0.6","0","circle","black","3","2","2","8.085365853658537","[5,8,8,8,8,8,8,8,8,8,8,8,9,8,8,8,8,9,8,8,8,8,8,8,8,8,8,8,8,8,8,8,8,8,8,8,9,8,9,8,8,8,8,8,8,8,8,8,9,8,8,9,8,8,8,8,9,8,8,9,8,8,8,8,8,9,8,8,8,8,8,8,8,8,8,8,8,8,8,8,8,9]","82","776","400","false","20","20","black","1","false","1","1","1552","970","rdk","d","","","","0.6","0.24",""
"","null","","html-keyboard-response","230","521439","0.0-0.0-2.0-1.0-0.1-0.1-2.75","null","<p style='font-size: 60px; color: red'>错误!</p>","","","","","","","","","","","","","","","","","","","","","","","","","","","","","","","","","","","","","","","","","","","","","","","","",""
"","null","fixation","html-keyboard-response","231","521940","0.0-0.0-2.0-1.0-0.1-0.1-0.76","null","<p style='font-size: 48px; color: white'>+</p >","","","","","","","","","","","","","","","","","","","","","","","","","","","","","","","","","","","","","","","","","","","","","","","","",""
"","935","color_pract","rdk","232","522876","0.0-0.0-2.0-1.0-0.1-0.1-1.76","d","","true","[""d"",""k""]","d","3000","true","1","100","0","0","0","5.7","1","-1","3","600","600","[""hsl(0, 50%, 50%)"",""hsl(225, 50%, 50%)""]","[""hsl(0, 50%, 50%)"",""hsl(225, 50%, 50%)""]","11.066915118055558","0.62","0","circle","black","3","2","2","8.214285714285714","[3,8,8,8,8,8,9,8,9,8,8,8,8,8,8,8,9,8,8,9,8,9,8,9,8,8,8,8,9,8,9,8,9,8,8,8,8,9,8,8,9,8,8,8,8,9,8,8,8,8,8,8,8,8,9,9,8,8,8,8,8,8,9,9,8,8,9,8,9,9,8,8,8,8,9,8,8,8,8,8,9,8,8,9,8,8,8,9,8,8,8,8,9,8,8,9,8,8,8,8,9,8,8,8,8,9,8,8,8,9,9,8]","112","776","400","false","20","20","black","1","false","1","1","1552","970","rdk","d","","","","0.62","0.24",""
